"Time (s)","Acceleration x (m/s^2)","Acceleration y (m/s^2)","Acceleration z (m/s^2)","Absolute acceleration (m/s^2)"
1.591668300E-2,5.729315281E-1,-7.061705112E0,6.999699593E0,9.959504205E0
1.831965100E-2,5.729315281E-1,-7.061705112E0,6.999699593E0,9.959504205E0
2.074730800E-2,5.944783688E-1,-7.023399830E0,7.002093315E0,9.935333940E0
2.319996400E-2,6.112370491E-1,-7.028188229E0,7.033216953E0,9.961685662E0
2.565314100E-2,6.256016493E-1,-6.997065067E0,7.049975395E0,9.952509736E0
2.810647400E-2,6.351780891E-1,-6.982700348E0,7.059551716E0,9.949815364E0
3.055975600E-2,6.447545290E-1,-6.946788788E0,7.047581196E0,9.916752673E0
3.301308900E-2,6.567250490E-1,-6.944395065E0,7.081099033E0,9.939711974E0
3.546647400E-2,6.902424097E-1,-6.937212467E0,7.042793274E0,9.909706782E0
3.791996400E-2,7.022129297E-1,-6.918059826E0,7.047581196E0,9.900558341E0
4.037350600E-2,7.333360910E-1,-6.918059826E0,7.073916435E0,9.921573832E0
4.282699500E-2,7.165774107E-1,-6.901300907E0,7.083492756E0,9.915508410E0
4.528048500E-2,6.950305700E-1,-6.896512985E0,7.095463276E0,9.919201477E0
4.773402600E-2,7.046068907E-1,-6.908483505E0,7.107433796E0,9.936761564E0
5.018751600E-2,6.926364899E-1,-6.884542465E0,7.085886955E0,9.903861076E0
5.264100600E-2,7.070010900E-1,-6.870177746E0,7.114616394E0,9.915490872E0
5.509449500E-2,6.854541302E-1,-6.882148266E0,7.150527954E0,9.948058210E0
5.754798500E-2,7.046068907E-1,-6.877359867E0,7.143345356E0,9.940922115E0
6.000152600E-2,7.022129297E-1,-6.870177746E0,7.152921677E0,9.942672366E0
6.245506800E-2,6.830600500E-1,-6.886936188E0,7.133769035E0,9.939171079E0
6.490861000E-2,6.854541302E-1,-6.884542465E0,7.109827995E0,9.920505352E0
6.736215100E-2,7.070010900E-1,-6.915665150E0,7.117010593E0,9.948774537E0
6.981569300E-2,7.237597704E-1,-6.879754066E0,7.059551716E0,9.883932145E0
7.226923500E-2,7.333360910E-1,-6.877359867E0,7.052370071E0,9.877843094E0
7.472277600E-2,7.477008104E-1,-6.862995148E0,7.030822754E0,9.853538831E0
7.717631800E-2,7.429125309E-1,-6.860601425E0,7.057157993E0,9.870321671E0
7.962986000E-2,7.668534517E-1,-6.829477787E0,7.061945915E0,9.853979459E0
8.208340100E-2,7.740358114E-1,-6.788778305E0,7.028429031E0,9.802318958E0
8.453694300E-2,7.907944918E-1,-6.779201984E0,7.030822754E0,9.798745025E0
8.699048500E-2,8.314942122E-1,-6.750473022E0,7.028429031E0,9.780546166E0
8.944402600E-2,8.386765718E-1,-6.750473022E0,7.014063835E0,9.770842129E0
9.189756800E-2,8.697997332E-1,-6.740896225E0,7.014063835E0,9.766950649E0
9.435111000E-2,8.889524937E-1,-6.728925705E0,7.006881714E0,9.755258532E0
9.680465100E-2,9.296523333E-1,-6.731319904E0,7.023640156E0,9.772739747E0
9.925819300E-2,9.535932541E-1,-6.733713627E0,7.028429031E0,9.780135682E0
1.017117350E-1,9.559873343E-1,-6.757654667E0,7.028429031E0,9.796868021E0
1.041653290E-1,1.001475334E0,-6.745684147E0,7.030822754E0,9.794880094E0
1.066189220E-1,9.727460146E-1,-6.750473022E0,7.047581196E0,9.807319794E0
1.090725160E-1,9.823224545E-1,-6.767231464E0,7.071522236E0,9.837012038E0
1.115261100E-1,9.655637741E-1,-6.781595707E0,7.102645874E0,9.867620389E0
1.139797040E-1,9.823224545E-1,-6.788778305E0,7.107433796E0,9.877655767E0
1.164332970E-1,9.775342941E-1,-6.786384106E0,7.112221718E0,9.878981744E0
1.188869430E-1,9.727460146E-1,-6.807931423E0,7.107433796E0,9.889882721E0
1.213405890E-1,9.847165346E-1,-6.798354626E0,7.114616394E0,9.889644013E0
1.237942350E-1,9.799282551E-1,-6.817507267E0,7.126586914E0,9.910948782E0
1.262478810E-1,9.966870546E-1,-6.827084064E0,7.148133278E0,9.934700361E0
1.287015260E-1,1.027810335E0,-6.841448307E0,7.152921677E0,9.951185735E0
1.311551720E-1,1.003869295E0,-6.831872463E0,7.148133278E0,9.938714418E0
1.336088180E-1,9.895048141E-1,-6.846236706E0,7.148133278E0,9.947154677E0
1.360624640E-1,1.011051655E0,-6.894118786E0,7.114616394E0,9.958356577E0
1.385161100E-1,1.006263375E0,-6.886936188E0,7.140951157E0,9.971742047E0
1.409650160E-1,9.799282551E-1,-6.894118786E0,7.133769035E0,9.968941462E0
1.433902760E-1,9.847165346E-1,-6.920454025E0,7.138557434E0,9.991063648E0
1.457959540E-1,9.823224545E-1,-6.930030346E0,7.157710075E0,1.001114836E1
1.482010060E-1,9.895048141E-1,-6.956365108E0,7.128981113E0,1.000962072E1
1.506063180E-1,1.008657575E0,-6.956365108E0,7.126586914E0,1.000982750E1
1.530116310E-1,1.008657575E0,-6.956365108E0,7.100251198E0,9.991094670E0
1.554173600E-1,1.001475334E0,-6.958759308E0,7.085886955E0,9.981837401E0
1.578225160E-1,1.003869295E0,-6.963547230E0,7.059551716E0,9.966745407E0
1.602273080E-1,1.008657575E0,-6.992276669E0,7.057157993E0,9.985629778E0
1.626329330E-1,1.008657575E0,-6.997065067E0,7.052370071E0,9.985601298E0
1.650379850E-1,1.027810335E0,-6.994670868E0,7.033216953E0,9.972359568E0
1.674429330E-1,1.044569016E0,-6.999458790E0,7.014063835E0,9.963967044E0
1.698487660E-1,1.042174935E0,-7.011429310E0,7.023640156E0,9.978867200E0
1.722545990E-1,1.054145455E0,-7.009035110E0,7.014063835E0,9.971704333E0
1.746610060E-1,1.056539536E0,-7.021005630E0,6.999699593E0,9.970285364E0
1.770669950E-1,1.027810335E0,-7.006641388E0,6.987729073E0,9.948757471E0
1.794724640E-1,1.013445616E0,-7.011429310E0,7.011670113E0,9.967483672E0
1.818787660E-1,1.051751256E0,-7.021005630E0,7.014063835E0,9.979869350E0
1.842849640E-1,1.020628095E0,-7.037764549E0,7.126586914E0,1.006777297E1
1.866906410E-1,1.023022175E0,-7.032976151E0,6.683678150E0,9.756068958E0
1.890964740E-1,9.918987751E-1,-7.047340870E0,7.385149479E0,1.025618396E1
1.915024640E-1,1.013445616E0,-7.044946671E0,6.891964912E0,9.907448004E0
1.939089740E-1,9.631696939E-1,-7.078464508E0,7.023640156E0,1.001817731E1
1.963149640E-1,9.751402140E-1,-7.064099789E0,7.212774277E0,1.014280617E1
1.987204330E-1,9.392286539E-1,-7.056917191E0,6.817748070E0,9.857176038E0
2.011264220E-1,9.224698544E-1,-7.085646152E0,7.313326359E0,1.022458187E1
2.035319950E-1,9.296523333E-1,-7.059311390E0,6.884782791E0,9.904461865E0
2.059374120E-1,9.009230137E-1,-7.066493988E0,7.133769035E0,1.008155049E1
2.083431930E-1,9.033172131E-1,-7.085646152E0,7.186439514E0,1.013248618E1
2.107489220E-1,9.057112932E-1,-7.095222950E0,6.860841751E0,9.911289078E0
2.131551200E-1,8.745880127E-1,-7.095222950E0,7.337267399E0,1.024414886E1
2.155609010E-1,8.793761730E-1,-7.080858231E0,6.860841751E0,9.898636536E0
2.179663180E-1,8.530410528E-1,-7.109587193E0,7.167286396E0,1.013133275E1
2.203723600E-1,8.458588123E-1,-7.100011349E0,7.112221718E0,1.008510466E1
2.227781410E-1,8.530410528E-1,-7.102405548E0,6.868023872E0,9.916733107E0
2.251833490E-1,8.003709316E-1,-7.095222950E0,7.286991596E0,1.020210904E1
2.275887140E-1,8.027650118E-1,-7.071281910E0,6.836900711E0,9.868671179E0
2.299940790E-1,7.692476511E-1,-7.085646152E0,7.174468994E0,1.011291890E1
2.323997560E-1,7.596712112E-1,-7.083252430E0,7.016458511E0,9.999012720E0
2.348051720E-1,7.572771311E-1,-7.059311390E0,6.853659153E0,9.868130002E0
2.372101720E-1,7.381243706E-1,-7.054523468E0,7.248685837E0,1.014172447E1
2.396160060E-1,7.644594908E-1,-7.054523468E0,6.733954430E0,9.782476268E0
2.420217350E-1,7.285479307E-1,-7.044946671E0,7.148133278E0,1.006269671E1
2.444272040E-1,7.453066111E-1,-7.021005630E0,6.954211235E0,9.910149137E0
2.468328290E-1,7.524889708E-1,-7.021005630E0,6.868023872E0,9.850406673E0
2.492383490E-1,7.429125309E-1,-7.023399830E0,7.169680595E0,1.006401431E1
2.516442350E-1,7.620652914E-1,-7.009035110E0,6.710013390E0,9.733015790E0
2.540499640E-1,7.357302904E-1,-6.994670868E0,7.114616394E0,1.000422341E1
2.564552240E-1,7.309420109E-1,-6.999458790E0,6.841689110E0,9.815060339E0
2.588612140E-1,7.165774107E-1,-7.001853466E0,6.834506989E0,9.810704405E0
2.612670470E-1,7.477008104E-1,-6.989882946E0,7.083492756E0,9.979648778E0
2.636724640E-1,7.524889708E-1,-6.975517750E0,6.619038105E0,9.645504288E0
2.660780890E-1,7.165774107E-1,-6.999458790E0,7.090675354E0,9.989173315E0
2.684837140E-1,7.405184507E-1,-6.965941906E0,6.729166508E0,9.713619104E0
2.708898080E-1,7.548830509E-1,-6.970729828E0,6.798595428E0,9.766361787E0
2.732955890E-1,7.955826521E-1,-6.965941906E0,7.002093315E0,9.908915641E0
2.757007450E-1,7.907944918E-1,-6.946788788E0,6.578337669E0,9.599883170E0
2.781065260E-1,7.860063314E-1,-6.956365108E0,7.042793274E0,9.930244638E0
2.805121510E-1,8.171296120E-1,-6.937212467E0,6.652555466E0,9.646196755E0
2.829176200E-1,8.338882923E-1,-6.939606190E0,6.805777550E0,9.755619499E0
2.853234540E-1,8.674057722E-1,-6.958759308E0,6.927876472E0,9.857595868E0
2.877291310E-1,8.841644526E-1,-6.925241947E0,6.561579227E0,9.580973059E0
2.901352240E-1,8.578293324E-1,-6.944395065E0,7.059551716E0,9.939706455E0
2.925408490E-1,8.865585327E-1,-6.939606190E0,6.587914467E0,9.609616908E0
2.949461620E-1,8.865585327E-1,-6.946788788E0,6.836900711E0,9.787086994E0
2.973522040E-1,9.033172131E-1,-6.920454025E0,6.875206470E0,9.796791817E0
2.997581930E-1,8.961348534E-1,-6.908483505E0,6.592702866E0,9.591346782E0
3.021637660E-1,8.865585327E-1,-6.968335629E0,7.052370071E0,9.953874175E0
3.045693390E-1,9.033172131E-1,-6.939606190E0,6.547214985E0,9.583326151E0
3.069749120E-1,8.841644526E-1,-6.961153507E0,6.901541233E0,9.842290197E0
3.093809010E-1,9.248640537E-1,-6.932424545E0,6.853659153E0,9.792166634E0
3.117865260E-1,9.272581339E-1,-6.968335629E0,6.619038105E0,9.655525595E0
3.141917350E-1,9.416227341E-1,-6.985094547E0,7.049975395E0,9.968969469E0
3.165978290E-1,9.535932541E-1,-6.958759308E0,6.556791306E0,9.608599452E0
3.190035580E-1,9.200758934E-1,-6.985094547E0,6.939846992E0,9.889366095E0
3.214090260E-1,9.440169334E-1,-6.992276669E0,6.824930191E0,9.816454202E0
3.238148080E-1,9.368345737E-1,-6.975517750E0,6.671708107E0,9.697793355E0
3.262202760E-1,9.535932541E-1,-6.951576710E0,7.076310158E0,9.965336136E0
3.286261620E-1,9.751402140E-1,-6.944395065E0,6.523273945E0,9.577506159E0
3.310316830E-1,9.200758934E-1,-6.956365108E0,7.006881714E0,9.916347439E0
3.334369430E-1,9.799282551E-1,-6.951576710E0,6.719589710E0,9.717899156E0
3.358430890E-1,9.511991739E-1,-6.953971386E0,6.662131310E0,9.677111733E0
3.382489740E-1,9.607754946E-1,-6.956365108E0,7.021246433E0,9.930357826E0
3.406540790E-1,9.583814144E-1,-6.939606190E0,6.501727104E0,9.557671492E0
3.430596510E-1,9.320464134E-1,-6.951576710E0,6.954211235E0,9.876952119E0
3.454654330E-1,9.488050938E-1,-6.946788788E0,6.640584946E0,9.656887386E0
3.478713700E-1,9.368345737E-1,-6.963547230E0,6.688467026E0,9.700734003E0
3.502770470E-1,9.272581339E-1,-6.953971386E0,6.920694351E0,9.854620033E0
3.526822560E-1,9.320464134E-1,-6.963547230E0,6.458633423E0,9.543251345E0
3.550881930E-1,9.344403744E-1,-6.997065067E0,6.954211235E0,9.909245797E0
3.574937660E-1,9.224698544E-1,-6.963547230E0,6.587914467E0,9.630293748E0
3.598992350E-1,9.176818132E-1,-6.975517750E0,6.690860748E0,9.709150598E0
3.623051720E-1,9.368345737E-1,-6.963547230E0,6.853659153E0,9.815360046E0
3.647110060E-1,9.416227341E-1,-6.968335629E0,6.480179787E0,9.562274043E0
3.671172560E-1,9.152876139E-1,-6.987488270E0,6.966181755E0,9.909108536E0
3.695230890E-1,9.416227341E-1,-6.994670868E0,6.530456066E0,9.615556685E0
3.719286100E-1,9.248640537E-1,-6.968335629E0,6.753107548E0,9.747693907E0
3.743349640E-1,9.703519344E-1,-7.006641388E0,6.817748070E0,9.824270719E0
3.767408490E-1,9.464108944E-1,-7.001853466E0,6.511303425E0,9.608262998E0
3.791464220E-1,9.368345737E-1,-7.011429310E0,7.009275913E0,9.958300498E0
3.815522560E-1,9.296523333E-1,-6.994670868E0,6.566367149E0,9.638820029E0
3.839578810E-1,9.320464134E-1,-7.028188229E0,6.844082832E0,9.854217884E0
3.863640260E-1,9.464108944E-1,-7.025794506E0,6.812959671E0,9.832288721E0
3.887697040E-1,9.296523333E-1,-7.061705112E0,6.604673386E0,9.713580343E0
3.911747560E-1,9.224698544E-1,-7.061705112E0,7.186439514E0,1.011748697E1
3.935806930E-1,9.464108944E-1,-7.054523468E0,6.736348152E0,9.800019458E0
3.959864740E-1,9.224698544E-1,-7.052129269E0,7.061945915E0,1.002270213E1
3.983916830E-1,9.703519344E-1,-7.032976151E0,6.920694351E0,9.914653131E0
4.007970470E-1,9.583814144E-1,-6.994670868E0,6.743530750E0,9.763151257E0
4.032026200E-1,9.631696939E-1,-7.025794506E0,7.227138996E0,1.012526653E1
4.056084540E-1,9.751402140E-1,-7.006641388E0,6.688467026E0,9.735477037E0
4.080138180E-1,9.464108944E-1,-7.011429310E0,7.105040073E0,1.002683544E1
4.104189740E-1,1.001475334E0,-6.999458790E0,6.913511753E0,9.888984829E0
4.128249120E-1,9.871106148E-1,-7.021005630E0,6.781836510E0,9.811330892E0
4.152303810E-1,1.015839815E0,-7.040158749E0,7.145739555E0,1.008252744E1
4.176356410E-1,1.020628095E0,-7.030582428E0,6.609461308E0,9.703388571E0
4.200414740E-1,1.023022175E0,-7.088040829E0,7.138557434E0,1.011167144E1
4.224472040E-1,1.032598495E0,-7.068887711E0,6.860841751E0,9.904876711E0
4.248530890E-1,1.020628095E0,-7.097616673E0,6.853659153E0,9.919197948E0
4.272586100E-1,1.020628095E0,-7.131134510E0,7.172074318E0,1.016530428E1
4.296640260E-1,1.015839815E0,-7.102405548E0,6.714801788E0,9.826731815E0
4.320699120E-1,9.775342941E-1,-7.157469273E0,7.188833237E0,1.019138180E1
4.344753810E-1,1.001475334E0,-7.119163990E0,6.868023872E0,9.942595269E0
4.368803810E-1,9.511991739E-1,-7.133528233E0,6.937452793E0,9.996012013E0
4.392856930E-1,9.488050938E-1,-7.155075550E0,7.150527954E0,1.015998953E1
4.416913700E-1,9.559873343E-1,-7.155075550E0,6.705225468E0,9.852363497E0
4.440974640E-1,9.176818132E-1,-7.171834469E0,7.169680595E0,1.018241962E1
4.465028810E-1,9.200758934E-1,-7.138316631E0,6.800989151E0,9.902300612E0
4.489082450E-1,8.841644526E-1,-7.140710831E0,6.942240715E0,9.998310062E0
4.513145990E-1,8.913466930E-1,-7.138316631E0,7.088280678E0,1.009919731E1
4.537204330E-1,9.152876139E-1,-7.131134510E0,6.678890228E0,9.813175098E0
4.561257450E-1,8.913466930E-1,-7.138316631E0,7.184044838E0,1.016663973E1
4.585313700E-1,9.104994535E-1,-7.107193470E0,6.719589710E0,9.823140748E0
4.609371510E-1,8.985290527E-1,-7.119163990E0,6.951817513E0,9.990876693E0
4.633434010E-1,8.961348534E-1,-7.121557713E0,6.990122795E0,1.001905478E1
4.657492870E-1,8.865585327E-1,-7.111981869E0,6.674101830E0,9.793360371E0
4.681551720E-1,8.817702532E-1,-7.135922909E0,7.126586914E0,1.012359401E1
4.705619430E-1,9.081053734E-1,-7.119163990E0,6.642978668E0,9.779382234E0
4.729683490E-1,8.434647322E-1,-7.119163990E0,6.980546951E0,1.000609636E1
4.753738700E-1,8.530410528E-1,-7.131134510E0,6.935059071E0,9.983776978E0
4.777795990E-1,8.482528925E-1,-7.111981869E0,6.702831268E0,9.809575224E0
4.801856410E-1,8.291000128E-1,-7.131134510E0,7.140951157E0,1.012589105E1
4.825919950E-1,8.195236921E-1,-7.135922909E0,6.621431828E0,9.769154226E0
4.849977760E-1,8.386765718E-1,-7.131134510E0,7.004487991E0,1.003091770E1
4.874031410E-1,8.554352522E-1,-7.114376068E0,6.868023872E0,9.925516018E0
4.898092350E-1,8.434647322E-1,-7.114376068E0,6.733954430E0,9.832188050E0
4.922148080E-1,8.458588123E-1,-7.126346111E0,7.107433796E0,1.010029213E1
4.946201720E-1,8.817702532E-1,-7.092828751E0,6.590308189E0,9.722031706E0
4.970262660E-1,8.769820929E-1,-7.109587193E0,7.016458511E0,1.002726372E1
4.994325680E-1,8.961348534E-1,-7.073675632E0,6.789019108E0,9.845340272E0
5.018391310E-1,8.961348534E-1,-7.076070309E0,6.724378109E0,9.802606268E0
5.042452760E-1,9.152876139E-1,-7.102405548E0,7.061945915E0,1.005748458E1
5.066509010E-1,9.152876139E-1,-7.083252430E0,6.580732346E0,9.711655606E0
5.090569950E-1,9.009230137E-1,-7.088040829E0,7.071522236E0,1.005278130E1
5.114627240E-1,9.200758934E-1,-7.076070309E0,6.757895470E0,9.827841159E0
5.138682970E-1,9.248640537E-1,-7.095222950E0,6.793807030E0,9.866781450E0
5.162741310E-1,9.248640537E-1,-7.102405548E0,7.028429031E0,1.003485689E1
5.186799120E-1,8.985290527E-1,-7.088040829E0,6.587914467E0,9.718451228E0
5.210860060E-1,8.985290527E-1,-7.114376068E0,7.081099033E0,1.007787998E1
5.234915790E-1,9.224698544E-1,-7.100011349E0,6.714801788E0,9.815787021E0
5.258969430E-1,9.057112932E-1,-7.126346111E0,6.827324390E0,9.910473257E0
5.283032450E-1,9.320464134E-1,-7.126346111E0,6.997305393E0,1.003074285E1
5.307089220E-1,9.152876139E-1,-7.133528233E0,6.563973427E0,9.737079830E0
5.331143390E-1,8.961348534E-1,-7.147893429E0,7.042793274E0,1.007454094E1
5.355203810E-1,9.392286539E-1,-7.128740311E0,6.635796547E0,9.784420509E0
5.379264740E-1,9.368345737E-1,-7.135922909E0,6.836900711E0,9.926845728E0
5.403330370E-1,9.464108944E-1,-7.155075550E0,6.913511753E0,9.994370639E0
5.427391310E-1,9.751402140E-1,-7.145498753E0,6.571156025E0,9.756492319E0
5.451445990E-1,9.535932541E-1,-7.150287151E0,7.042793274E0,1.008151197E1
5.475508490E-1,9.799282551E-1,-7.140710831E0,6.563973427E0,9.748628504E0
5.499572560E-1,9.488050938E-1,-7.167046070E0,6.824930191E0,9.942155329E0
5.523632970E-1,9.799282551E-1,-7.169439793E0,6.829718590E0,9.950185041E0
5.547697040E-1,9.296523333E-1,-7.147893429E0,6.532850266E0,9.728040220E0
5.571761100E-1,9.416227341E-1,-7.181410313E0,6.994911194E0,1.006916531E1
5.595826200E-1,9.679577351E-1,-7.157469273E0,6.499332905E0,9.716359234E0
5.619886620E-1,9.392286539E-1,-7.152681351E0,6.868023872E0,9.960559868E0
5.643942350E-1,9.488050938E-1,-7.140710831E0,6.781836510E0,9.893598371E0
5.668004850E-1,9.248640537E-1,-7.150287151E0,6.573549747E0,9.756717488E0
5.692062140E-1,9.464108944E-1,-7.145498753E0,6.982940674E0,1.003570159E1
5.716115260E-1,9.607754946E-1,-7.126346111E0,6.487362385E0,9.684718332E0
5.740172040E-1,9.344403744E-1,-7.114376068E0,6.911118031E0,9.962483530E0
5.764227760E-1,9.655637741E-1,-7.102405548E0,6.702831268E0,9.813481797E0
5.788288180E-1,9.488050938E-1,-7.097616673E0,6.597490788E0,9.736697501E0
5.812344950E-1,9.727460146E-1,-7.114376068E0,6.961393833E0,1.000107923E1
5.836398080E-1,9.679577351E-1,-7.097616673E0,6.449057102E0,9.638643168E0
5.860461100E-1,9.368345737E-1,-7.123952389E0,6.879994392E0,9.947998768E0
5.884518910E-1,9.535932541E-1,-7.100011349E0,6.614249229E0,9.750271489E0
5.908569430E-1,9.320464134E-1,-7.123952389E0,6.597490788E0,9.754296122E0
5.932622040E-1,9.128935337E-1,-7.104799271E0,6.882388592E0,9.933721357E0
5.956675680E-1,9.248640537E-1,-7.107193470E0,6.413145542E0,9.617484509E0
5.980732970E-1,8.961348534E-1,-7.128740311E0,6.906329155E0,9.965910821E0
6.004785060E-1,9.248640537E-1,-7.100011349E0,6.561579227E0,9.711841052E0
6.028836620E-1,9.128935337E-1,-7.128740311E0,6.638190269E0,9.783551660E0
6.052897560E-1,9.368345737E-1,-7.121557713E0,6.836900711E0,9.916524321E0
6.076953810E-1,9.224698544E-1,-7.119163990E0,6.403568745E0,9.619726567E0
6.101006930E-1,9.224698544E-1,-7.138316631E0,6.911118031E0,9.978480215E0
6.125060580E-1,9.392286539E-1,-7.097616673E0,6.554397106E0,9.706618068E0
6.149115790E-1,9.272581339E-1,-7.109587193E0,6.738742828E0,9.839547378E0
6.173175680E-1,9.296523333E-1,-7.107193470E0,6.901541233E0,9.950262503E0
6.197230370E-1,9.176818132E-1,-7.107193470E0,6.537638187E0,9.700260409E0
6.221281930E-1,9.296523333E-1,-7.114376068E0,7.018852234E0,1.003707562E1
6.245342870E-1,9.559873343E-1,-7.095222950E0,6.611855507E0,9.745395515E0
6.269401720E-1,9.559873343E-1,-7.102405548E0,6.832112312E0,9.901304712E0
6.293455890E-1,9.847165346E-1,-7.119163990E0,6.879994392E0,9.949195214E0
6.317514220E-1,9.583814144E-1,-7.104799271E0,6.585520267E0,9.734769890E0
6.341569950E-1,9.631696939E-1,-7.145498753E0,7.040399551E0,1.007735452E1
6.365628290E-1,9.823224545E-1,-7.107193470E0,6.578337669E0,9.734047612E0
6.389680370E-1,9.583814144E-1,-7.138316631E0,6.903935432E0,9.976892488E0
6.413729850E-1,9.631696939E-1,-7.126346111E0,6.889570713E0,9.958849801E0
6.437789740E-1,9.559873343E-1,-7.116769791E0,6.614249229E0,9.762715652E0
6.461845470E-1,9.847165346E-1,-7.147893429E0,7.061945915E0,1.009619370E1
6.485898600E-1,9.559873343E-1,-7.128740311E0,6.580732346E0,9.748789074E0
6.509954850E-1,9.392286539E-1,-7.145498753E0,6.951817513E0,1.001339451E1
6.534012660E-1,9.751402140E-1,-7.128740311E0,6.820141792E0,9.913837346E0
6.558074640E-1,9.631696939E-1,-7.131134510E0,6.707619190E0,9.837323338E0
6.582130370E-1,9.272581339E-1,-7.138316631E0,7.128981113E0,1.013102876E1
6.606179330E-1,9.607754946E-1,-7.131134510E0,6.614249229E0,9.773661638E0
6.630235580E-1,9.128935337E-1,-7.162257671E0,7.033216953E0,1.007955606E1
6.654290260E-1,9.416227341E-1,-7.135922909E0,6.839294910E0,9.928947779E0
6.678343390E-1,9.296523333E-1,-7.138316631E0,6.774654388E0,9.885128217E0
6.702402240E-1,9.272581339E-1,-7.131134510E0,7.128981113E0,1.012596952E1
6.726461100E-1,9.464108944E-1,-7.119163990E0,6.640584946E0,9.781388343E0
6.750522560E-1,9.176818132E-1,-7.133528233E0,7.128981113E0,1.012678314E1
6.774580370E-1,9.559873343E-1,-7.116769791E0,6.872812271E0,9.939711895E0
6.798634010E-1,9.416227341E-1,-7.140710831E0,6.884782791E0,9.963766287E0
6.822696510E-1,9.703519344E-1,-7.111981869E0,7.152921677E0,1.013341786E1
6.846755370E-1,9.775342941E-1,-7.100011349E0,6.774654388E0,9.862133468E0
6.870812660E-1,9.679577351E-1,-7.119163990E0,7.038004875E0,1.005748232E1
6.894872040E-1,9.655637741E-1,-7.107193470E0,6.961393833E0,9.995274710E0
6.918929330E-1,9.703519344E-1,-7.119163990E0,6.956605911E0,1.000092219E1
6.942988700E-1,9.727460146E-1,-7.116769791E0,6.980546951E0,1.001612115E1
6.967040790E-1,9.775342941E-1,-7.123952389E0,6.963788033E0,1.001002571E1
6.991091830E-1,9.631696939E-1,-7.097616673E0,6.954211235E0,9.983231551E0
7.015153290E-1,9.607754946E-1,-7.107193470E0,6.975758553E0,1.000482363E1
7.039207970E-1,9.511991739E-1,-7.116769791E0,6.978152275E0,1.001238240E1
7.063259540E-1,9.559873343E-1,-7.104799271E0,6.970970154E0,9.999325444E0
7.087316310E-1,9.488050938E-1,-7.095222950E0,6.947029591E0,9.975151124E0
7.111374640E-1,9.607754946E-1,-7.066493988E0,6.944635391E0,9.954214562E0
7.135435060E-1,9.440169334E-1,-7.064099789E0,6.913511753E0,9.929215405E0
7.159488180E-1,9.511991739E-1,-7.083252430E0,6.899147511E0,9.933553303E0
7.183536620E-1,9.631696939E-1,-7.085646152E0,6.872812271E0,9.918146287E0
7.207594430E-1,9.440169334E-1,-7.080858231E0,6.894359112E0,9.927835052E0
7.231649120E-1,9.511991739E-1,-7.071281910E0,6.868023872E0,9.903411515E0
7.255699640E-1,9.583814144E-1,-7.064099789E0,6.882388592E0,9.908949162E0
7.279757450E-1,9.511991739E-1,-7.064099789E0,6.879994392E0,9.906594194E0
7.303818390E-1,9.440169334E-1,-7.076070309E0,6.863235950E0,9.902825188E0
7.327880890E-1,9.703519344E-1,-7.083252430E0,6.868023872E0,9.913818627E0
7.351936100E-1,9.775342941E-1,-7.080858231E0,6.875206470E0,9.917791619E0
7.375987660E-1,9.583814144E-1,-7.083252430E0,6.877600193E0,9.919291524E0
7.400045470E-1,9.871106148E-1,-7.080858231E0,6.870418549E0,9.915421911E0
7.424098600E-1,9.775342941E-1,-7.104799271E0,6.911118031E0,9.959784054E0
7.448151200E-1,9.918987751E-1,-7.104799271E0,6.925482273E0,9.971175486E0
7.472206930E-1,9.966870546E-1,-7.092828751E0,6.918299675E0,9.958136129E0
7.496259540E-1,9.990811348E-1,-7.090435028E0,6.903935432E0,9.946695756E0
7.520315790E-1,9.847165346E-1,-7.111981869E0,6.879994392E0,9.944057300E0
7.544366830E-1,9.942928553E-1,-7.109587193E0,6.887176991E0,9.948268956E0
7.568415790E-1,9.799282551E-1,-7.123952389E0,6.889570713E0,9.958772095E0
7.592474640E-1,9.918987751E-1,-7.123952389E0,6.858448029E0,9.938454114E0
7.616531410E-1,9.823224545E-1,-7.147893429E0,6.853659153E0,9.951380892E0
7.640583490E-1,9.703519344E-1,-7.167046070E0,6.860841751E0,9.968915778E0
7.664638700E-1,9.392286539E-1,-7.155075550E0,6.848871231E0,9.949085070E0
7.688693390E-1,9.344403744E-1,-7.174228191E0,6.870418549E0,9.977243106E0
7.712748600E-1,9.464108944E-1,-7.157469273E0,6.851265430E0,9.953135082E0
7.736801200E-1,9.296523333E-1,-7.167046070E0,6.858448029E0,9.963388590E0
7.760851200E-1,9.224698544E-1,-7.181410313E0,6.812959671E0,9.941832034E0
7.784908490E-1,9.535932541E-1,-7.190986633E0,6.791412830E0,9.936947071E0
7.808964740E-1,9.942928553E-1,-7.171834469E0,6.798595428E0,9.932005222E0
7.833017870E-1,9.871106148E-1,-7.186198711E0,6.834506989E0,9.966259331E0
7.857075680E-1,1.020628095E0,-7.174228191E0,6.856053352E0,9.975805703E0
7.881135580E-1,1.023022175E0,-7.167046070E0,6.834506989E0,9.956084045E0
7.905200680E-1,1.042174935E0,-7.181410313E0,6.812959671E0,9.953652704E0
7.929264220E-1,1.056539536E0,-7.179016113E0,6.844082832E0,9.974769068E0
7.953323600E-1,1.058933496E0,-7.186198711E0,6.810565948E0,9.957238604E0
7.977390790E-1,1.049357176E0,-7.176622391E0,6.822536469E0,9.957512907E0
8.001452760E-1,1.075692296E0,-7.193380833E0,6.860841751E0,9.998649471E0
8.025506410E-1,1.058933496E0,-7.193380833E0,6.894359112E0,1.001989299E1
8.049563700E-1,1.063721776E0,-7.219716549E0,6.839294910E0,1.000158817E1
8.073621510E-1,1.070904016E0,-7.214927673E0,6.889570713E0,1.003335444E1
8.097681930E-1,1.073298216E0,-7.202957153E0,6.915905952E0,1.004312282E1
8.121740790E-1,1.092450976E0,-7.212533951E0,6.896753311E0,1.003888945E1
8.145798600E-1,1.102027416E0,-7.195775509E0,6.891964912E0,1.002461121E1
8.169863700E-1,1.090056896E0,-7.207746029E0,6.906329155E0,1.004177321E1
8.193923600E-1,1.090056896E0,-7.207746029E0,6.947029591E0,1.006980869E1
8.217978810E-1,1.085268617E0,-7.195775509E0,6.906329155E0,1.003266543E1
8.242035580E-1,1.087662816E0,-7.222110271E0,6.906329155E0,1.005182917E1
8.266092870E-1,1.104421377E0,-7.231686115E0,6.939846992E0,1.008357610E1
8.290152760E-1,1.087662816E0,-7.246051311E0,6.882388592E0,1.005263860E1
8.314206410E-1,1.073298216E0,-7.243656635E0,6.844082832E0,1.002317317E1
8.338257450E-1,1.092450976E0,-7.243656635E0,6.858448029E0,1.003505456E1
8.362314740E-1,1.058933496E0,-7.255627155E0,6.858448029E0,1.004010831E1
8.386369430E-1,1.061327696E0,-7.246051311E0,6.851265430E0,1.002853499E1
8.410422560E-1,1.049357176E0,-7.253233433E0,6.827324390E0,1.001613219E1
8.434479850E-1,1.039780736E0,-7.260416031E0,6.829718590E0,1.002196792E1
8.458536100E-1,1.034992695E0,-7.248445511E0,6.805777550E0,9.996488396E0
8.482595470E-1,1.037386656E0,-7.238868713E0,6.822536469E0,1.000121968E1
8.506652240E-1,1.046963215E0,-7.234080791E0,6.815353870E0,9.993853373E0
8.530704850E-1,1.066115856E0,-7.210139751E0,6.810565948E0,9.975295825E0
8.554765790E-1,1.051751256E0,-7.243656635E0,6.810565948E0,9.998027340E0
8.578825680E-1,1.080480576E0,-7.241262913E0,6.765078068E0,9.968430574E0
8.602885060E-1,1.082874537E0,-7.222110271E0,6.793807030E0,9.974332458E0
8.626948080E-1,1.082874537E0,-7.236474991E0,6.784230232E0,9.978224662E0
8.651007450E-1,1.078086376E0,-7.229292393E0,6.774654388E0,9.965986194E0
8.675070470E-1,1.058933496E0,-7.219716549E0,6.793807030E0,9.970028142E0
8.699129330E-1,1.073298216E0,-7.248445511E0,6.779442310E0,9.982623374E0
8.723187140E-1,1.063721776E0,-7.241262913E0,6.750713348E0,9.956883212E0
8.747253810E-1,1.063721776E0,-7.241262913E0,6.736348152E0,9.947149291E0
8.771316830E-1,1.032598495E0,-7.246051311E0,6.738742828E0,9.948978549E0
8.795376720E-1,1.001475334E0,-7.248445511E0,6.736348152E0,9.945918841E0
8.819436100E-1,9.966870546E-1,-7.246051311E0,6.726772308E0,9.937208380E0
8.843492350E-1,9.583814144E-1,-7.241262913E0,6.690860748E0,9.905655004E0
8.867553810E-1,9.488050938E-1,-7.226898193E0,6.678890228E0,9.886145016E0
8.891611620E-1,9.631696939E-1,-7.246051311E0,6.674101830E0,9.898312518E0
8.915664220E-1,9.296523333E-1,-7.231686115E0,6.659737587E0,9.874899607E0
8.939727760E-1,9.128935337E-1,-7.241262913E0,6.609461308E0,9.846534515E0
8.963789220E-1,9.081053734E-1,-7.236474991E0,6.604673386E0,9.839356493E0
8.987844430E-1,9.033172131E-1,-7.234080791E0,6.592702866E0,9.829121932E0
9.011902760E-1,9.128935337E-1,-7.236474991E0,6.587914467E0,9.828558486E0
9.035962660E-1,9.128935337E-1,-7.229292393E0,6.573549747E0,9.813643533E0
9.060029850E-1,9.152876139E-1,-7.217321873E0,6.559185505E0,9.795427552E0
9.084090790E-1,9.272581339E-1,-7.207746029E0,6.575943947E0,9.800737179E0
9.108148600E-1,9.176818132E-1,-7.234080791E0,6.638190269E0,9.861015914E0
9.132214220E-1,9.248640537E-1,-7.224504471E0,6.628614426E0,9.848216466E0
9.156272040E-1,9.248640537E-1,-7.226898193E0,6.647767067E0,9.862871691E0
9.180326200E-1,9.344403744E-1,-7.229292393E0,6.700437069E0,9.901096112E0
9.204383490E-1,9.559873343E-1,-7.234080791E0,6.712407589E0,9.914749231E0
9.228439740E-1,9.655637741E-1,-7.248445511E0,6.721983910E0,9.932640304E0
9.252503810E-1,9.535932541E-1,-7.248445511E0,6.729166508E0,9.936346628E0
9.276564740E-1,9.679577351E-1,-7.241262913E0,6.748318672E0,9.945483178E0
9.300619950E-1,9.679577351E-1,-7.231686115E0,6.755501270E0,9.943390954E0
9.324681410E-1,9.942928553E-1,-7.243656635E0,6.753107548E0,9.953071952E0
9.348736100E-1,9.895048141E-1,-7.238868713E0,6.765078068E0,9.957239642E0
9.372788700E-1,1.023022175E0,-7.243656635E0,6.748318672E0,9.952735339E0
9.396845990E-1,1.006263375E0,-7.231686115E0,6.721983910E0,9.924460576E0
9.420901720E-1,9.895048141E-1,-7.236474991E0,6.726772308E0,9.929509341E0
9.444963700E-1,9.990811348E-1,-7.255627155E0,6.721983910E0,9.941194909E0
9.469022560E-1,1.001475334E0,-7.222110271E0,6.719589710E0,9.915377728E0
9.493079330E-1,9.942928553E-1,-7.234080791E0,6.707619190E0,9.915276011E0
9.517144430E-1,9.583814144E-1,-7.260416031E0,6.731560230E0,9.947162360E0
9.541202240E-1,9.799282551E-1,-7.262809753E0,6.741137028E0,9.957489308E0
9.565256930E-1,9.799282551E-1,-7.250839233E0,6.707619190E0,9.926081008E0
9.589316830E-1,9.942928553E-1,-7.262809753E0,6.690860748E0,9.924950446E0
9.613377760E-1,1.011051655E0,-7.267597675E0,6.674101830E0,9.918862669E0
9.637443910E-1,9.895048141E-1,-7.281962872E0,6.659737587E0,9.917570659E0
9.661506410E-1,9.918987751E-1,-7.274780273E0,6.626219749E0,9.890049513E0
9.685563180E-1,1.003869295E0,-7.262809753E0,6.616643906E0,9.876038459E0
9.709626200E-1,1.011051655E0,-7.269992352E0,6.607067585E0,9.875644602E0
9.733684540E-1,9.871106148E-1,-7.262809753E0,6.628614426E0,9.882374314E0
9.757740790E-1,1.011051655E0,-7.265203953E0,6.614249229E0,9.876928004E0
9.781797040E-1,9.847165346E-1,-7.253233433E0,6.592702866E0,9.851030046E0
9.805850160E-1,9.703519344E-1,-7.253233433E0,6.580732346E0,9.841596228E0
9.829910580E-1,9.703519344E-1,-7.241262913E0,6.566367149E0,9.823168989E0
9.853967350E-1,9.727460146E-1,-7.248445511E0,6.578337669E0,9.836702884E0
9.878018910E-1,9.368345737E-1,-7.274780273E0,6.552002907E0,9.835081552E0
9.902079330E-1,9.416227341E-1,-7.260416031E0,6.523273945E0,9.805783868E0
9.926136620E-1,9.176818132E-1,-7.272386551E0,6.518485546E0,9.809199757E0
9.950187140E-1,9.009230137E-1,-7.289144993E0,6.504120827E0,9.810549665E0
9.974240790E-1,8.769820929E-1,-7.289144993E0,6.492150307E0,9.800446312E0
9.998297560E-1,8.937407732E-1,-7.262809753E0,6.482574463E0,9.776039574E0
1.002235954E0,8.721939325E-1,-7.284357071E0,6.458633423E0,9.774278791E0
1.004641474E0,8.913466930E-1,-7.241262913E0,6.484968185E0,9.761413825E0
1.007046526E0,8.769820929E-1,-7.262809753E0,6.501727104E0,9.787234463E0
1.009452516E0,8.793761730E-1,-7.272386551E0,6.506515026E0,9.797736799E0
1.011858141E0,8.697997332E-1,-7.258021832E0,6.530456066E0,9.802157360E0
1.014263558E0,9.176818132E-1,-7.274780273E0,6.537638187E0,9.823710145E0
1.016669287E0,9.248640537E-1,-7.286750793E0,6.540032387E0,9.834842869E0
1.019075068E0,9.152876139E-1,-7.253233433E0,6.530456066E0,9.802754872E0
1.021481474E0,9.200758934E-1,-7.258021832E0,6.532850266E0,9.808340999E0
1.023887308E0,9.176818132E-1,-7.279568195E0,6.547214985E0,9.833629904E0
1.026292568E0,9.296523333E-1,-7.269992352E0,6.590308189E0,9.856429591E0
1.028698818E0,9.200758934E-1,-7.260416031E0,6.633402348E0,9.877358316E0
1.031104912E0,9.057112932E-1,-7.250839233E0,6.635796547E0,9.870601722E0
1.033510641E0,9.057112932E-1,-7.279568195E0,6.633402348E0,9.890118946E0
1.035916370E0,9.057112932E-1,-7.277174473E0,6.666919708E0,9.910872800E0
1.038321891E0,9.057112932E-1,-7.284357071E0,6.664525986E0,9.914538693E0
1.040728089E0,9.176818132E-1,-7.281962872E0,6.650160789E0,9.904229485E0
1.043134235E0,8.889524937E-1,-7.277174473E0,6.662131310E0,9.906134384E0
1.045539964E0,8.961348534E-1,-7.274780273E0,6.664525986E0,9.906633753E0
1.047946214E0,8.865585327E-1,-7.274780273E0,6.666919708E0,9.907382725E0
1.050352047E0,9.057112932E-1,-7.246051311E0,6.652555466E0,9.878363568E0
1.052757308E0,9.009230137E-1,-7.265203953E0,6.652555466E0,9.891983875E0
1.055162724E0,9.057112932E-1,-7.260416031E0,6.645372868E0,9.884074789E0
1.057568401E0,9.057112932E-1,-7.262809753E0,6.640584946E0,9.882615387E0
1.059974495E0,9.272581339E-1,-7.219716549E0,6.662131310E0,9.867527972E0
1.062380172E0,9.224698544E-1,-7.222110271E0,6.666919708E0,9.872063908E0
1.064785537E0,9.344403744E-1,-7.212533951E0,6.650160789E0,9.854870031E0
1.067191735E0,9.464108944E-1,-7.222110271E0,6.671708107E0,9.877563435E0
1.069597568E0,9.559873343E-1,-7.200563431E0,6.678890228E0,9.867603569E0
1.072002829E0,9.535932541E-1,-7.195775509E0,6.671708107E0,9.859016905E0
1.074408401E0,9.799282551E-1,-7.210139751E0,6.686072350E0,9.881798322E0
1.076813974E0,9.823224545E-1,-7.219716549E0,6.698042870E0,9.897122952E0
1.079219808E0,9.727460146E-1,-7.200563431E0,6.690860748E0,9.877346105E0
1.081625329E0,9.966870546E-1,-7.229292393E0,6.683678150E0,9.895837873E0
1.084030381E0,9.847165346E-1,-7.224504471E0,6.671708107E0,9.883057248E0
1.086436526E0,9.823224545E-1,-7.231686115E0,6.642978668E0,9.868708480E0
1.088842620E0,9.631696939E-1,-7.250839233E0,6.652555466E0,9.887308009E0
1.091248349E0,9.679577351E-1,-7.229292393E0,6.626219749E0,9.854257904E0
1.093654183E0,9.368345737E-1,-7.238868713E0,6.619038105E0,9.853453440E0
1.096060276E0,9.440169334E-1,-7.238868713E0,6.623826027E0,9.857355602E0
1.098466631E0,9.416227341E-1,-7.236474991E0,6.602278709E0,9.840899747E0
1.100872360E0,9.248640537E-1,-7.255627155E0,6.623826027E0,9.867855399E0
1.103278037E0,9.176818132E-1,-7.255627155E0,6.616643906E0,9.862364924E0
1.105684443E0,9.392286539E-1,-7.248445511E0,6.604673386E0,9.851082343E0
1.108090068E0,9.224698544E-1,-7.236474991E0,6.595097065E0,9.834267956E0
1.110495329E0,9.392286539E-1,-7.236474991E0,6.609461308E0,9.845491330E0
1.112901058E0,9.368345737E-1,-7.219716549E0,6.652555466E0,9.861970406E0
1.115306735E0,9.799282551E-1,-7.205351353E0,6.645372868E0,9.850803422E0
1.117712933E0,9.679577351E-1,-7.190986633E0,6.645372868E0,9.839116398E0
1.120118922E0,9.966870546E-1,-7.207746029E0,6.652555466E0,9.859081201E0
1.122524391E0,9.607754946E-1,-7.200563431E0,6.654949188E0,9.851880631E0
1.124930485E0,1.008657575E0,-7.202957153E0,6.669313908E0,9.868116834E0
1.127336370E0,1.008657575E0,-7.193380833E0,6.638190269E0,9.840106095E0
1.129741631E0,1.001475334E0,-7.217321873E0,6.647767067E0,9.863340957E0
1.132147256E0,1.008657575E0,-7.200563431E0,6.666919708E0,9.864751503E0
1.134553193E0,1.011051655E0,-7.222110271E0,6.654949188E0,9.872661795E0
1.136959339E0,9.727460146E-1,-7.224504471E0,6.657343388E0,9.872179123E0
1.139364964E0,9.847165346E-1,-7.234080791E0,6.652555466E0,9.877149679E0
1.141770329E0,9.464108944E-1,-7.224504471E0,6.647767067E0,9.863162039E0
1.144176526E0,9.511991739E-1,-7.243656635E0,6.676496506E0,9.897017071E0
1.146582568E0,9.392286539E-1,-7.238868713E0,6.693254948E0,9.903687824E0
1.148987985E0,9.416227341E-1,-7.241262913E0,6.693254948E0,9.905665235E0
1.151393766E0,9.320464134E-1,-7.238868713E0,6.688467026E0,9.899773832E0
1.153799704E0,9.368345737E-1,-7.246051311E0,6.686072350E0,9.903861979E0
1.156205901E0,9.344403744E-1,-7.272386551E0,6.664525986E0,9.908415190E0
1.158611631E0,9.416227341E-1,-7.260416031E0,6.681284428E0,9.911602086E0
1.161016891E0,9.320464134E-1,-7.253233433E0,6.674101830E0,9.900592961E0
1.163423141E0,9.248640537E-1,-7.255627155E0,6.662131310E0,9.893608670E0
1.165829131E0,9.296523333E-1,-7.265203953E0,6.681284428E0,9.913980207E0
1.168234756E0,9.392286539E-1,-7.274780273E0,6.640584946E0,9.894541268E0
1.170640693E0,9.368345737E-1,-7.284357071E0,6.623826027E0,9.890125792E0
1.173046422E0,9.176818132E-1,-7.291538715E0,6.602278709E0,9.879208516E0
1.175452568E0,9.104994535E-1,-7.293933392E0,6.628614426E0,9.897929217E0
1.177858401E0,9.128935337E-1,-7.301115513E0,6.642978668E0,9.913063498E0
1.180264183E0,9.152876139E-1,-7.289144993E0,6.609461308E0,9.882022309E0
1.182670589E0,9.104994535E-1,-7.267597675E0,6.631008148E0,9.880144447E0
1.185076370E0,9.081053734E-1,-7.262809753E0,6.638190269E0,9.881226186E0
1.187482099E0,9.176818132E-1,-7.279568195E0,6.621431828E0,9.883198494E0
1.189888089E0,9.128935337E-1,-7.262809753E0,6.609461308E0,9.862391135E0
1.192294339E0,9.104994535E-1,-7.281962872E0,6.621431828E0,9.884298254E0
1.194701214E0,9.248640537E-1,-7.267597675E0,6.611855507E0,9.868636316E0
1.197107568E0,9.440169334E-1,-7.234080791E0,6.678890228E0,9.890938659E0
1.199513349E0,9.248640537E-1,-7.274780273E0,6.726772308E0,9.951244507E0
1.201919860E0,9.655637741E-1,-7.236474991E0,6.338928223E0,9.668551841E0
1.204325797E0,9.535932541E-1,-7.255627155E0,6.769865990E0,9.969180058E0
1.206731162E0,9.511991739E-1,-7.258021832E0,6.664525986E0,9.899473086E0
1.209136943E0,9.918987751E-1,-7.241262913E0,6.465815544E0,9.758407780E0
1.211542568E0,9.775342941E-1,-7.279568195E0,6.865629673E0,1.005408162E1
1.213948558E0,9.655637741E-1,-7.243656635E0,6.384416103E0,9.703795331E0
1.216354547E0,9.559873343E-1,-7.281962872E0,6.786624908E0,9.999958635E0
1.218760537E0,9.631696939E-1,-7.262809753E0,6.595097065E0,9.857555816E0
1.221167412E0,9.344403744E-1,-7.296327114E0,6.549608707E0,9.849210242E0
1.223573766E0,9.655637741E-1,-7.293933392E0,6.879994392E0,1.007313757E1
1.225979651E0,9.559873343E-1,-7.291538715E0,6.410751343E0,9.755930576E0
1.228385745E0,9.104994535E-1,-7.298721313E0,6.868023872E0,1.006330433E1
1.230792099E0,9.296523333E-1,-7.308297634E0,6.609461308E0,9.897496984E0
1.233199026E0,9.033172131E-1,-7.313086033E0,6.635796547E0,9.916199127E0
1.235605329E0,9.104994535E-1,-7.337027073E0,6.927876472E0,1.013195183E1
1.238011214E0,9.248640537E-1,-7.341815472E0,6.496938705E0,9.847225014E0
1.240417776E0,8.865585327E-1,-7.341815472E0,6.954211235E0,1.015131983E1
1.242823766E0,9.057112932E-1,-7.317874432E0,6.607067585E0,9.900754578E0
1.245229391E0,8.985290527E-1,-7.334632874E0,6.710013390E0,9.981406391E0
1.247635276E0,9.033172131E-1,-7.320268154E0,6.889570713E0,1.009299224E1
1.250041214E0,9.128935337E-1,-7.320268154E0,6.477786064E0,9.817403564E0
1.252447568E0,8.745880127E-1,-7.325056553E0,6.966181755E0,1.014638093E1
1.254853297E0,9.272581339E-1,-7.301115513E0,6.568761826E0,9.864822720E0
1.257258870E0,9.033172131E-1,-7.327450275E0,6.733954430E0,9.992679910E0
1.259665433E0,9.033172131E-1,-7.289144993E0,6.812959671E0,1.001818527E1
1.262071318E0,8.889524937E-1,-7.298721313E0,6.465815544E0,9.791237920E0
1.264476526E0,8.745880127E-1,-7.298721313E0,6.918299675E0,1.009450877E1
1.266882047E0,9.104994535E-1,-7.291538715E0,6.465815544E0,9.787865791E0
1.269287776E0,8.889524937E-1,-7.310691833E0,6.712407589E0,9.964580636E0
1.271693974E0,9.128935337E-1,-7.281962872E0,6.695648670E0,9.934388204E0
1.274099756E0,9.152876139E-1,-7.291538715E0,6.425116062E0,9.761475537E0
1.276505172E0,8.578293324E-1,-7.329844952E0,6.875206470E0,1.008617679E1
1.278911266E0,9.057112932E-1,-7.272386551E0,6.396386147E0,9.727367312E0
1.281316891E0,8.769820929E-1,-7.286750793E0,6.729166508E0,9.957284600E0
1.283722412E0,8.817702532E-1,-7.308297634E0,6.664525986E0,9.929986893E0
1.286128662E0,8.674057722E-1,-7.298721313E0,6.461027145E0,9.786143130E0
1.288534860E0,8.697997332E-1,-7.308297634E0,6.899147511E0,1.008791367E1
1.290941266E0,8.889524937E-1,-7.293933392E0,6.410751343E0,9.751381114E0
1.293347256E0,8.793761730E-1,-7.301115513E0,6.800989151E0,1.001663834E1
1.295752829E0,9.033172131E-1,-7.286750793E0,6.602278709E0,9.874350777E0
1.298159183E0,8.769820929E-1,-7.269992352E0,6.774654388E0,9.975862292E0
1.300565381E0,8.793761730E-1,-7.284357071E0,6.580732346E0,9.856023468E0
1.302971162E0,8.674057722E-1,-7.279568195E0,6.650160789E0,9.897936371E0
1.305377099E0,8.841644526E-1,-7.274780273E0,6.654949188E0,9.899117309E0
1.307782933E0,8.913466930E-1,-7.296327114E0,6.669313908E0,9.925252454E0
1.310189183E0,8.721939325E-1,-7.301115513E0,6.662131310E0,9.922247909E0
1.312595172E0,8.817702532E-1,-7.289144993E0,6.659737587E0,9.912681687E0
1.315000693E0,8.793761730E-1,-7.291538715E0,6.678890228E0,9.927105015E0
1.317406735E0,8.961348534E-1,-7.281962872E0,6.664525986E0,9.911909380E0
1.319812151E0,8.793761730E-1,-7.272386551E0,6.683678150E0,9.916272597E0
1.322217256E0,8.961348534E-1,-7.291538715E0,6.662131310E0,9.917337753E0
1.324622881E0,9.081053734E-1,-7.289144993E0,6.664525986E0,9.918275894E0
1.327028818E0,9.128935337E-1,-7.281962872E0,6.707619190E0,9.942460111E0
1.329435276E0,9.248640537E-1,-7.289144993E0,6.707619190E0,9.948827240E0
1.331841422E0,9.488050938E-1,-7.279568195E0,6.695648670E0,9.935997953E0
1.334247151E0,9.296523333E-1,-7.291538715E0,6.690860748E0,9.939738822E0
1.336653245E0,9.344403744E-1,-7.281962872E0,6.700437069E0,9.939618654E0
1.339059026E0,9.368345737E-1,-7.291538715E0,6.719589710E0,9.959773177E0
1.341464599E0,9.607754946E-1,-7.298721313E0,6.710013390E0,9.960858500E0
1.343870381E0,9.392286539E-1,-7.303509235E0,6.686072350E0,9.946203350E0
1.346276058E0,9.081053734E-1,-7.293933392E0,6.690860748E0,9.939503873E0
1.348682256E0,9.176818132E-1,-7.286750793E0,6.683678150E0,9.930278478E0
1.351088193E0,9.176818132E-1,-7.286750793E0,6.666919708E0,9.919006777E0
1.353493454E0,9.320464134E-1,-7.255627155E0,6.674101830E0,9.902346750E0
1.355899443E0,9.224698544E-1,-7.284357071E0,6.669313908E0,9.919302222E0
1.358305329E0,9.200758934E-1,-7.258021832E0,6.659737587E0,9.893307095E0
1.360710693E0,9.128935337E-1,-7.265203953E0,6.666919708E0,9.902746158E0
1.363116370E0,9.033172131E-1,-7.246051311E0,6.631008148E0,9.863645911E0
1.365521787E0,9.296523333E-1,-7.234080791E0,6.595097065E0,9.833182784E0
1.367927776E0,9.368345737E-1,-7.243656635E0,6.578337669E0,9.829687023E0
1.370333558E0,9.320464134E-1,-7.234080791E0,6.571156025E0,9.817368635E0
1.372738922E0,9.440169334E-1,-7.205351353E0,6.580732346E0,9.803789792E0
1.375145433E0,9.344403744E-1,-7.231686115E0,6.549608707E0,9.801420157E0
1.377551631E0,9.272581339E-1,-7.226898193E0,6.559185505E0,9.803610541E0
1.379956891E0,9.392286539E-1,-7.219716549E0,6.532850266E0,9.781850035E0
1.382362360E0,9.224698544E-1,-7.229292393E0,6.547214985E0,9.796920087E0
1.384768089E0,9.368345737E-1,-7.241262913E0,6.552002907E0,9.810315473E0
1.387174235E0,9.416227341E-1,-7.241262913E0,6.535244465E0,9.799589898E0
1.389579860E0,9.368345737E-1,-7.255627155E0,6.537638187E0,9.811345346E0
1.391985224E0,9.296523333E-1,-7.258021832E0,6.559185505E0,9.826802575E0
1.394391683E0,9.009230137E-1,-7.277174473E0,6.566367149E0,9.843074120E0
1.396797516E0,9.176818132E-1,-7.267597675E0,6.554397106E0,9.829559365E0
1.399202620E0,9.057112932E-1,-7.274780273E0,6.575943947E0,9.848135852E0
1.401608089E0,8.841644526E-1,-7.246051311E0,6.599884987E0,9.841010529E0
1.404013662E0,8.817702532E-1,-7.258021832E0,6.590308189E0,9.843198754E0
1.406419704E0,9.009230137E-1,-7.260416031E0,6.602278709E0,9.854713967E0
1.408825485E0,9.152876139E-1,-7.260416031E0,6.614249229E0,9.864060281E0
1.411230589E0,9.009230137E-1,-7.255627155E0,6.621431828E0,9.864033006E0
1.413636370E0,9.033172131E-1,-7.272386551E0,6.619038105E0,9.874981193E0
1.416041735E0,9.296523333E-1,-7.258021832E0,6.614249229E0,9.863641682E0
1.418446631E0,9.440169334E-1,-7.277174473E0,6.623826027E0,9.885520093E0
1.420852099E0,9.344403744E-1,-7.262809753E0,6.616643906E0,9.869222913E0
1.423257829E0,9.296523333E-1,-7.258021832E0,6.619038105E0,9.866853592E0
1.425664026E0,9.224698544E-1,-7.274780273E0,6.609461308E0,9.872099951E0
1.428069808E0,9.368345737E-1,-7.289144993E0,6.604673386E0,9.880840262E0
1.430475276E0,9.392286539E-1,-7.286750793E0,6.592702866E0,9.871302785E0
1.432881787E0,9.392286539E-1,-7.284357071E0,6.597490788E0,9.872734833E0
1.435287881E0,9.296523333E-1,-7.301115513E0,6.619038105E0,9.898596195E0
1.437693193E0,9.176818132E-1,-7.320268154E0,6.616643906E0,9.910017272E0
1.440099079E0,9.392286539E-1,-7.301115513E0,6.633402348E0,9.909110197E0
1.442505433E0,9.104994535E-1,-7.315479755E0,6.609461308E0,9.901021770E0
1.444912204E0,9.128935337E-1,-7.325056553E0,6.659737587E0,9.941928024E0
1.447318193E0,9.368345737E-1,-7.315479755E0,6.659737587E0,9.937102586E0
1.449723714E0,9.224698544E-1,-7.301115513E0,6.662131310E0,9.926793639E0
1.452130120E0,9.320464134E-1,-7.286750793E0,6.698042870E0,9.941288947E0
1.454536266E0,9.296523333E-1,-7.289144993E0,6.686072350E0,9.934759768E0
1.456941787E0,9.368345737E-1,-7.298721313E0,6.702831268E0,9.953739942E0
1.459347672E0,9.320464134E-1,-7.281962872E0,6.688467026E0,9.931328458E0
1.461753662E0,9.511991739E-1,-7.301115513E0,6.688467026E0,9.947193511E0
1.464159860E0,9.559873343E-1,-7.291538715E0,6.664525986E0,9.924532998E0
1.466565589E0,9.583814144E-1,-7.296327114E0,6.666919708E0,9.929889359E0
1.468971214E0,9.392286539E-1,-7.301115513E0,6.674101830E0,9.936401432E0
1.471377881E0,9.440169334E-1,-7.308297634E0,6.688467026E0,9.951782425E0
1.473784079E0,9.535932541E-1,-7.291538715E0,6.674101830E0,9.930735731E0
1.476189808E0,9.607754946E-1,-7.303509235E0,6.681284428E0,9.945043907E0
1.478595901E0,9.392286539E-1,-7.293933392E0,6.683678150E0,9.937563504E0
1.481001839E0,9.344403744E-1,-7.279568195E0,6.678890228E0,9.923349566E0
1.483408193E0,9.440169334E-1,-7.322662354E0,6.681284428E0,9.957515429E0
1.485814183E0,9.416227341E-1,-7.310691833E0,6.666919708E0,9.938847360E0
1.488219808E0,9.320464134E-1,-7.313086033E0,6.647767067E0,9.926869840E0
1.490626162E0,9.057112932E-1,-7.303509235E0,6.633402348E0,9.907753873E0
1.493032099E0,9.081053734E-1,-7.310691833E0,6.645372868E0,9.921282730E0
1.495437620E0,8.769820929E-1,-7.315479755E0,6.650160789E0,9.925219402E0
1.497843662E0,8.841644526E-1,-7.286750793E0,6.654949188E0,9.907917672E0
1.500249704E0,8.793761730E-1,-7.281962872E0,6.664525986E0,9.910408283E0
1.502655901E0,8.889524937E-1,-7.301115513E0,6.626219749E0,9.899662238E0
1.505061683E0,8.889524937E-1,-7.296327114E0,6.628614426E0,9.897734847E0
1.507466891E0,8.697997332E-1,-7.274780273E0,6.607067585E0,9.865714453E0
1.509872776E0,8.602234125E-1,-7.291538715E0,6.614249229E0,9.882045033E0
1.512278245E0,8.650115728E-1,-7.289144993E0,6.597490788E0,9.869486534E0
1.514683610E0,8.314942122E-1,-7.279568195E0,6.619038105E0,9.873963802E0
1.517089495E0,8.889524937E-1,-7.272386551E0,6.599884987E0,9.860848063E0
1.519495120E0,8.745880127E-1,-7.277174473E0,6.599884987E0,9.863095576E0
1.521901006E0,8.482528925E-1,-7.272386551E0,6.609461308E0,9.863676692E0
1.524306526E0,8.578293324E-1,-7.272386551E0,6.609461308E0,9.864504858E0
1.526711787E0,8.721939325E-1,-7.258021832E0,6.602278709E0,9.850364832E0
1.529117933E0,8.745880127E-1,-7.267597675E0,6.578337669E0,9.841616059E0
1.531523558E0,9.009230137E-1,-7.253233433E0,6.623826027E0,9.863880004E0
1.533928610E0,8.745880127E-1,-7.255627155E0,6.614249229E0,9.856841405E0
1.536334079E0,9.057112932E-1,-7.243656635E0,6.614249229E0,9.850846018E0
1.538739704E0,9.152876139E-1,-7.277174473E0,6.616643906E0,9.878005684E0
1.541145537E0,9.081053734E-1,-7.258021832E0,6.635796547E0,9.876099032E0
1.543550954E0,9.081053734E-1,-7.248445511E0,6.659737587E0,9.885176904E0
1.545956474E0,9.248640537E-1,-7.274780273E0,6.662131310E0,9.907663455E0
1.548362829E0,9.440169334E-1,-7.281962872E0,6.671708107E0,9.921181396E0
1.550768558E0,9.440169334E-1,-7.291538715E0,6.671708107E0,9.928212018E0
1.553173974E0,9.631696939E-1,-7.267597675E0,6.662131310E0,9.906041864E0
1.555580016E0,9.679577351E-1,-7.279568195E0,6.681284428E0,9.928172888E0
1.557986214E0,9.559873343E-1,-7.258021832E0,6.700437069E0,9.924144780E0
1.560392776E0,9.751402140E-1,-7.250839233E0,6.710013390E0,9.927227595E0
1.562798662E0,9.847165346E-1,-7.274780273E0,6.724378109E0,9.955368182E0
1.565203922E0,9.895048141E-1,-7.262809753E0,6.712407589E0,9.939011064E0
1.567610120E0,9.823224545E-1,-7.272386551E0,6.712407589E0,9.945299351E0
1.570015849E0,9.799282551E-1,-7.255627155E0,6.726772308E0,9.942527369E0
1.572421058E0,9.775342941E-1,-7.243656635E0,6.743530750E0,9.944915370E0
1.574826474E0,9.631696939E-1,-7.265203953E0,6.724378109E0,9.946262880E0
1.577231839E0,9.488050938E-1,-7.269992352E0,6.714801788E0,9.941910428E0
1.579637829E0,9.535932541E-1,-7.267597675E0,6.721983910E0,9.945470514E0
1.582043401E0,9.368345737E-1,-7.262809753E0,6.710013390E0,9.932287965E0
1.584448662E0,9.368345737E-1,-7.265203953E0,6.731560230E0,9.948605461E0
1.586854443E0,9.224698544E-1,-7.253233433E0,6.731560230E0,9.938523482E0
1.589259756E0,9.440169334E-1,-7.248445511E0,6.721983910E0,9.930568865E0
1.591664860E0,9.296523333E-1,-7.260416031E0,6.712407589E0,9.931480758E0
1.594070276E0,9.224698544E-1,-7.250839233E0,6.757895470E0,9.954635674E0
1.596475693E0,9.248640537E-1,-7.231686115E0,6.731560230E0,9.923031831E0
1.598881526E0,9.152876139E-1,-7.248445511E0,6.726772308E0,9.931121761E0
1.601286943E0,9.248640537E-1,-7.241262913E0,6.733954430E0,9.931636539E0
1.603691891E0,9.104994535E-1,-7.248445511E0,6.717195988E0,9.924197374E0
1.606097881E0,9.009230137E-1,-7.226898193E0,6.707619190E0,9.901104735E0
1.608503454E0,9.009230137E-1,-7.243656635E0,6.710013390E0,9.914963611E0
1.610908714E0,9.057112932E-1,-7.243656635E0,6.664525986E0,9.884674047E0
1.613314599E0,8.841644526E-1,-7.219716549E0,6.654949188E0,9.858722155E0
1.615720537E0,8.674057722E-1,-7.222110271E0,6.674101830E0,9.871925080E0
1.618126526E0,8.865585327E-1,-7.231686115E0,6.666919708E0,9.875782931E0
1.620531943E0,8.745880127E-1,-7.217321873E0,6.662131310E0,9.860965104E0
1.622936943E0,8.841644526E-1,-7.212533951E0,6.671708107E0,9.864790005E0
1.625342672E0,8.841644526E-1,-7.234080791E0,6.645372868E0,9.862791300E0
1.627748141E0,8.841644526E-1,-7.234080791E0,6.647767067E0,9.864404627E0
1.630153245E0,8.745880127E-1,-7.255627155E0,6.650160789E0,9.880975060E0
1.632558714E0,8.769820929E-1,-7.250839233E0,6.650160789E0,9.877672079E0
1.634964079E0,8.889524937E-1,-7.248445511E0,6.676496506E0,9.894736199E0
1.637370120E0,8.697997332E-1,-7.253233433E0,6.666919708E0,9.890084186E0
1.639775693E0,8.817702532E-1,-7.246051311E0,6.674101830E0,9.890723615E0
1.642180954E0,8.841644526E-1,-7.258021832E0,6.650160789E0,9.883585696E0
1.644587151E0,9.057112932E-1,-7.248445511E0,6.666919708E0,9.889797453E0
1.646992985E0,9.248640537E-1,-7.258021832E0,6.678890228E0,9.906655798E0
1.649398349E0,9.152876139E-1,-7.236474991E0,6.686072350E0,9.894841341E0
1.651803766E0,9.296523333E-1,-7.255627155E0,6.650160789E0,9.886001083E0
1.654209183E0,9.081053734E-1,-7.250839233E0,6.645372868E0,9.877262045E0
1.656615224E0,9.152876139E-1,-7.269992352E0,6.676496506E0,9.912928215E0
1.659020745E0,9.344403744E-1,-7.248445511E0,6.700437069E0,9.915089412E0
1.661425693E0,9.248640537E-1,-7.243656635E0,6.688467026E0,9.902601987E0
1.663831422E0,9.152876139E-1,-7.238868713E0,6.690860748E0,9.899827737E0
1.666236839E0,9.033172131E-1,-7.243656635E0,6.707619190E0,9.913561350E0
1.668641891E0,9.057112932E-1,-7.267597675E0,6.681284428E0,9.913518574E0
1.671047256E0,9.176818132E-1,-7.267597675E0,6.686072350E0,9.917846507E0
1.673452568E0,9.104994535E-1,-7.241262913E0,6.662131310E0,9.881745363E0
1.675858401E0,9.009230137E-1,-7.253233433E0,6.657343388E0,9.886418891E0
1.678264026E0,9.152876139E-1,-7.258021832E0,6.645372868E0,9.883198514E0
1.680669183E0,9.033172131E-1,-7.274780273E0,6.657343388E0,9.902455806E0
1.683075224E0,9.104994535E-1,-7.250839233E0,6.647767067E0,9.879093370E0
1.685481058E0,9.248640537E-1,-7.241262913E0,6.671708107E0,9.889537459E0
1.687886266E0,9.416227341E-1,-7.236474991E0,6.698042870E0,9.905402665E0
1.690291943E0,9.296523333E-1,-7.229292393E0,6.700437069E0,9.900645377E0
1.692697776E0,9.320464134E-1,-7.205351353E0,6.712407589E0,9.891522344E0
1.695104026E0,9.392286539E-1,-7.176622391E0,6.719589710E0,9.876180703E0
1.697509860E0,9.392286539E-1,-7.190986633E0,6.705225468E0,9.876866294E0
1.699915172E0,9.248640537E-1,-7.183804989E0,6.698042870E0,9.865404498E0
1.702321370E0,9.679577351E-1,-7.186198711E0,6.717195988E0,9.884286319E0
1.704727099E0,9.679577351E-1,-7.207746029E0,6.693254948E0,9.883734456E0
1.707132256E0,9.344403744E-1,-7.222110271E0,6.683678150E0,9.884513605E0
1.709537933E0,9.320464134E-1,-7.226898193E0,6.686072350E0,9.889405011E0
1.711943610E0,9.224698544E-1,-7.243656635E0,6.688467026E0,9.902378666E0
1.714349443E0,8.889524937E-1,-7.253233433E0,6.674101830E0,9.896629072E0
1.716754964E0,8.961348534E-1,-7.253233433E0,6.674101830E0,9.897276804E0
1.719160172E0,8.985290527E-1,-7.248445511E0,6.681284428E0,9.898832173E0
1.721566318E0,8.961348534E-1,-7.243656635E0,6.662131310E0,9.882186636E0
1.723972099E0,8.961348534E-1,-7.248445511E0,6.671708107E0,9.892153914E0
1.726377464E0,8.674057722E-1,-7.250839233E0,6.676496506E0,9.894577705E0
1.728782881E0,8.721939325E-1,-7.229292393E0,6.683678150E0,9.884075292E0
1.731188193E0,8.578293324E-1,-7.222110271E0,6.683678150E0,9.877565568E0
1.733594287E0,8.841644526E-1,-7.229292393E0,6.650160789E0,9.862507481E0
1.735999964E0,8.865585327E-1,-7.214927673E0,6.688467026E0,9.878094883E0
1.738405068E0,8.865585327E-1,-7.214927673E0,6.659737587E0,9.858664823E0
1.740810954E0,9.009230137E-1,-7.217321873E0,6.693254948E0,9.884384608E0
1.743216474E0,9.009230137E-1,-7.205351353E0,6.693254948E0,9.875647431E0
1.745621735E0,9.128935337E-1,-7.224504471E0,6.717195988E0,9.906945109E0
1.748027568E0,8.961348534E-1,-7.210139751E0,6.698042870E0,9.881950779E0
1.750433506E0,9.152876139E-1,-7.195775509E0,6.705225468E0,9.878106355E0
1.752839756E0,9.152876139E-1,-7.212533951E0,6.712407589E0,9.895191410E0
1.755245485E0,9.224698544E-1,-7.224504471E0,6.741137028E0,9.924078995E0
1.757650797E0,9.057112932E-1,-7.217321873E0,6.753107548E0,9.925447572E0
1.760056891E0,9.104994535E-1,-7.198169231E0,6.767471790E0,9.921760125E0
1.762462620E0,8.769820929E-1,-7.210139751E0,6.741137028E0,9.909497528E0
1.764867933E0,8.961348534E-1,-7.224504471E0,6.765078068E0,9.937947665E0
1.767273506E0,8.913466930E-1,-7.224504471E0,6.736348152E0,9.917981156E0
1.769679079E0,9.152876139E-1,-7.210139751E0,6.750713348E0,9.919475660E0
1.772084808E0,9.128935337E-1,-7.212533951E0,6.733954430E0,9.909599531E0
1.774489964E0,9.128935337E-1,-7.207746029E0,6.757895470E0,9.922405384E0
1.776895172E0,9.152876139E-1,-7.207746029E0,6.741137028E0,9.911220039E0
1.779301526E0,9.296523333E-1,-7.207746029E0,6.738742828E0,9.910928876E0
1.781707412E0,9.248640537E-1,-7.186198711E0,6.760289192E0,9.909507324E0
1.784113089E0,9.272581339E-1,-7.176622391E0,6.779442310E0,9.915873871E0
1.786519391E0,9.248640537E-1,-7.171834469E0,6.774654388E0,9.908911406E0
1.788925485E0,9.104994535E-1,-7.164651871E0,6.774654388E0,9.902382934E0
1.791331631E0,9.104994535E-1,-7.176622391E0,6.767471790E0,9.906139138E0
1.793737204E0,9.248640537E-1,-7.176622391E0,6.743530750E0,9.891131858E0
1.796142568E0,9.272581339E-1,-7.159863949E0,6.748318672E0,9.882472581E0
1.798548506E0,9.152876139E-1,-7.171834469E0,6.745924950E0,9.888400502E0
1.800954235E0,8.793761730E-1,-7.171834469E0,6.721983910E0,9.868818561E0
1.803359912E0,8.913466930E-1,-7.179016113E0,6.721983910E0,9.875112099E0
1.805765641E0,8.721939325E-1,-7.169439793E0,6.707619190E0,9.856659901E0
1.808171266E0,8.626174927E-1,-7.186198711E0,6.717195988E0,9.874526966E0
1.810577360E0,8.650115728E-1,-7.195775509E0,6.678890228E0,9.855709253E0
1.812983037E0,8.578293324E-1,-7.169439793E0,6.688467026E0,9.842374168E0
1.815388454E0,8.697997332E-1,-7.167046070E0,6.676496506E0,9.833550048E0
1.817794860E0,8.697997332E-1,-7.140710831E0,6.681284428E0,9.817630282E0
1.820200797E0,8.602234125E-1,-7.145498753E0,6.674101830E0,9.815384454E0
1.822606318E0,8.793761730E-1,-7.145498753E0,6.666919708E0,9.812200226E0
1.825012256E0,8.745880127E-1,-7.143105030E0,6.647767067E0,9.797023050E0
1.827418141E0,8.793761730E-1,-7.135922909E0,6.645372868E0,9.790591339E0
1.829824339E0,8.841644526E-1,-7.128740311E0,6.645372868E0,9.785788969E0
1.832230016E0,8.817702532E-1,-7.104799271E0,6.638190269E0,9.763260803E0
1.834635172E0,8.961348534E-1,-7.107193470E0,6.631008148E0,9.761430518E0
1.837041006E0,8.985290527E-1,-7.107193470E0,6.635796547E0,9.764903957E0
1.839446474E0,8.865585327E-1,-7.109587193E0,6.638190269E0,9.767179026E0
1.841851839E0,9.009230137E-1,-7.109587193E0,6.635796547E0,9.766866854E0
1.844257776E0,9.033172131E-1,-7.100011349E0,6.607067585E0,9.740610105E0
1.846663662E0,8.961348534E-1,-7.116769791E0,6.595097065E0,9.744063589E0
1.849069808E0,8.985290527E-1,-7.123952389E0,6.604673386E0,9.756011615E0
1.851475381E0,8.769820929E-1,-7.159863949E0,6.597490788E0,9.775460810E0
1.853880224E0,8.506469727E-1,-7.157469273E0,6.611855507E0,9.781083780E0
1.856285797E0,8.650115728E-1,-7.143105030E0,6.619038105E0,9.776699848E0
1.858691422E0,8.721939325E-1,-7.147893429E0,6.631008148E0,9.788941301E0
1.861096579E0,8.817702532E-1,-7.152681351E0,6.628614426E0,9.791674958E0
1.863501943E0,8.793761730E-1,-7.140710831E0,6.623826027E0,9.779474672E0
1.865907412E0,8.865585327E-1,-7.138316631E0,6.640584946E0,9.789735379E0
1.868313193E0,8.841644526E-1,-7.135922909E0,6.676496506E0,9.812173466E0
1.870718401E0,9.057112932E-1,-7.116769791E0,6.659737587E0,9.788811467E0
1.873123349E0,8.937407732E-1,-7.121557713E0,6.647767067E0,9.783054932E0
1.875529026E0,9.224698544E-1,-7.121557713E0,6.659737587E0,9.793857239E0
1.877934547E0,9.392286539E-1,-7.123952389E0,6.669313908E0,9.803703183E0
1.880340172E0,9.200758934E-1,-7.111981869E0,6.645372868E0,9.776901672E0
1.882746266E0,9.511991739E-1,-7.104799271E0,6.642978668E0,9.773030141E0
1.885152412E0,9.631696939E-1,-7.116769791E0,6.645372868E0,9.784533135E0
1.887558766E0,9.751402140E-1,-7.100011349E0,6.650160789E0,9.776793857E0
1.889964339E0,9.679577351E-1,-7.097616673E0,6.650160789E0,9.774341059E0
1.892369651E0,9.655637741E-1,-7.104799271E0,6.674101830E0,9.795617454E0
1.894775693E0,9.440169334E-1,-7.111981869E0,6.642978668E0,9.777556937E0
1.897181006E0,9.607754946E-1,-7.080858231E0,6.659737587E0,9.767996087E0
1.899586058E0,9.392286539E-1,-7.100011349E0,6.645372868E0,9.770020070E0
1.901991735E0,9.751402140E-1,-7.107193470E0,6.626219749E0,9.765750643E0
1.904397516E0,9.607754946E-1,-7.097616673E0,6.638190269E0,9.765491387E0
1.906803297E0,9.631696939E-1,-7.107193470E0,6.626219749E0,9.764562614E0
1.909208558E0,9.392286539E-1,-7.092828751E0,6.635796547E0,9.758287040E0
1.911613974E0,9.535932541E-1,-7.097616673E0,6.640584946E0,9.766415460E0
1.914020172E0,9.871106148E-1,-7.088040829E0,6.650160789E0,9.769306459E0
1.916425693E0,9.799282551E-1,-7.085646152E0,6.642978668E0,9.761957097E0
1.918830849E0,9.727460146E-1,-7.080858231E0,6.645372868E0,9.759393866E0
1.921236422E0,9.799282551E-1,-7.083252430E0,6.650160789E0,9.765109467E0
1.923642047E0,9.871106148E-1,-7.064099789E0,6.631008148E0,9.738899437E0
1.926048454E0,9.871106148E-1,-7.068887711E0,6.654949188E0,9.758683801E0
1.928454495E0,9.966870546E-1,-7.073675632E0,6.669313908E0,9.772922799E0
1.930859860E0,1.008657575E0,-7.056917191E0,6.666919708E0,9.760393882E0
1.933265954E0,1.015839815E0,-7.078464508E0,6.652555466E0,9.766938340E0
1.935671631E0,9.990811348E-1,-7.104799271E0,6.698042870E0,9.815299999E0
1.938077099E0,1.020628095E0,-7.097616673E0,6.707619190E0,9.818859371E0
1.940482985E0,1.032598495E0,-7.114376068E0,6.700437069E0,9.827332466E0
1.942888401E0,1.042174935E0,-7.128740311E0,6.698042870E0,9.837115700E0
1.945294287E0,1.003869295E0,-7.104799271E0,6.705225468E0,9.820691157E0
1.947699860E0,1.023022175E0,-7.138316631E0,6.777048588E0,9.895985361E0
1.950104912E0,1.034992695E0,-7.159863949E0,6.769865990E0,9.907872989E0
1.952510745E0,1.020628095E0,-7.155075550E0,6.805777550E0,9.927507033E0
1.954916579E0,1.027810335E0,-7.150287151E0,6.839294910E0,9.947811584E0
1.957322256E0,1.025416136E0,-7.179016113E0,6.822536469E0,9.956744170E0
1.959728141E0,1.044569016E0,-7.193380833E0,6.829718590E0,9.974011643E0
1.962134079E0,1.013445616E0,-7.195775509E0,6.834506989E0,9.975807885E0
1.964540745E0,1.030204415E0,-7.217321873E0,6.860841751E0,1.001110412E1
1.966946995E0,1.027810335E0,-7.210139751E0,6.872812271E0,1.001389324E1
1.969352568E0,1.011051655E0,-7.234080791E0,6.877600193E0,1.003272320E1
1.971758818E0,9.966870546E-1,-7.234080791E0,6.944635391E0,1.007736427E1
1.974164183E0,1.013445616E0,-7.234080791E0,7.004487991E0,1.012036802E1
1.976569183E0,9.942928553E-1,-7.229292393E0,6.990122795E0,1.010510284E1
1.978974808E0,9.966870546E-1,-7.224504471E0,6.994911194E0,1.010522798E1
1.981380433E0,9.751402140E-1,-7.210139751E0,6.963788033E0,1.007131359E1
1.983786370E0,9.775342941E-1,-7.229292393E0,6.954211235E0,1.007865545E1
1.986191891E0,1.003869295E0,-7.219716549E0,6.973364353E0,1.008760978E1
1.988597204E0,9.990811348E-1,-7.234080791E0,6.961393833E0,1.008915716E1
1.991003349E0,9.990811348E-1,-7.219716549E0,6.975758553E0,1.008878970E1
1.993408766E0,1.001475334E0,-7.202957153E0,6.949423313E0,1.005882841E1
1.995813714E0,9.942928553E-1,-7.198169231E0,6.918299675E0,1.003320133E1
1.998219235E0,1.020628095E0,-7.212533951E0,6.923088551E0,1.004945186E1
2.000625068E0,1.025416136E0,-7.198169231E0,6.903935432E0,1.002643720E1
2.003031110E0,9.847165346E-1,-7.198169231E0,6.882388592E0,1.000752615E1
2.005436370E0,1.003869295E0,-7.200563431E0,6.891964912E0,1.001773665E1
2.007841318E0,1.018233895E0,-7.202957153E0,6.891964912E0,1.002090676E1
2.010247099E0,9.751402140E-1,-7.205351353E0,6.865629673E0,1.000024287E1
2.012652620E0,9.727460146E-1,-7.222110271E0,6.877600193E0,1.002030419E1
2.015058089E0,9.775342941E-1,-7.226898193E0,6.872812271E0,1.002093705E1
2.017463870E0,9.440169334E-1,-7.238868713E0,6.865629673E0,1.002143997E1
2.019869547E0,9.416227341E-1,-7.212533951E0,6.872812271E0,1.000713985E1
2.022275485E0,9.488050938E-1,-7.236474991E0,6.894359112E0,1.003986997E1
2.024680797E0,9.607754946E-1,-7.219716549E0,6.875206470E0,1.001578058E1
2.027086162E0,9.464108944E-1,-7.226898193E0,6.877600193E0,1.002123423E1
2.029492360E0,9.559873343E-1,-7.224504471E0,6.863235950E0,1.001056364E1
2.031898141E0,9.655637741E-1,-7.212533951E0,6.868023872E0,1.000613368E1
2.034303401E0,9.703519344E-1,-7.224504471E0,6.848871231E0,1.000210402E1
2.036708818E0,9.871106148E-1,-7.214927673E0,6.832112312E0,9.985355644E0
2.039114495E0,9.942928553E-1,-7.210139751E0,6.812959671E0,9.969511171E0
2.041520537E0,1.001475334E0,-7.195775509E0,6.808171272E0,9.956572407E0
2.043926006E0,1.011051655E0,-7.195775509E0,6.791412830E0,9.946089626E0
2.046331058E0,1.023022175E0,-7.190986633E0,6.791412830E0,9.943849927E0
2.048737204E0,1.018233895E0,-7.181410313E0,6.767471790E0,9.920087136E0
2.051143193E0,1.037386656E0,-7.179016113E0,6.789019108E0,9.935050270E0
2.053548506E0,1.034992695E0,-7.171834469E0,6.805777550E0,9.941077788E0
2.055953870E0,1.032598495E0,-7.181410313E0,6.812959671E0,9.952654581E0
2.058359287E0,1.049357176E0,-7.167046070E0,6.834506989E0,9.958824510E0
2.060765276E0,1.032598495E0,-7.193380833E0,6.812959671E0,9.961295445E0
2.063171110E0,1.044569016E0,-7.171834469E0,6.817748070E0,9.950277525E0
2.065576787E0,1.034992695E0,-7.179016113E0,6.784230232E0,9.931528688E0
2.067983141E0,1.054145455E0,-7.159863949E0,6.796200752E0,9.927901041E0
2.070388766E0,1.032598495E0,-7.176622391E0,6.812959671E0,9.949200373E0
2.072793818E0,1.027810335E0,-7.150287151E0,6.769865990E0,9.900206359E0
2.075199339E0,1.025416136E0,-7.138316631E0,6.772259712E0,9.892954270E0
2.077605172E0,1.003869295E0,-7.159863949E0,6.755501270E0,9.894857389E0
2.080011526E0,1.020628095E0,-7.143105030E0,6.789019108E0,9.907391767E0
2.082417308E0,1.015839815E0,-7.128740311E0,6.791412830E0,9.898189591E0
2.084822829E0,1.015839815E0,-7.140710831E0,6.777048588E0,9.896972732E0
2.087229287E0,1.001475334E0,-7.143105030E0,6.750713348E0,9.879222289E0
2.089635068E0,9.990811348E-1,-7.111981869E0,6.750713348E0,9.856499375E0
2.092040381E0,9.942928553E-1,-7.126346111E0,6.753107548E0,9.868023547E0
2.094446214E0,9.511991739E-1,-7.121557713E0,6.745924950E0,9.855397889E0
2.096852047E0,9.703519344E-1,-7.135922909E0,6.769865990E0,9.884030765E0
2.099258089E0,9.583814144E-1,-7.128740311E0,6.753107548E0,9.866199618E0
2.101663922E0,9.344403744E-1,-7.152681351E0,6.769865990E0,9.892679861E0
2.104069495E0,9.057112932E-1,-7.138316631E0,6.762683868E0,9.874703559E0
2.106475849E0,9.200758934E-1,-7.159863949E0,6.745924950E0,9.880166742E0
2.108882047E0,8.985290527E-1,-7.167046070E0,6.755501270E0,9.889929284E0
2.111287516E0,8.889524937E-1,-7.174228191E0,6.741137028E0,9.884468377E0
2.113693401E0,8.865585327E-1,-7.179016113E0,6.738742828E0,9.886096970E0
2.116099443E0,9.057112932E-1,-7.181410313E0,6.733954430E0,9.886309184E0
2.118505849E0,8.817702532E-1,-7.179016113E0,6.729166508E0,9.879143334E0
2.120911995E0,8.602234125E-1,-7.181410313E0,6.714801788E0,9.869204702E0
2.123317724E0,8.482528925E-1,-7.198169231E0,6.710013390E0,9.877117643E0
2.125724131E0,8.362823725E-1,-7.186198711E0,6.707619190E0,9.865747581E0
2.128130172E0,8.291000128E-1,-7.190986633E0,6.721983910E0,9.878398821E0
2.130535849E0,8.267060518E-1,-7.183804989E0,6.702831268E0,9.859941380E0
2.132941631E0,8.003709316E-1,-7.198169231E0,6.707619190E0,9.871493763E0
2.135347672E0,8.123413324E-1,-7.205351353E0,6.688467026E0,9.864713767E0
2.137754026E0,8.003709316E-1,-7.176622391E0,6.702831268E0,9.852535185E0
2.140159860E0,8.267060518E-1,-7.195775509E0,6.698042870E0,9.865414657E0
2.142565485E0,8.027650118E-1,-7.179016113E0,6.690860748E0,9.846335439E0
2.144971735E0,8.123413324E-1,-7.200563431E0,6.700437069E0,9.869339850E0
2.147377256E0,8.195236921E-1,-7.190986633E0,6.700437069E0,9.862949090E0
2.149782256E0,8.051590919E-1,-7.179016113E0,6.717195988E0,9.864445015E0
2.152187516E0,8.171296120E-1,-7.169439793E0,6.745924950E0,9.878060091E0
2.154593089E0,8.243118525E-1,-7.169439793E0,6.712407589E0,9.855798933E0
2.156999287E0,8.243118525E-1,-7.188592911E0,6.705225468E0,9.864857153E0
2.159404964E0,8.674057722E-1,-7.174228191E0,6.726772308E0,9.872760941E0
2.161810276E0,8.650115728E-1,-7.171834469E0,6.724378109E0,9.869180089E0
2.164216370E0,8.602234125E-1,-7.190986633E0,6.743530750E0,9.895730395E0
2.166621943E0,8.602234125E-1,-7.171834469E0,6.755501270E0,9.889994509E0
2.169027256E0,8.697997332E-1,-7.202957153E0,6.767471790E0,9.921583430E0
2.171432933E0,8.865585327E-1,-7.195775509E0,6.777048588E0,9.924392111E0
2.173838454E0,8.985290527E-1,-7.207746029E0,6.800989151E0,9.950498013E0
2.176244443E0,9.057112932E-1,-7.219716549E0,6.779442310E0,9.945122324E0
2.178650120E0,8.937407732E-1,-7.222110271E0,6.796200752E0,9.957208143E0
2.181055381E0,8.985290527E-1,-7.219716549E0,6.791412830E0,9.952635316E0
2.183461370E0,9.152876139E-1,-7.238868713E0,6.803383350E0,9.976221563E0
2.185866891E0,9.128935337E-1,-7.241262913E0,6.815353870E0,9.985905645E0
2.188271631E0,8.889524937E-1,-7.272386551E0,6.822536469E0,1.001123601E1
2.190676631E0,8.674057722E-1,-7.241262913E0,6.805777550E0,9.975314000E0
2.193081943E0,8.793761730E-1,-7.258021832E0,6.800989151E0,9.985270992E0
2.195487881E0,8.913466930E-1,-7.246051311E0,6.846477509E0,1.000869686E1
2.197893297E0,8.745880127E-1,-7.246051311E0,6.556791306E0,9.811303482E0
2.200298193E0,8.697997332E-1,-7.260416031E0,7.033216953E0,1.014575444E1
2.202704026E0,9.057112932E-1,-7.265203953E0,6.856053352E0,1.003040223E1
2.205109756E0,8.841644526E-1,-7.260416031E0,6.607067585E0,9.856405521E0
2.207515016E0,8.769820929E-1,-7.269992352E0,7.061945915E0,1.017314929E1
2.209920745E0,8.937407732E-1,-7.236474991E0,6.544820786E0,9.797960093E0
2.212326579E0,8.602234125E-1,-7.272386551E0,6.935059071E0,1.008576397E1
2.214732672E0,8.769820929E-1,-7.265203953E0,6.774654388E0,9.972373246E0
2.217138141E0,8.769820929E-1,-7.250839233E0,6.616643906E0,9.855137937E0
2.219543089E0,8.482528925E-1,-7.267597675E0,6.970970154E0,1.010603453E1
2.221949183E0,8.745880127E-1,-7.243656635E0,6.487362385E0,9.763264636E0
2.224355537E0,8.602234125E-1,-7.253233433E0,6.863235950E0,1.002264373E1
2.226761526E0,8.817702532E-1,-7.226898193E0,6.623826027E0,9.842796732E0
2.229167776E0,8.578293324E-1,-7.243656635E0,6.549608707E0,9.803254910E0
2.231573974E0,8.578293324E-1,-7.243656635E0,6.877600193E0,1.002535870E1
2.233980381E0,8.745880127E-1,-7.212533951E0,6.391598225E0,9.676677015E0
2.236386474E0,8.626174927E-1,-7.231686115E0,6.820141792E0,9.977761627E0
2.238792151E0,9.224698544E-1,-7.212533951E0,6.511303425E0,9.760567039E0
2.241198141E0,9.033172131E-1,-7.224504471E0,6.532850266E0,9.782002833E0
2.243603558E0,8.889524937E-1,-7.193380833E0,6.789019108E0,9.931049531E0
2.246008506E0,9.081053734E-1,-7.186198711E0,6.374839783E0,9.649077134E0
2.248414026E0,9.057112932E-1,-7.212533951E0,6.815353870E0,9.964437130E0
2.250819912E0,9.416227341E-1,-7.190986633E0,6.494544983E0,9.735299516E0
2.253226214E0,9.176818132E-1,-7.193380833E0,6.599884987E0,9.805373504E0
2.255631735E0,9.248640537E-1,-7.205351353E0,6.810565948E0,9.957724146E0
2.258036631E0,9.081053734E-1,-7.205351353E0,6.415539265E0,9.690247032E0
2.260442881E0,9.176818132E-1,-7.226898193E0,6.903935432E0,1.003665890E1
2.262849079E0,9.248640537E-1,-7.198169231E0,6.508909225E0,9.748585185E0
2.265254339E0,9.104994535E-1,-7.222110271E0,6.717195988E0,9.904978948E0
2.267659860E0,9.033172131E-1,-7.238868713E0,6.812959671E0,9.981664276E0
2.270065745E0,9.368345737E-1,-7.246051311E0,6.480179787E0,9.766045704E0
2.272471995E0,9.009230137E-1,-7.258021832E0,6.956605911E0,1.009380548E1
2.274877829E0,9.081053734E-1,-7.248445511E0,6.518485546E0,9.790570540E0
2.277283141E0,8.817702532E-1,-7.260416031E0,6.769865990E0,9.966054648E0
2.279689339E0,8.985290527E-1,-7.262809753E0,6.789019108E0,9.982311377E0
2.282095433E0,8.985290527E-1,-7.253233433E0,6.530456066E0,9.801204320E0
2.284500901E0,8.602234125E-1,-7.260416031E0,6.970970154E0,1.010188349E1
2.286906683E0,8.913466930E-1,-7.219716549E0,6.532850266E0,9.777368693E0
2.289312516E0,8.769820929E-1,-7.222110271E0,6.860841751E0,9.999956195E0
2.291718714E0,8.937407732E-1,-7.234080791E0,6.779442310E0,9.954473141E0
2.294124287E0,8.865585327E-1,-7.226898193E0,6.592702866E0,9.822310044E0
2.296529651E0,9.176818132E-1,-7.210139751E0,7.016458511E0,1.010242274E1
2.298936006E0,9.344403744E-1,-7.205351353E0,6.616643906E0,9.827016002E0
2.301341787E0,9.535932541E-1,-7.200563431E0,6.774654388E0,9.932441588E0
2.303746995E0,9.464108944E-1,-7.202957153E0,6.760289192E0,9.923698670E0
2.306152464E0,9.488050938E-1,-7.181410313E0,6.779442310E0,9.921377083E0
2.308557933E0,9.631696939E-1,-7.188592911E0,6.769865990E0,9.921423759E0
2.310963818E0,9.631696939E-1,-7.171834469E0,6.779442310E0,9.915832973E0
2.313369547E0,9.631696939E-1,-7.171834469E0,6.769865990E0,9.909288119E0
2.315775016E0,9.559873343E-1,-7.143105030E0,6.748318672E0,9.873077846E0
2.318181058E0,9.272581339E-1,-7.150287151E0,6.743530750E0,9.872265240E0
2.320586787E0,9.392286539E-1,-7.171834469E0,6.729166508E0,9.879222743E0
2.322992099E0,9.392286539E-1,-7.164651871E0,6.738742828E0,9.880538538E0
2.325397516E0,9.128935337E-1,-7.183804989E0,6.702831268E0,9.867541524E0
2.327802985E0,9.104994535E-1,-7.190986633E0,6.698042870E0,9.869299686E0
2.330209183E0,8.841644526E-1,-7.183804989E0,6.693254948E0,9.858420903E0
2.332614964E0,8.626174927E-1,-7.205351353E0,6.683678150E0,9.865736195E0
2.335020224E0,8.530410528E-1,-7.205351353E0,6.700437069E0,9.876265694E0
2.337426266E0,8.338882923E-1,-7.207746029E0,6.674101830E0,9.858529694E0
2.339831735E0,8.291000128E-1,-7.214927673E0,6.678890228E0,9.866618612E0
2.342237047E0,8.338882923E-1,-7.219716549E0,6.707619190E0,9.889986448E0
2.344642672E0,8.243118525E-1,-7.224504471E0,6.686072350E0,9.878082726E0
2.347048245E0,7.860063314E-1,-7.212533951E0,6.721983910E0,9.890577315E0
2.349454339E0,8.291000128E-1,-7.222110271E0,6.731560230E0,9.907582285E0
2.351859808E0,8.243118525E-1,-7.226898193E0,6.733954430E0,9.912299924E0
2.354264808E0,8.458588123E-1,-7.217321873E0,6.726772308E0,9.902256199E0
2.356670485E0,8.530410528E-1,-7.222110271E0,6.738742828E0,9.914494980E0
2.359075849E0,8.578293324E-1,-7.200563431E0,6.721983910E0,9.887823449E0
2.361481006E0,9.081053734E-1,-7.200563431E0,6.729166508E0,9.897194096E0
2.363886787E0,8.961348534E-1,-7.205351353E0,6.726772308E0,9.897959966E0
2.366292256E0,9.176818132E-1,-7.212533951E0,6.729166508E0,9.906788975E0
2.368697985E0,9.057112932E-1,-7.195775509E0,6.736348152E0,9.898377875E0
2.371103297E0,9.296523333E-1,-7.210139751E0,6.781836510E0,9.942015648E0
2.373508245E0,9.176818132E-1,-7.193380833E0,6.769865990E0,9.920582303E0
2.375914183E0,9.344403744E-1,-7.195775509E0,6.774654388E0,9.927149947E0
2.378320120E0,9.368345737E-1,-7.210139751E0,6.784230232E0,9.944322707E0
2.380725954E0,9.344403744E-1,-7.195775509E0,6.779442310E0,9.930418019E0
2.383131995E0,9.511991739E-1,-7.202957153E0,6.774654388E0,9.933947539E0
2.385537933E0,9.464108944E-1,-7.210139751E0,6.769865990E0,9.935436293E0
2.387944183E0,9.128935337E-1,-7.253233433E0,6.743530750E0,9.945751697E0
2.390349808E0,9.320464134E-1,-7.236474991E0,6.736348152E0,9.930441442E0
2.392754912E0,9.033172131E-1,-7.241262913E0,6.714801788E0,9.916674524E0
2.395160849E0,8.889524937E-1,-7.222110271E0,6.714801788E0,9.901397698E0
2.397566579E0,8.793761730E-1,-7.241262913E0,6.690860748E0,9.898323524E0
2.399972047E0,8.626174927E-1,-7.231686115E0,6.710013390E0,9.902811353E0
2.402377829E0,8.841644526E-1,-7.226898193E0,6.705225468E0,9.897972158E0
2.404783297E0,8.458588123E-1,-7.214927673E0,6.700437069E0,9.882637066E0
2.407189495E0,8.458588123E-1,-7.198169231E0,6.717195988E0,9.881793327E0
2.409595381E0,8.554352522E-1,-7.207746029E0,6.698042870E0,9.876596102E0
2.412000745E0,8.578293324E-1,-7.217321873E0,6.674101830E0,9.867585389E0
2.414406943E0,8.674057722E-1,-7.202957153E0,6.669313908E0,9.854680742E0
2.416812933E0,8.626174927E-1,-7.198169231E0,6.688467026E0,9.863738661E0
2.419218454E0,8.793761730E-1,-7.188592911E0,6.702831268E0,9.867984470E0
2.421624183E0,8.841644526E-1,-7.200563431E0,6.707619190E0,9.880385402E0
2.424030016E0,8.841644526E-1,-7.200563431E0,6.710013390E0,9.882010938E0
2.426436266E0,9.128935337E-1,-7.198169231E0,6.731560230E0,9.897520802E0
2.428841995E0,9.248640537E-1,-7.198169231E0,6.729166508E0,9.897004380E0
2.431247412E0,9.296523333E-1,-7.188592911E0,6.750713348E0,9.905162907E0
2.433653506E0,9.368345737E-1,-7.193380833E0,6.743530750E0,9.904422941E0
2.436059026E0,9.511991739E-1,-7.207746029E0,6.698042870E0,9.885350827E0
2.438463922E0,9.152876139E-1,-7.193380833E0,6.681284428E0,9.860123773E0
2.440869391E0,9.033172131E-1,-7.219716549E0,6.693254948E0,9.886351745E0
2.443275016E0,9.272581339E-1,-7.205351353E0,6.698042870E0,9.881329569E0
2.445680745E0,8.865585327E-1,-7.214927673E0,6.702831268E0,9.887826575E0
2.448086110E0,9.057112932E-1,-7.212533951E0,6.700437069E0,9.886193193E0
2.450491474E0,8.865585327E-1,-7.234080791E0,6.719589710E0,9.913162805E0
2.452897724E0,9.104994535E-1,-7.241262913E0,6.719589710E0,9.920573759E0
2.455303714E0,8.841644526E-1,-7.241262913E0,6.724378109E0,9.921436202E0
2.457709287E0,8.650115728E-1,-7.229292393E0,6.707619190E0,9.899649929E0
2.460114808E0,8.913466930E-1,-7.255627155E0,6.731560230E0,9.937430628E0
2.462520329E0,8.865585327E-1,-7.246051311E0,6.712407589E0,9.917038937E0
2.464926370E0,9.057112932E-1,-7.226898193E0,6.698042870E0,9.895056782E0
2.467332047E0,9.152876139E-1,-7.229292393E0,6.724378109E0,9.915527261E0
2.469737360E0,9.176818132E-1,-7.255627155E0,6.710013390E0,9.925247857E0
2.472143558E0,9.440169334E-1,-7.253233433E0,6.678890228E0,9.904955219E0
2.474549235E0,9.440169334E-1,-7.253233433E0,6.690860748E0,9.913030856E0
2.476954339E0,9.679577351E-1,-7.224504471E0,6.717195988E0,9.912170749E0
2.479359912E0,9.727460146E-1,-7.236474991E0,6.719589710E0,9.922988006E0
2.481765693E0,9.918987751E-1,-7.231686115E0,6.698042870E0,9.906812077E0
2.484171735E0,9.918987751E-1,-7.214927673E0,6.702831268E0,9.897827616E0
2.486577204E0,9.918987751E-1,-7.224504471E0,6.710013390E0,9.909672432E0
2.488982516E0,9.823224545E-1,-7.226898193E0,6.710013390E0,9.910463894E0
2.491388506E0,9.607754946E-1,-7.241262913E0,6.698042870E0,9.910739448E0
2.493794235E0,9.535932541E-1,-7.231686115E0,6.674101830E0,9.886873085E0
2.496199495E0,9.583814144E-1,-7.241262913E0,6.686072350E0,9.902421268E0
2.498604704E0,9.248640537E-1,-7.248445511E0,6.695648670E0,9.910955905E0
2.501009860E0,9.200758934E-1,-7.231686115E0,6.710013390E0,9.907981803E0
2.503415537E0,9.104994535E-1,-7.255627155E0,6.702831268E0,9.919731936E0
2.505821058E0,9.057112932E-1,-7.243656635E0,6.717195988E0,9.920261909E0
2.508226214E0,8.697997332E-1,-7.243656635E0,6.724378109E0,9.921913826E0
2.510631943E0,8.865585327E-1,-7.253233433E0,6.726772308E0,9.932011224E0
2.513037360E0,8.650115728E-1,-7.241262913E0,6.750713348E0,9.937618644E0
2.515442568E0,8.745880127E-1,-7.255627155E0,6.733954430E0,9.937563679E0
2.517848401E0,8.674057722E-1,-7.224504471E0,6.729166508E0,9.910980754E0
2.520254235E0,8.626174927E-1,-7.241262913E0,6.748318672E0,9.935783935E0
2.522660172E0,8.650115728E-1,-7.226898193E0,6.753107548E0,9.928784622E0
2.525065537E0,8.841644526E-1,-7.229292393E0,6.748318672E0,9.928958665E0
2.527470485E0,8.482528925E-1,-7.241262913E0,6.750713348E0,9.936173924E0
2.529876422E0,8.721939325E-1,-7.234080791E0,6.743530750E0,9.928134474E0
2.532282047E0,8.674057722E-1,-7.255627155E0,6.741137028E0,9.941802986E0
2.534687516E0,8.721939325E-1,-7.246051311E0,6.736348152E0,9.931987127E0
2.537093506E0,8.650115728E-1,-7.255627155E0,6.779442310E0,9.967607962E0
2.539499339E0,8.506469727E-1,-7.238868713E0,6.779442310E0,9.954177945E0
2.541905485E0,8.458588123E-1,-7.236474991E0,6.789019108E0,9.958555511E0
2.544311266E0,8.314942122E-1,-7.224504471E0,6.810565948E0,9.963365697E0
2.546716735E0,8.338882923E-1,-7.212533951E0,6.786624908E0,9.938525712E0
2.549123297E0,8.362823725E-1,-7.214927673E0,6.805777550E0,9.953550000E0
2.551529287E0,8.362823725E-1,-7.229292393E0,6.822536469E0,9.975421824E0
2.553934495E0,8.267060518E-1,-7.217321873E0,6.827324390E0,9.969229471E0
2.556340381E0,8.458588123E-1,-7.219716549E0,6.798595428E0,9.952923388E0
2.558746214E0,8.338882923E-1,-7.212533951E0,6.796200752E0,9.945067136E0
2.561152412E0,8.434647322E-1,-7.214927673E0,6.772259712E0,9.931269591E0
2.563558401E0,8.410706520E-1,-7.231686115E0,6.750713348E0,9.928585731E0
2.565963818E0,8.314942122E-1,-7.217321873E0,6.769865990E0,9.930367725E0
2.568370172E0,8.314942122E-1,-7.243656635E0,6.750713348E0,9.936502140E0
2.570776318E0,8.338882923E-1,-7.217321873E0,6.741137028E0,9.911005657E0
2.573181787E0,8.434647322E-1,-7.226898193E0,6.750713348E0,9.925302059E0
2.575587412E0,8.458588123E-1,-7.222110271E0,6.729166508E0,9.907372800E0
2.577993089E0,8.410706520E-1,-7.231686115E0,6.748318672E0,9.926957682E0
2.580399131E0,8.530410528E-1,-7.214927673E0,6.745924950E0,9.914149676E0
2.582804495E0,8.721939325E-1,-7.238868713E0,6.753107548E0,9.938128801E0
2.585209547E0,8.650115728E-1,-7.222110271E0,6.757895470E0,9.928558454E0
2.587615485E0,8.578293324E-1,-7.207746029E0,6.736348152E0,9.902820831E0
2.590021006E0,8.793761730E-1,-7.222110271E0,6.745924950E0,9.921677411E0
2.592426266E0,8.602234125E-1,-7.217321873E0,6.710013390E0,9.892118025E0
2.594831995E0,8.554352522E-1,-7.217321873E0,6.690860748E0,9.878720668E0
2.597237724E0,8.602234125E-1,-7.210139751E0,6.686072350E0,9.870646535E0
2.599643766E0,8.626174927E-1,-7.217321873E0,6.669313908E0,9.864765175E0
2.602049391E0,8.506469727E-1,-7.181410313E0,6.666919708E0,9.835856483E0
2.604454443E0,8.506469727E-1,-7.200563431E0,6.631008148E0,9.825578001E0
2.606860381E0,8.482528925E-1,-7.188592911E0,6.631008148E0,9.816601758E0
2.609266058E0,8.386765718E-1,-7.190986633E0,6.638190269E0,9.822384497E0
2.611671110E0,8.314942122E-1,-7.179016113E0,6.631008148E0,9.808155996E0
2.614076735E0,8.434647322E-1,-7.205351353E0,6.640584946E0,9.834932094E0
2.616482256E0,8.243118525E-1,-7.188592911E0,6.654949188E0,9.830753113E0
2.618888089E0,8.243118525E-1,-7.162257671E0,6.657343388E0,9.813136398E0
2.621293766E0,8.314942122E-1,-7.179016113E0,6.647767067E0,9.819493977E0
2.623699183E0,8.291000128E-1,-7.181410313E0,6.647767067E0,9.821042098E0
2.626105172E0,8.314942122E-1,-7.190986633E0,6.645372868E0,9.826629734E0
2.628510537E0,8.267060518E-1,-7.186198711E0,6.659737587E0,9.832446264E0
2.630915485E0,8.195236921E-1,-7.198169231E0,6.681284428E0,9.855192589E0
2.633320954E0,8.171296120E-1,-7.198169231E0,6.650160789E0,9.833919850E0
2.635726631E0,8.291000128E-1,-7.229292393E0,6.683678150E0,9.880365831E0
2.638132620E0,8.291000128E-1,-7.219716549E0,6.724378109E0,9.900958278E0
2.640538349E0,8.123413324E-1,-7.202957153E0,6.724378109E0,9.887353091E0
2.642944131E0,8.075531721E-1,-7.219716549E0,6.721983910E0,9.897551053E0
2.645350745E0,8.291000128E-1,-7.210139751E0,6.700437069E0,9.877721346E0
2.647756891E0,8.338882923E-1,-7.222110271E0,6.741137028E0,9.914493173E0
2.650162464E0,8.434647322E-1,-7.229292393E0,6.707619190E0,9.897790483E0
2.652568558E0,8.291000128E-1,-7.236474991E0,6.717195988E0,9.908314643E0
2.654974808E0,8.578293324E-1,-7.241262913E0,6.717195988E0,9.914256486E0
2.657381422E0,8.530410528E-1,-7.229292393E0,6.707619190E0,9.898611152E0
2.659787568E0,8.674057722E-1,-7.236474991E0,6.712407589E0,9.908348940E0
2.662193141E0,8.674057722E-1,-7.241262913E0,6.710013390E0,9.910225075E0
2.664599704E0,8.602234125E-1,-7.250839233E0,6.731560230E0,9.931191119E0
2.667006058E0,8.626174927E-1,-7.243656635E0,6.705225468E0,9.908315647E0
2.669411839E0,8.674057722E-1,-7.238868713E0,6.712407589E0,9.910097308E0
2.671817829E0,8.961348534E-1,-7.219716549E0,6.724378109E0,9.906796943E0
2.674223401E0,9.176818132E-1,-7.243656635E0,6.748318672E0,9.942459769E0
2.676629183E0,9.009230137E-1,-7.236474991E0,6.750713348E0,9.937321736E0
2.679034860E0,8.937407732E-1,-7.236474991E0,6.760289192E0,9.943181223E0
2.681440381E0,8.985290527E-1,-7.234080791E0,6.762683868E0,9.943499005E0
2.683846787E0,9.224698544E-1,-7.253233433E0,6.765078068E0,9.961256303E0
2.686252464E0,9.104994535E-1,-7.265203953E0,6.743530750E0,9.954265654E0
2.688657568E0,9.320464134E-1,-7.238868713E0,6.729166508E0,9.927316488E0
2.691062933E0,9.296523333E-1,-7.241262913E0,6.738742828E0,9.935330741E0
2.693468037E0,9.224698544E-1,-7.248445511E0,6.745924950E0,9.944768292E0
2.695873714E0,9.368345737E-1,-7.241262913E0,6.765078068E0,9.953885114E0
2.698279391E0,9.464108944E-1,-7.253233433E0,6.755501270E0,9.957001869E0
2.700685068E0,9.272581339E-1,-7.231686115E0,6.748318672E0,9.934631177E0
2.703091579E0,9.057112932E-1,-7.253233433E0,6.753107548E0,9.951591316E0
2.705497672E0,9.057112932E-1,-7.260416031E0,6.755501270E0,9.958451250E0
2.707903089E0,9.009230137E-1,-7.250839233E0,6.731560230E0,9.934799193E0
2.710308349E0,9.104994535E-1,-7.255627155E0,6.736348152E0,9.942410226E0
2.712713610E0,9.176818132E-1,-7.269992352E0,6.736348152E0,9.953557913E0
2.715119547E0,9.081053734E-1,-7.255627155E0,6.760289192E0,9.958428126E0
2.717525172E0,9.104994535E-1,-7.272386551E0,6.760289192E0,9.970863822E0
2.719930329E0,9.272581339E-1,-7.277174473E0,6.736348152E0,9.959691882E0
2.722336214E0,9.368345737E-1,-7.279568195E0,6.738742828E0,9.963956395E0
2.724741631E0,9.248640537E-1,-7.279568195E0,6.726772308E0,9.954745216E0
2.727146735E0,9.033172131E-1,-7.286750793E0,6.757895470E0,9.979071615E0
2.729552151E0,9.033172131E-1,-7.272386551E0,6.731560230E0,9.950753301E0
2.731957516E0,9.128935337E-1,-7.274780273E0,6.710013390E0,9.938816948E0
2.734363401E0,8.841644526E-1,-7.298721313E0,6.710013390E0,9.953761062E0
2.736769079E0,8.889524937E-1,-7.281962872E0,6.710013390E0,9.941906230E0
2.739174495E0,9.009230137E-1,-7.279568195E0,6.733954430E0,9.957405166E0
2.741580537E0,8.745880127E-1,-7.279568195E0,6.702831268E0,9.934030618E0
2.743986162E0,8.674057722E-1,-7.269992352E0,6.700437069E0,9.924768938E0
2.746391579E0,8.650115728E-1,-7.274780273E0,6.712407589E0,9.936150597E0
2.748797204E0,8.697997332E-1,-7.255627155E0,6.681284428E0,9.901527084E0
2.751202933E0,8.889524937E-1,-7.255627155E0,6.695648670E0,9.912924547E0
2.753609026E0,8.745880127E-1,-7.243656635E0,6.688467026E0,9.898032976E0
2.756014704E0,8.937407732E-1,-7.236474991E0,6.698042870E0,9.900965667E0
2.758419547E0,8.889524937E-1,-7.217321873E0,6.717195988E0,9.899529963E0
2.760825068E0,8.937407732E-1,-7.229292393E0,6.676496506E0,9.881146020E0
2.763230589E0,8.793761730E-1,-7.222110271E0,6.693254948E0,9.885941585E0
2.765635641E0,8.793761730E-1,-7.207746029E0,6.683678150E0,9.868964428E0
2.768041162E0,8.865585327E-1,-7.186198711E0,6.710013390E0,9.871763654E0
2.770446891E0,8.865585327E-1,-7.207746029E0,6.729166508E0,9.900468208E0
2.772852933E0,9.009230137E-1,-7.198169231E0,6.719589710E0,9.888285414E0
2.775258558E0,9.272581339E-1,-7.212533951E0,6.731560230E0,9.909306574E0
2.777663922E0,9.344403744E-1,-7.190986633E0,6.695648670E0,9.869912800E0
2.780070433E0,9.464108944E-1,-7.176622391E0,6.705225468E0,9.867099427E0
2.782476474E0,9.392286539E-1,-7.176622391E0,6.710013390E0,9.869667628E0
2.784881839E0,9.535932541E-1,-7.171834469E0,6.712407589E0,9.869192742E0
2.787287464E0,9.511991739E-1,-7.181410313E0,6.721983910E0,9.882433993E0
2.789693401E0,9.488050938E-1,-7.157469273E0,6.721983910E0,9.864819571E0
2.792099808E0,9.703519344E-1,-7.188592911E0,6.710013390E0,9.881383031E0
2.794505693E0,9.559873343E-1,-7.179016113E0,6.738742828E0,9.892564837E0
2.796911266E0,9.392286539E-1,-7.162257671E0,6.721983910E0,9.867378228E0
2.799317724E0,9.464108944E-1,-7.174228191E0,6.726772308E0,9.880015658E0
2.801723662E0,9.272581339E-1,-7.183804989E0,6.717195988E0,9.878642807E0
2.804129079E0,9.368345737E-1,-7.174228191E0,6.693254948E0,9.856311225E0
2.806534860E0,9.583814144E-1,-7.186198711E0,6.702831268E0,9.873595792E0
2.808940693E0,9.703519344E-1,-7.174228191E0,6.698042870E0,9.862804434E0
2.811346579E0,9.823224545E-1,-7.159863949E0,6.695648670E0,9.851919624E0
2.813752047E0,9.823224545E-1,-7.181410313E0,6.695648670E0,9.867589503E0
2.816157308E0,9.679577351E-1,-7.179016113E0,6.717195988E0,9.879065567E0
2.818563245E0,9.823224545E-1,-7.167046070E0,6.688467026E0,9.852263594E0
2.820969026E0,9.727460146E-1,-7.181410313E0,6.669313908E0,9.848788600E0
2.823374391E0,9.775342941E-1,-7.157469273E0,6.698042870E0,9.851330771E0
2.825780276E0,9.535932541E-1,-7.164651871E0,6.686072350E0,9.846072313E0
2.828186058E0,9.583814144E-1,-7.157469273E0,6.695648670E0,9.847820695E0
2.830591995E0,9.559873343E-1,-7.169439793E0,6.657343388E0,9.830310255E0
2.832997724E0,9.559873343E-1,-7.179016113E0,6.652555466E0,9.834057065E0
2.835403193E0,9.559873343E-1,-7.164651871E0,6.647767067E0,9.820333762E0
2.837809443E0,9.535932541E-1,-7.164651871E0,6.623826027E0,9.803909820E0
2.840215276E0,9.679577351E-1,-7.155075550E0,6.607067585E0,9.787001092E0
2.842620485E0,9.655637741E-1,-7.167046070E0,6.619038105E0,9.803597718E0
2.845025954E0,9.535932541E-1,-7.155075550E0,6.602278709E0,9.782358120E0
2.847431683E0,9.583814144E-1,-7.152681351E0,6.609461308E0,9.785924801E0
2.849837724E0,9.655637741E-1,-7.140710831E0,6.626219749E0,9.789221253E0
2.852243193E0,9.655637741E-1,-7.157469273E0,6.607067585E0,9.788514794E0
2.854648610E0,9.655637741E-1,-7.152681351E0,6.609461308E0,9.786630814E0
2.857054860E0,9.559873343E-1,-7.167046070E0,6.628614426E0,9.809127910E0
2.859460641E0,9.631696939E-1,-7.150287151E0,6.628614426E0,9.797593144E0
2.861865849E0,9.464108944E-1,-7.155075550E0,6.633402348E0,9.802694855E0
2.864271214E0,9.368345737E-1,-7.159863949E0,6.616643906E0,9.793941360E0
2.866676943E0,9.440169334E-1,-7.179016113E0,6.635796547E0,9.821569943E0
2.869083193E0,9.152876139E-1,-7.195775509E0,6.616643906E0,9.818192968E0
2.871488870E0,9.104994535E-1,-7.188592911E0,6.640584946E0,9.828644144E0
2.873894079E0,9.104994535E-1,-7.205351353E0,6.657343388E0,9.852224031E0
2.876300016E0,8.913466930E-1,-7.207746029E0,6.688467026E0,9.873281769E0
2.878705641E0,8.865585327E-1,-7.202957153E0,6.676496506E0,9.861246543E0
2.881111162E0,8.841644526E-1,-7.210139751E0,6.683678150E0,9.871140543E0
2.883516995E0,8.913466930E-1,-7.193380833E0,6.686072350E0,9.861175903E0
2.885922724E0,8.937407732E-1,-7.195775509E0,6.676496506E0,9.856650716E0
2.888328974E0,8.793761730E-1,-7.210139751E0,6.676496506E0,9.865851371E0
2.890735016E0,8.841644526E-1,-7.205351353E0,6.666919708E0,9.856300183E0
2.893140641E0,8.913466930E-1,-7.198169231E0,6.683678150E0,9.863046833E0
2.895546839E0,8.841644526E-1,-7.222110271E0,6.688467026E0,9.883127780E0
2.897952516E0,8.793761730E-1,-7.207746029E0,6.686072350E0,9.870586038E0
2.900358037E0,8.626174927E-1,-7.243656635E0,6.695648670E0,9.901837279E0
2.902763922E0,8.745880127E-1,-7.229292393E0,6.712407589E0,9.903736079E0
2.905169964E0,8.745880127E-1,-7.241262913E0,6.717195988E0,9.915720584E0
2.907576474E0,8.578293324E-1,-7.234080791E0,6.705225468E0,9.900901203E0
2.909982204E0,8.506469727E-1,-7.246051311E0,6.717195988E0,9.917135767E0
2.912387360E0,8.697997332E-1,-7.231686115E0,6.724378109E0,9.913177926E0
2.914793401E0,8.482528925E-1,-7.243656635E0,6.736348152E0,9.928166036E0
2.917199183E0,8.650115728E-1,-7.236474991E0,6.731560230E0,9.921124858E0
2.919604704E0,8.674057722E-1,-7.255627155E0,6.777048588E0,9.966188125E0
2.922010849E0,8.554352522E-1,-7.255627155E0,6.762683868E0,9.955389897E0
2.924416943E0,8.674057722E-1,-7.248445511E0,6.779442310E0,9.962589680E0
2.926823401E0,8.769820929E-1,-7.262809753E0,6.781836510E0,9.975510491E0
2.929229547E0,8.865585327E-1,-7.260416031E0,6.793807030E0,9.982757181E0
2.931635224E0,9.009230137E-1,-7.267597675E0,6.781836510E0,9.981129430E0
2.934041631E0,9.128935337E-1,-7.298721313E0,6.793807030E0,1.001301760E1
2.936447672E0,9.128935337E-1,-7.298721313E0,6.812959671E0,1.002602249E1
2.938853558E0,9.152876139E-1,-7.305903912E0,6.851265430E0,1.005752561E1
2.941259599E0,9.224698544E-1,-7.308297634E0,6.868023872E0,1.007134136E1
2.943665641E0,9.511991739E-1,-7.322662354E0,6.879994392E0,1.009259563E1
2.946072047E0,9.464108944E-1,-7.272386551E0,6.901541233E0,1.007048018E1
2.948478037E0,9.607754946E-1,-7.296327114E0,6.915905952E0,1.009897193E1
2.950883662E0,9.847165346E-1,-7.293933392E0,6.915905952E0,1.009954881E1
2.953290016E0,9.918987751E-1,-7.320268154E0,6.935059071E0,1.013238537E1
2.955695901E0,9.942928553E-1,-7.322662354E0,6.920694351E0,1.012452530E1
2.958101526E0,9.775342941E-1,-7.329844952E0,6.915905952E0,1.012481879E1
2.960507829E0,9.751402140E-1,-7.332238674E0,6.899147511E0,1.011488303E1
2.962914026E0,9.631696939E-1,-7.334632874E0,6.879994392E0,1.010241843E1
2.965320537E0,9.511991739E-1,-7.329844952E0,6.913511753E0,1.012067447E1
2.967726579E0,9.344403744E-1,-7.337027073E0,6.896753311E0,1.011288047E1
2.970132151E0,9.296523333E-1,-7.322662354E0,6.846477509E0,1.006776498E1
2.972538349E0,9.176818132E-1,-7.303509235E0,6.841689110E0,1.004948242E1
2.974943922E0,9.128935337E-1,-7.284357071E0,6.875206470E0,1.005801653E1
2.977348870E0,9.057112932E-1,-7.284357071E0,6.829718590E0,1.002632669E1
2.979754339E0,8.913466930E-1,-7.291538715E0,6.757895470E0,9.981492220E0
2.982160016E0,8.865585327E-1,-7.279568195E0,6.769865990E0,9.980440104E0
2.984566110E0,8.793761730E-1,-7.258021832E0,6.755501270E0,9.954344819E0
2.986971735E0,8.578293324E-1,-7.243656635E0,6.717195988E0,9.916004969E0
2.989376995E0,8.386765718E-1,-7.258021832E0,6.710013390E0,9.920007005E0
2.991783401E0,8.099473715E-1,-7.246051311E0,6.714801788E0,9.912105599E0
2.994189704E0,8.482528925E-1,-7.236474991E0,6.664525986E0,9.874310603E0
2.996595641E0,8.051590919E-1,-7.214927673E0,6.657343388E0,9.850060075E0
2.999001787E0,7.836122513E-1,-7.198169231E0,6.683678150E0,9.853894766E0
3.001407776E0,8.027650118E-1,-7.210139751E0,6.664525986E0,9.851215839E0
3.003814235E0,7.931885719E-1,-7.202957153E0,6.654949188E0,9.838703602E0
3.006220224E0,7.764298916E-1,-7.193380833E0,6.669313908E0,9.840087356E0
3.008625849E0,7.764298916E-1,-7.181410313E0,6.676496506E0,9.836213857E0
3.011032204E0,7.477008104E-1,-7.171834469E0,6.633402348E0,9.797769790E0
3.013437933E0,7.572771311E-1,-7.169439793E0,6.631008148E0,9.795131681E0
3.015843245E0,7.572771311E-1,-7.171834469E0,6.633402348E0,9.798505243E0
3.018249183E0,7.548830509E-1,-7.155075550E0,6.616643906E0,9.774708749E0
3.020655172E0,7.333360910E-1,-7.171834469E0,6.604673386E0,9.777254318E0
3.023061474E0,7.261538506E-1,-7.157469273E0,6.585520267E0,9.753242691E0
3.025467568E0,7.213656902E-1,-7.147893429E0,6.611855507E0,9.763676673E0
3.027873349E0,7.117892504E-1,-7.138316631E0,6.595097065E0,9.744614593E0
3.030280016E0,7.261538506E-1,-7.138316631E0,6.573549747E0,9.731105797E0
3.032686214E0,7.309420109E-1,-7.114376068E0,6.602278709E0,9.733381078E0
3.035091735E0,7.357302904E-1,-7.121557713E0,6.597490788E0,9.735746916E0
3.037497881E0,7.429125309E-1,-7.119163990E0,6.607067585E0,9.741034700E0
3.039904183E0,7.692476511E-1,-7.123952389E0,6.607067585E0,9.746577946E0
3.042310797E0,7.788239717E-1,-7.109587193E0,6.628614426E0,9.751478146E0
3.044716631E0,8.027650118E-1,-7.080858231E0,6.626219749E0,9.730867028E0
3.047121735E0,8.267060518E-1,-7.107193470E0,6.676496506E0,9.786278532E0
3.049527620E0,8.554352522E-1,-7.114376068E0,6.688467026E0,9.802127701E0
3.051933401E0,8.961348534E-1,-7.095222950E0,6.662131310E0,9.773906075E0
3.054338870E0,9.009230137E-1,-7.116769791E0,6.640584946E0,9.775348738E0
3.056744443E0,9.272581339E-1,-7.102405548E0,6.719589710E0,9.821245241E0
3.059149808E0,9.296523333E-1,-7.119163990E0,6.772259712E0,9.869663165E0
3.061555381E0,9.511991739E-1,-7.104799271E0,6.789019108E0,9.872878658E0
3.063960537E0,9.535932541E-1,-7.083252430E0,6.812959671E0,9.874118926E0
3.066365485E0,9.727460146E-1,-7.085646152E0,6.832112312E0,9.890923863E0
3.068771422E0,9.895048141E-1,-7.071281910E0,6.865629673E0,9.905504451E0
3.071177099E0,9.799282551E-1,-7.085646152E0,6.865629673E0,9.914812736E0
3.073582308E0,1.006263375E0,-7.054523468E0,6.903935432E0,9.921854252E0
3.075987881E0,1.039780736E0,-7.042552948E0,6.846477509E0,9.876889707E0
3.078393454E0,1.049357176E0,-7.030582428E0,6.846477509E0,9.869371512E0
3.080799495E0,1.073298216E0,-6.997065067E0,6.848871231E0,9.849767802E0
3.083205016E0,1.090056896E0,-7.018611908E0,6.832112312E0,9.855297854E0
3.085610172E0,1.087662816E0,-7.001853466E0,6.844082832E0,9.851417775E0
3.088016318E0,1.109209657E0,-6.977912426E0,6.824930191E0,9.823506502E0
3.090421735E0,1.104421377E0,-7.006641388E0,6.841689110E0,9.855023084E0
3.092826631E0,1.106815577E0,-6.973124027E0,6.822536469E0,9.818172095E0
3.095231787E0,1.082874537E0,-6.982700348E0,6.870418549E0,9.855626436E0
3.097637151E0,1.073298216E0,-6.975517750E0,6.829718590E0,9.821144177E0
3.100043193E0,1.099633336E0,-6.961153507E0,6.839294910E0,9.820529848E0
3.102448714E0,1.087662816E0,-6.980306149E0,6.853659153E0,9.842780507E0
3.104853922E0,1.087662816E0,-6.977912426E0,6.848871231E0,9.837749202E0
3.107259547E0,1.082874537E0,-6.975517750E0,6.860841751E0,9.843861776E0
3.109664443E0,1.087662816E0,-6.997065067E0,6.884782791E0,9.876343657E0
3.112069183E0,1.066115856E0,-7.018611908E0,6.879994392E0,9.885941481E0
3.114474651E0,1.030204415E0,-7.016217709E0,6.853659153E0,9.862113154E0
3.116880433E0,1.034992695E0,-7.030582428E0,6.865629673E0,9.881152259E0
3.119286526E0,1.001475334E0,-7.028188229E0,6.872812271E0,9.880988368E0
3.121692204E0,9.942928553E-1,-7.049735069E0,6.856053352E0,9.883969365E0
3.124097464E0,9.535932541E-1,-7.056917191E0,6.853659153E0,9.883423704E0
3.126503349E0,9.344403744E-1,-7.061705112E0,6.841689110E0,9.876718472E0
3.128908870E0,9.200758934E-1,-7.071281910E0,6.815353870E0,9.864006077E0
3.131314287E0,8.650115728E-1,-7.088040829E0,6.789019108E0,9.852885276E0
3.133720068E0,8.626174927E-1,-7.073675632E0,6.774654388E0,9.832443134E0
3.136125537E0,8.243118525E-1,-7.104799271E0,6.755501270E0,9.838417562E0
3.138531370E0,8.195236921E-1,-7.100011349E0,6.724378109E0,9.813207487E0
3.140936995E0,8.458588123E-1,-7.095222950E0,6.736348152E0,9.820185959E0
3.143341943E0,8.386765718E-1,-7.088040829E0,6.633402348E0,9.744009846E0
3.145747464E0,8.362823725E-1,-7.121557713E0,6.566367149E0,9.722814922E0
3.148152829E0,8.578293324E-1,-7.128740311E0,6.707619190E0,9.825831506E0
3.150558245E0,8.697997332E-1,-7.131134510E0,6.875206470E0,9.943746527E0
3.152964235E0,8.674057722E-1,-7.104799271E0,6.911118031E0,9.949578779E0
3.155370276E0,8.745880127E-1,-7.059311390E0,6.822536469E0,9.856256153E0
3.157776891E0,8.626174927E-1,-7.035370350E0,6.796200752E0,9.819821259E0
3.160182985E0,9.009230137E-1,-7.016217709E0,6.836900711E0,9.837793683E0
3.162588349E0,9.033172131E-1,-7.018611908E0,6.889570713E0,9.876390014E0
3.164994235E0,9.081053734E-1,-7.028188229E0,6.891964912E0,9.885305534E0
3.167399651E0,9.272581339E-1,-7.042552948E0,6.858448029E0,9.873989520E0
3.169804704E0,9.200758934E-1,-7.052129269E0,6.800989151E0,9.840351635E0
3.172210172E0,9.152876139E-1,-7.068887711E0,6.750713348E0,9.817283514E0
3.174615745E0,9.320464134E-1,-7.104799271E0,6.721983910E0,9.825067474E0
3.177021526E0,9.440169334E-1,-7.119163990E0,6.738742828E0,9.848061677E0
3.179426787E0,9.751402140E-1,-7.138316631E0,6.736348152E0,9.863308228E0
3.181832047E0,9.679577351E-1,-7.162257671E0,6.729166508E0,9.875047292E0
3.184238349E0,9.464108944E-1,-7.179016113E0,6.757895470E0,9.904701768E0
3.186644183E0,9.488050938E-1,-7.167046070E0,6.765078068E0,9.901164666E0
3.189049443E0,9.416227341E-1,-7.183804989E0,6.765078068E0,9.912617654E0
3.191455016E0,9.104994535E-1,-7.195775509E0,6.755501270E0,9.911861169E0
3.193860537E0,8.817702532E-1,-7.198169231E0,6.745924950E0,9.904476891E0
3.196266370E0,8.865585327E-1,-7.205351353E0,6.664525986E0,9.854896284E0
3.198671683E0,8.865585327E-1,-7.200563431E0,6.903935432E0,1.001491009E1
3.201076474E0,8.769820929E-1,-7.214927673E0,6.518485546E0,9.762936686E0
3.203482151E0,8.865585327E-1,-7.222110271E0,7.026034355E0,1.011484165E1
3.205887464E0,9.057112932E-1,-7.222110271E0,6.520879745E0,9.772464499E0
3.208292412E0,8.578293324E-1,-7.258021832E0,6.851265430E0,1.001771381E1
3.210698141E0,9.248640537E-1,-7.269992352E0,6.824930191E0,1.001438138E1
3.213104235E0,9.416227341E-1,-7.277174473E0,6.587914467E0,9.861264559E0
3.215510485E0,9.583814144E-1,-7.289144993E0,7.011670113E0,1.015941177E1
3.217916058E0,1.013445616E0,-7.277174473E0,6.566367149E0,9.854010243E0
3.220321214E0,1.013445616E0,-7.325056553E0,6.947029591E0,1.014616901E1
3.222727620E0,1.061327696E0,-7.296327114E0,6.848871231E0,1.006329186E1
3.225133870E0,1.063721776E0,-7.308297634E0,6.681284428E0,9.959030070E0
3.227539183E0,1.087662816E0,-7.322662354E0,7.057157993E0,1.022779904E1
3.229944704E0,1.111603737E0,-7.308297634E0,6.580732346E0,9.897116519E0
3.232350485E0,1.097239137E0,-7.341815472E0,6.966181755E0,1.018007251E1
3.234756474E0,1.118785977E0,-7.325056553E0,6.748318672E0,1.002237200E1
3.237161995E0,1.099633336E0,-7.334632874E0,6.654949188E0,9.964656620E0
3.239567151E0,1.090056896E0,-7.344209194E0,6.963788033E0,1.017938979E1
3.241972881E0,1.066115856E0,-7.322662354E0,6.461027145E0,9.823586857E0
3.244378245E0,1.023022175E0,-7.372938156E0,6.908723831E0,1.015565145E1
3.246783558E0,1.037386656E0,-7.353785992E0,6.623826027E0,9.951352206E0
3.249189339E0,9.918987751E-1,-7.353785992E0,6.583126545E0,9.919656582E0
3.251595016E0,9.607754946E-1,-7.368150234E0,6.846477509E0,1.010381026E1
3.254000954E0,9.416227341E-1,-7.360967636E0,6.365263462E0,9.776864367E0
3.256406474E0,9.104994535E-1,-7.432790756E0,6.899147511E0,1.018202456E1
3.258811474E0,8.817702532E-1,-7.435184956E0,6.566367149E0,9.958748498E0
3.261217308E0,8.482528925E-1,-7.442367554E0,6.575943947E0,9.967517573E0
3.263622933E0,8.267060518E-1,-7.459125996E0,6.769865990E0,1.010708113E1
3.266027933E0,7.907944918E-1,-7.447155476E0,6.367657185E0,9.830185076E0
3.268433141E0,7.740358114E-1,-7.480672836E0,6.872812271E0,1.018799028E1
3.270838870E0,7.644594908E-1,-7.478278637E0,6.489756584E0,9.931061887E0
3.273245120E0,7.309420109E-1,-7.504613876E0,6.664525986E0,1.006327046E1
3.275650641E0,7.500947714E-1,-7.526160717E0,6.815353870E0,1.018109943E1
3.278055693E0,7.357302904E-1,-7.538131237E0,6.484968185E0,9.970934458E0
3.280461422E0,7.046068907E-1,-7.588407516E0,7.006881714E0,1.035262241E1
3.282866787E0,7.429125309E-1,-7.583619118E0,6.592702866E0,1.007605722E1
3.285271787E0,6.902424097E-1,-7.631500721E0,6.887176991E0,1.030288526E1
3.287677308E0,6.854541302E-1,-7.624318600E0,6.985334873E0,1.036315515E1
3.290083089E0,6.567250490E-1,-7.624318600E0,6.674101830E0,1.015407096E1
3.292489391E0,6.423603296E-1,-7.660230160E0,7.148133278E0,1.049702635E1
3.294895224E0,6.710895300E-1,-7.617136478E0,6.662131310E0,1.014175147E1
3.297300329E0,6.471486092E-1,-7.641077518E0,6.856053352E0,1.028641505E1
3.299706266E0,6.854541302E-1,-7.617136478E0,7.112221718E0,1.044386486E1
3.302111891E0,7.333360910E-1,-7.576436996E0,6.997305393E0,1.033936469E1
3.304516943E0,7.884004116E-1,-7.547708035E0,6.923088551E0,1.027222599E1
3.306922360E0,8.410706520E-1,-7.502219677E0,6.968576431E0,1.027383849E1
3.309327776E0,8.889524937E-1,-7.523766994E0,6.875206470E0,1.023062903E1
3.311733766E0,9.033172131E-1,-7.538131237E0,6.870418549E0,1.023924097E1
3.314139495E0,9.488050938E-1,-7.521372318E0,6.824930191E0,1.020053649E1
3.316545016E0,9.511991739E-1,-7.535737514E0,6.762683868E0,1.016985806E1
3.318951266E0,9.224698544E-1,-7.530948639E0,6.710013390E0,1.012869279E1
3.321356839E0,9.368345737E-1,-7.540525436E0,6.683678150E0,1.011972018E1
3.323761995E0,9.224698544E-1,-7.530948639E0,6.669313908E0,1.010177638E1
3.326167829E0,9.248640537E-1,-7.528554916E0,6.702831268E0,1.012237421E1
3.328573766E0,9.535932541E-1,-7.545313358E0,6.702831268E0,1.013750664E1
3.330979912E0,9.751402140E-1,-7.518978119E0,6.650160789E0,1.008516579E1
3.333385641E0,9.751402140E-1,-7.514190197E0,6.626219749E0,1.006582043E1
3.335791214E0,9.823224545E-1,-7.507007599E0,6.602278709E0,1.004540714E1
3.338197724E0,9.416227341E-1,-7.487855434E0,6.496938705E0,9.958154695E0
3.340603818E0,8.769820929E-1,-7.473490238E0,6.391598225E0,9.872926709E0
3.343009651E0,8.195236921E-1,-7.535737514E0,6.437086582E0,9.944598666E0
3.345415745E0,7.740358114E-1,-7.626712799E0,6.571156025E0,1.009682975E1
3.347821683E0,7.453066111E-1,-7.679382801E0,6.695648670E0,1.021567977E1
3.350227985E0,7.931885719E-1,-7.681777477E0,6.779442310E0,1.027617105E1
3.352633870E0,8.506469727E-1,-7.688959122E0,6.733954430E0,1.025620958E1
3.355039391E0,8.769820929E-1,-7.638683319E0,6.556791306E0,1.010495387E1
3.357445693E0,9.176818132E-1,-7.607560158E0,6.516091347E0,1.005865587E1
3.359851370E0,9.631696939E-1,-7.600378036E0,6.580732346E0,1.009947921E1
3.362256787E0,9.679577351E-1,-7.590801239E0,6.535244465E0,1.006313201E1
3.364662776E0,9.559873343E-1,-7.574042797E0,6.453845024E0,9.996607008E0
3.367068766E0,8.985290527E-1,-7.569254398E0,6.391598225E0,9.947537106E0
3.369475329E0,8.626174927E-1,-7.586013317E0,6.305410862E0,9.902015609E0
3.371881370E0,7.668534517E-1,-7.638683319E0,6.125853539E0,9.821589924E0
3.374286683E0,6.471486092E-1,-7.734447479E0,6.025301456E0,9.825718130E0
3.376692724E0,4.628029764E-1,-7.839787960E0,6.058818817E0,9.918958983E0
3.379098193E0,3.550685346E-1,-7.947522163E0,6.149794579E0,1.005530485E1
3.381503349E0,2.521222830E-1,-8.024133682E0,6.303016663E0,1.020677746E1
3.383909026E0,2.138167024E-1,-8.038497925E0,6.403568745E0,1.027953594E1
3.386314651E0,2.209990025E-1,-8.036104202E0,6.384416103E0,1.026589403E1
3.388720745E0,2.856396735E-1,-8.004981041E0,6.353292942E0,1.022377830E1
3.391126526E0,3.646449149E-1,-7.952310562E0,6.358080864E0,1.018810097E1
3.393531735E0,4.125268757E-1,-7.870910645E0,6.403568745E0,1.015515167E1
3.395937933E0,4.316796958E-1,-7.808664322E0,6.432297707E0,1.012600808E1
3.398343870E0,4.628029764E-1,-7.746417999E0,6.516091347E0,1.013314486E1
3.400749391E0,4.364678562E-1,-7.686565399E0,6.578337669E0,1.012661436E1
3.403155172E0,4.292855561E-1,-7.657836437E0,6.702831268E0,1.018600471E1
3.405560693E0,4.316796958E-1,-7.650653839E0,6.789019108E0,1.023765754E1
3.407966474E0,4.149210155E-1,-7.624318600E0,6.844082832E0,1.025396818E1
3.410372151E0,4.316796958E-1,-7.638683319E0,6.889570713E0,1.029572799E1
3.412777568E0,4.484383762E-1,-7.631500721E0,6.944635391E0,1.032806182E1
3.415183401E0,4.747734368E-1,-7.629106998E0,6.951817513E0,1.033230130E1
3.417588818E0,5.394141674E-1,-7.633895397E0,6.954211235E0,1.034061799E1
3.419993870E0,5.944783688E-1,-7.653048038E0,6.944635391E0,1.035135303E1
3.422399599E0,6.854541302E-1,-7.641077518E0,6.894359112E0,1.031446075E1
3.424805589E0,7.500947714E-1,-7.653048038E0,6.858448029E0,1.030388741E1
3.427211631E0,8.051590919E-1,-7.638683319E0,6.784230232E0,1.024809952E1
3.429617099E0,8.674057722E-1,-7.619530201E0,6.774654388E0,1.023257423E1
3.432022464E0,9.009230137E-1,-7.629106998E0,6.765078068E0,1.023626969E1
3.434428662E0,9.368345737E-1,-7.617136478E0,6.786624908E0,1.024483796E1
3.436834339E0,9.679577351E-1,-7.612348557E0,6.824930191E0,1.026958932E1
3.439239443E0,1.003869295E0,-7.593195438E0,6.803383350E0,1.024453003E1
3.441644912E0,1.032598495E0,-7.564466476E0,6.789019108E0,1.021656465E1
3.444050172E0,1.058933496E0,-7.552495956E0,6.791412830E0,1.021199410E1
3.446455901E0,1.097239137E0,-7.545313358E0,6.824930191E0,1.023305231E1
3.448861579E0,1.157091618E0,-7.518978119E0,6.860841751E0,1.024426876E1
3.451266891E0,1.209761739E0,-7.485460758E0,6.844082832E0,1.021455413E1
3.453672776E0,1.255249619E0,-7.495037556E0,6.865629673E0,1.024148966E1
3.456078037E0,1.283978939E0,-7.471096516E0,6.875206470E0,1.023398012E1
3.458482829E0,1.329466820E0,-7.432790756E0,6.877600193E0,1.021348348E1
3.460888506E0,1.351013660E0,-7.435184956E0,6.851265430E0,1.020034564E1
3.463294339E0,1.355801821E0,-7.437578678E0,6.824930191E0,1.018506000E1
3.465700120E0,1.372560501E0,-7.413638115E0,6.800989151E0,1.015378776E1
3.468105641E0,1.358195901E0,-7.399273396E0,6.808171272E0,1.014618840E1
3.470511058E0,1.346225381E0,-7.404061794E0,6.777048588E0,1.012723266E1
3.472916943E0,1.355801821E0,-7.416032314E0,6.789019108E0,1.014527054E1
3.475322256E0,1.305525780E0,-7.408849716E0,6.781836510E0,1.012861087E1
3.477727099E0,1.319890380E0,-7.396879196E0,6.767471790E0,1.011210200E1
3.480132516E0,1.307919860E0,-7.406455994E0,6.789019108E0,1.013198032E1
3.482537985E0,1.315102220E0,-7.363361835E0,6.810565948E0,1.011594780E1
3.484943714E0,1.329466820E0,-7.363361835E0,6.836900711E0,1.013557057E1
3.487349183E0,1.365378261E0,-7.334632874E0,6.870418549E0,1.014217670E1
3.489754287E0,1.377348781E0,-7.315479755E0,6.899147511E0,1.014946157E1
3.492160068E0,1.430018902E0,-7.320268154E0,6.923088551E0,1.017646476E1
3.494565537E0,1.501841903E0,-7.303509235E0,6.963788033E0,1.020250558E1
3.496970537E0,1.571270823E0,-7.274780273E0,6.999699593E0,1.021700124E1
3.499376162E0,1.643093705E0,-7.262809753E0,7.040399551E0,1.024770161E1
3.501781787E0,1.712522507E0,-7.234080791E0,7.059551716E0,1.025192317E1
3.504187620E0,1.748434067E0,-7.238868713E0,7.078704834E0,1.027454642E1
3.506593089E0,1.798710108E0,-7.214927673E0,7.124192238E0,1.029779852E1
3.508998297E0,1.841803908E0,-7.224504471E0,7.150527954E0,1.033033187E1
3.511404131E0,1.875321269E0,-7.202957153E0,7.186439514E0,1.034622320E1
3.513809339E0,1.901656508E0,-7.198169231E0,7.157710075E0,1.032776604E1
3.516214026E0,1.906444430E0,-7.207746029E0,7.229532719E0,1.038519506E1
3.518619131E0,1.877715468E0,-7.205351353E0,7.260656357E0,1.040000165E1
3.521024651E0,1.880109429E0,-7.231686115E0,7.270232201E0,1.042537154E1
3.523430849E0,1.858562589E0,-7.222110271E0,7.330084801E0,1.045673347E1
3.525836787E0,1.841803908E0,-7.236474991E0,7.368391037E0,1.049056712E1
3.528242412E0,1.839409709E0,-7.260416031E0,7.406696320E0,1.053357581E1
3.530648558E0,1.808286548E0,-7.231686115E0,7.442607880E0,1.053373611E1
3.533054026E0,1.791527748E0,-7.236474991E0,7.514431000E0,1.058502788E1
3.535459131E0,1.796316028E0,-7.222110271E0,7.612588882E0,1.064599162E1
3.537864547E0,1.827439308E0,-7.200563431E0,7.667653084E0,1.067616748E1
3.540269704E0,1.877715468E0,-7.157469273E0,7.679623604E0,1.066451126E1
3.542675589E0,1.901656508E0,-7.126346111E0,7.614983082E0,1.060137131E1
3.545081110E0,1.963903069E0,-7.080858231E0,7.588647842E0,1.056328759E1
3.547485901E0,2.004602432E0,-7.071281910E0,7.533583164E0,1.052503368E1
3.549891579E0,2.033331633E0,-7.044946671E0,7.502460480E0,1.049059695E1
3.552296995E0,2.062060833E0,-7.049735069E0,7.468942642E0,1.047549348E1
3.554701943E0,2.078819513E0,-7.044946671E0,7.500065804E0,1.049779745E1
3.557107360E0,2.086001873E0,-7.042552948E0,7.521612644E0,1.051302110E1
3.559513089E0,2.078819513E0,-7.061705112E0,7.543159962E0,1.053984971E1
3.561919339E0,2.083607674E0,-7.059311390E0,7.543159962E0,1.053919164E1
3.564325224E0,2.083607674E0,-7.042552948E0,7.550342560E0,1.053312137E1
3.566730797E0,2.069243193E0,-7.049735069E0,7.547947884E0,1.053337786E1
3.569137151E0,2.100366354E0,-7.054523468E0,7.533583164E0,1.053246009E1
3.571543037E0,2.119519234E0,-7.018611908E0,7.543159962E0,1.051915097E1
3.573948349E0,2.102760315E0,-7.009035110E0,7.512036324E0,1.048708081E1
3.576354079E0,2.153036594E0,-6.975517750E0,7.533583164E0,1.049039035E1
3.578759860E0,2.193736076E0,-6.961153507E0,7.595829964E0,1.053407656E1
3.581165797E0,2.217677116E0,-6.920454025E0,7.677229404E0,1.057121691E1
3.583571579E0,2.275135756E0,-6.889330387E0,7.646105766E0,1.054049568E1
3.585977151E0,2.299076557E0,-6.841448307E0,7.689199924E0,1.054585053E1
3.588383349E0,2.351746798E0,-6.805536747E0,7.646105766E0,1.050280804E1
3.590789131E0,2.380475998E0,-6.769625187E0,7.646105766E0,1.048605858E1
3.593194443E0,2.435540199E0,-6.733713627E0,7.653288364E0,1.048081953E1
3.595600068E0,2.440328360E0,-6.669073105E0,7.646105766E0,1.043526099E1
3.598005589E0,2.497786999E0,-6.625979900E0,7.629347324E0,1.040910612E1
3.600411474E0,2.502574921E0,-6.592462540E0,7.547947884E0,1.032932528E1
3.602817151E0,2.500180960E0,-6.525427341E0,7.500065804E0,1.025100453E1
3.605222829E0,2.483422279E0,-6.508668900E0,7.504854202E0,1.023977508E1
3.607629079E0,2.469057560E0,-6.472757339E0,7.461760521E0,1.018188111E1
3.610034704E0,2.481028080E0,-6.444028378E0,7.421061039E0,1.013672279E1
3.612439808E0,2.464269400E0,-6.376993179E0,7.385149479E0,1.006375171E1
3.614845329E0,2.406811237E0,-6.379387379E0,7.349237919E0,1.002499983E1
3.617250849E0,2.390052319E0,-6.353052139E0,7.291779518E0,9.962111729E0
3.619656943E0,2.387658119E0,-6.307564259E0,7.265444279E0,9.913271848E0
3.622062985E0,2.390052319E0,-6.293200016E0,7.212774277E0,9.866145615E0
3.624468454E0,2.349352598E0,-6.269258976E0,7.160103798E0,9.802558448E0
3.626874756E0,2.358929157E0,-6.228559494E0,7.112221718E0,9.743880023E0
3.629280797E0,2.358929157E0,-6.204618454E0,7.088280678E0,9.711104978E0
3.631686058E0,2.366111517E0,-6.175889015E0,7.083492756E0,9.691024634E0
3.634091787E0,2.378081799E0,-6.151947975E0,7.069128513E0,9.668211565E0
3.636497724E0,2.409205198E0,-6.139977455E0,7.038004875E0,9.645574398E0
3.638903870E0,2.399628639E0,-6.106460571E0,7.016458511E0,9.606131810E0
3.641309443E0,2.437934399E0,-6.108854294E0,7.009275913E0,9.612053565E0
3.643714704E0,2.442722559E0,-6.082519531E0,6.987729073E0,9.580829554E0
3.646120797E0,2.478633881E0,-6.053789616E0,6.982940674E0,9.568356969E0
3.648526683E0,2.488210440E0,-6.039425373E0,6.980546951E0,9.560014946E0
3.650932464E0,2.514545441E0,-6.013090134E0,6.985334873E0,9.553800030E0
3.653338401E0,2.512151480E0,-5.996331692E0,7.030822754E0,9.575978666E0
3.655744131E0,2.533698320E0,-5.974784851E0,7.061945915E0,9.591077171E0
3.658150120E0,2.569609642E0,-5.977179050E0,7.083492756E0,9.617974461E0
3.660555745E0,2.588762760E0,-5.924509048E0,7.100251198E0,9.602867653E0
3.662961266E0,2.583974361E0,-5.914932251E0,7.128981113E0,9.616949555E0
3.665367360E0,2.612703562E0,-5.883808613E0,7.155315876E0,9.625173712E0
3.667773037E0,2.639038563E0,-5.855079651E0,7.219956398E0,9.663035374E0
3.670178245E0,2.667768002E0,-5.833532810E0,7.255867958E0,9.684766956E0
3.672583974E0,2.689314604E0,-5.800015450E0,7.315720558E0,9.715573042E0
3.674989860E0,2.749167204E0,-5.754528046E0,7.368391037E0,9.745034624E0
3.677395849E0,2.770714283E0,-5.730587006E0,7.428243160E0,9.782396512E0
3.679801370E0,2.801837444E0,-5.721010208E0,7.509642601E0,9.847587667E0
3.682206422E0,2.856901646E0,-5.704251289E0,7.583859444E0,9.910362952E0
3.684612568E0,2.885630846E0,-5.677916527E0,7.653288364E0,9.956828022E0
3.687018349E0,2.914359808E0,-5.661157608E0,7.761023045E0,1.003870894E1
3.689423454E0,2.971818447E0,-5.651581287E0,7.792146206E0,1.007420560E1
3.691829235E0,2.988577127E0,-5.630034447E0,7.849604607E0,1.011163556E1
3.694235172E0,3.041247129E0,-5.634822845E0,7.861574650E0,1.013926864E1
3.696641579E0,3.079552889E0,-5.606093407E0,7.859180927E0,1.013304762E1
3.699047360E0,3.125040770E0,-5.610881805E0,7.907062531E0,1.018673217E1
3.701452308E0,3.141799450E0,-5.562999725E0,7.919033051E0,1.017491790E1
3.703858089E0,3.175316572E0,-5.574970245E0,7.938186646E0,1.020674952E1
3.706263766E0,3.189681530E0,-5.546240807E0,7.947762489E0,1.020302817E1
3.708669183E0,3.225592852E0,-5.522299767E0,7.909457207E0,1.017151696E1
3.711075172E0,3.204046011E0,-5.495965004E0,7.931003571E0,1.016721987E1
3.713481162E0,3.251927853E0,-5.440900803E0,7.952550888E0,1.016963627E1
3.715887568E0,3.283051252E0,-5.424141884E0,7.935791969E0,1.015758509E1
3.718293662E0,3.299809933E0,-5.395412922E0,7.945368767E0,1.015520118E1
3.720699131E0,3.321356773E0,-5.352318764E0,7.945368767E0,1.013940885E1
3.723105276E0,3.342903614E0,-5.292466640E0,7.916639328E0,1.009249156E1
3.725511058E0,3.362056494E0,-5.287678242E0,7.871151447E0,1.006071519E1
3.727916631E0,3.369238615E0,-5.237402439E0,7.871151447E0,1.003679123E1
3.730322724E0,3.378815174E0,-5.187126160E0,7.804116726E0,9.961270383E0
3.732728558E0,3.407544374E0,-5.148820877E0,7.784964085E0,9.936165301E0
3.735134704E0,3.429091215E0,-5.127274036E0,7.751446247E0,9.906186175E0
3.737540641E0,3.400362253E0,-5.081785679E0,7.751446247E0,9.872787249E0
3.739946318E0,3.383603334E0,-5.048268318E0,7.708353043E0,9.815930479E0
3.742352568E0,3.397967815E0,-5.017145157E0,7.698776245E0,9.797402027E0
3.744758245E0,3.400362253E0,-4.988415718E0,7.737082005E0,9.813724715E0
3.747163454E0,3.409938335E0,-4.947716236E0,7.713140965E0,9.777531332E0
3.749569443E0,3.421908855E0,-4.918987274E0,7.708353043E0,9.763431909E0
3.751975641E0,3.433879375E0,-4.863923073E0,7.727505207E0,9.755183850E0
3.754382047E0,3.438667774E0,-4.820829391E0,7.734687805E0,9.741161508E0
3.756787985E0,3.500914097E0,-4.789705753E0,7.686805725E0,9.710028989E0
3.759193558E0,3.515278578E0,-4.751400471E0,7.677229404E0,9.688799783E0
3.761599651E0,3.510490656E0,-4.729853153E0,7.658076286E0,9.661324335E0
3.764005641E0,3.551190138E0,-4.686759949E0,7.646105766E0,9.645703894E0
3.766411735E0,3.560766697E0,-4.665212631E0,7.653288364E0,9.644485012E0
3.768818089E0,3.582313776E0,-4.626907349E0,7.643712044E0,9.626400023E0
3.771224131E0,3.606254578E0,-4.641272068E0,7.660470963E0,9.655531775E0
3.773630120E0,3.596678257E0,-4.607754230E0,7.643712044E0,9.622568646E0
3.776035537E0,3.608648777E0,-4.586207390E0,7.638923645E0,9.612949530E0
3.778440901E0,3.620619059E0,-4.593389988E0,7.583859444E0,9.577214523E0
3.780847099E0,3.611042738E0,-4.559872150E0,7.588647842E0,9.561361815E0
3.783252776E0,3.596678257E0,-4.552690029E0,7.550342560E0,9.522119184E0
3.785658141E0,3.594284058E0,-4.533537388E0,7.526401520E0,9.493079530E0
3.788063610E0,3.579919338E0,-4.514384270E0,7.502460480E0,9.459513785E0
3.790469287E0,3.567948818E0,-4.504808426E0,7.488095284E0,9.439021596E0
3.792875485E0,3.575131178E0,-4.504808426E0,7.483307362E0,9.437942094E0
3.795280954E0,3.565554857E0,-4.471291065E0,7.464154243E0,9.403149674E0
3.797686006E0,3.579919338E0,-4.444955826E0,7.445002079E0,9.380912041E0
3.800091943E0,3.560766697E0,-4.447350025E0,7.423454762E0,9.357652607E0
3.802497568E0,3.582313776E0,-4.425802708E0,7.409090519E0,9.344266901E0
3.804902776E0,3.575131178E0,-4.392285347E0,7.406696320E0,9.323780557E0
3.807308297E0,3.596678257E0,-4.375526905E0,7.416272640E0,9.331796722E0
3.809713870E0,3.620619059E0,-4.370738506E0,7.452184200E0,9.367352177E0
3.812119756E0,3.637377977E0,-4.356373787E0,7.454578400E0,9.369058130E0
3.814525537E0,3.666106939E0,-4.330039024E0,7.478519440E0,9.387109835E0
3.816931266E0,3.682865620E0,-4.330039024E0,7.495277882E0,9.407014811E0
3.819337724E0,3.702018499E0,-4.337221146E0,7.538372040E0,9.452168071E0
3.821743454E0,3.728353739E0,-4.310886383E0,7.547947884E0,9.458111876E0
3.824148766E0,3.764265060E0,-4.320462227E0,7.574283600E0,9.497676418E0
3.826554651E0,3.804964781E0,-4.315674305E0,7.576677322E0,9.513613453E0
3.828960485E0,3.831300020E0,-4.291733265E0,7.571888924E0,9.509539218E0
3.831366579E0,3.879182100E0,-4.294127464E0,7.593435764E0,9.547138375E0
3.833772099E0,3.905516863E0,-4.289339542E0,7.603012562E0,9.563330784E0
3.836177151E0,3.936640024E0,-4.284550667E0,7.626953602E0,9.592962542E0
3.838583037E0,3.970157862E0,-4.291733265E0,7.612588882E0,9.598574757E0
3.840988766E0,4.015645504E0,-4.294127464E0,7.610194683E0,9.616652360E0
3.843394235E0,4.063527584E0,-4.296521187E0,7.576677322E0,9.611367748E0
3.845799964E0,4.085074425E0,-4.294127464E0,7.593435764E0,9.632633619E0
3.848205433E0,4.123380184E0,-4.298915863E0,7.634135723E0,9.683128109E0
3.850611110E0,4.147321224E0,-4.291733265E0,7.646105766E0,9.699596958E0
3.853016526E0,4.166473866E0,-4.315674305E0,7.693987846E0,9.756126186E0
3.855421735E0,4.183232784E0,-4.330039024E0,7.715534687E0,9.786631187E0
3.857827829E0,4.195203304E0,-4.327644825E0,7.727505207E0,9.800131490E0
3.860233714E0,4.240691185E0,-4.339615345E0,7.715534687E0,9.815559005E0
3.862639235E0,4.235902786E0,-4.361162186E0,7.686805725E0,9.800489288E0
3.865045120E0,4.269420147E0,-4.346797943E0,7.703564167E0,9.821787089E0
3.867450849E0,4.307725430E0,-4.358768463E0,7.725111485E0,9.860664701E0
3.869857151E0,4.331666470E0,-4.363556385E0,7.691593647E0,9.847059031E0
3.872263141E0,4.336454868E0,-4.365950108E0,7.679623604E0,9.840883084E0
3.874668349E0,4.338849068E0,-4.373132706E0,7.653288364E0,9.824597889E0
3.877074287E0,4.365184307E0,-4.365950108E0,7.646105766E0,9.827476165E0
3.879480016E0,4.360395432E0,-4.373132706E0,7.662864685E0,9.841586923E0
3.881885329E0,4.367578030E0,-4.377920628E0,7.667653084E0,9.850625903E0
3.884291058E0,4.389125347E0,-4.375526905E0,7.674835205E0,9.864722623E0
3.886696735E0,4.391519070E0,-4.377920628E0,7.624559402E0,9.827793997E0
3.889102881E0,4.405883789E0,-4.358768463E0,7.626953602E0,9.827568149E0
3.891508714E0,4.408277512E0,-4.353980064E0,7.641317844E0,9.837672053E0
3.893914079E0,4.405883789E0,-4.353980064E0,7.622165203E0,9.821728806E0
3.896320016E0,4.427430630E0,-4.353980064E0,7.600618362E0,9.814717717E0
3.898725485E0,4.437006950E0,-4.327644825E0,7.595829964E0,9.803681617E0
3.901130641E0,4.439401150E0,-4.322856903E0,7.545553684E0,9.763746964E0
3.903536370E0,4.463342190E0,-4.327644825E0,7.550342560E0,9.780470643E0
3.905942047E0,4.477706432E0,-4.320462227E0,7.540765762E0,9.776471604E0
3.908348089E0,4.463342190E0,-4.325250626E0,7.507248402E0,9.746178484E0
3.910753818E0,4.451371670E0,-4.315674305E0,7.495277882E0,9.727226993E0
3.913159235E0,4.465736389E0,-4.308491707E0,7.459366322E0,9.702991714E0
3.915565641E0,4.482495308E0,-4.313280106E0,7.413878441E0,9.677951384E0
3.917971683E0,4.465736389E0,-4.296521187E0,7.385149479E0,9.640712040E0
3.920377099E0,4.468130112E0,-4.294127464E0,7.351631641E0,9.615102972E0
3.922782985E0,4.484889030E0,-4.284550667E0,7.296567917E0,9.576612522E0
3.925189026E0,4.487283230E0,-4.294127464E0,7.279808998E0,9.569266456E0
3.927595641E0,4.489676952E0,-4.279762745E0,7.255867958E0,9.545741884E0
3.930002099E0,4.494465828E0,-4.270186424E0,7.253473759E0,9.541886435E0
3.932407985E0,4.480100632E0,-4.265398502E0,7.265444279E0,9.542096553E0
3.934814443E0,4.494465828E0,-4.239063263E0,7.267838478E0,9.538938965E0
3.937220433E0,4.511224270E0,-4.215122223E0,7.255867958E0,9.527120215E0
3.939626058E0,4.523194790E0,-4.219910145E0,7.227138996E0,9.513068422E0
3.942032256E0,4.547135830E0,-4.198363781E0,7.215168476E0,9.505859184E0
3.944438558E0,4.549529552E0,-4.198363781E0,7.212774277E0,9.505187550E0
3.946845016E0,4.554317474E0,-4.188786983E0,7.191227436E0,9.486911831E0
3.949250849E0,4.595017433E0,-4.174422741E0,7.176862717E0,9.489328158E0
3.951656162E0,4.583047390E0,-4.152875423E0,7.176862717E0,9.474072837E0
3.954062256E0,4.585441113E0,-4.157663822E0,7.191227436E0,9.488213251E0
3.956467985E0,4.606987953E0,-4.112175941E0,7.143345356E0,9.442547953E0
3.958873349E0,4.633323193E0,-4.128934383E0,7.205591679E0,9.509802016E0
3.961279079E0,4.640505791E0,-4.112175941E0,7.196015358E0,9.498785291E0
3.963684860E0,4.621352673E0,-4.126540661E0,7.181651115E0,9.484795786E0
3.966091162E0,4.666840553E0,-4.100205421E0,7.174468994E0,9.490210250E0
3.968496891E0,4.674022675E0,-4.078658581E0,7.155315876E0,9.469978303E0
3.970902151E0,4.666840553E0,-4.083446980E0,7.155315876E0,9.468499631E0
3.973308297E0,4.714722633E0,-4.054717541E0,7.138557434E0,9.467224835E0
3.975714131E0,4.702752113E0,-4.054717541E0,7.124192238E0,9.450435271E0
3.978119651E0,4.736268997E0,-4.042747021E0,7.095463276E0,9.440426187E0
3.980525433E0,4.743451595E0,-4.021200180E0,7.040399551E0,9.393487625E0
3.982931318E0,4.741057873E0,-3.987683058E0,7.052370071E0,9.386968070E0
3.985337516E0,4.745845795E0,-4.016412258E0,7.076310158E0,9.419595808E0
3.987743089E0,4.755422115E0,-3.997259378E0,7.117010593E0,9.446902234E0
3.990148297E0,4.748239517E0,-3.985288858E0,7.155315876E0,9.467145878E0
3.992554443E0,4.769786835E0,-3.975712538E0,7.164892197E0,9.481183303E0
3.994960329E0,4.772180557E0,-3.973318338E0,7.205591679E0,9.512177318E0
3.997365954E0,4.817668438E0,-3.939800978E0,7.241503239E0,9.548367927E0
3.999771839E0,4.798516273E0,-3.954165459E0,7.231926918E0,9.537397436E0
4.002177308E0,4.820062637E0,-3.927830458E0,7.246292114E0,9.548277611E0
4.004583193E0,4.822457314E0,-3.932618856E0,7.236715317E0,9.544193742E0
4.006988662E0,4.851186275E0,-3.927830458E0,7.248685837E0,9.565840619E0
4.009393610E0,4.858368874E0,-3.930224657E0,7.205591679E0,9.537870067E0
4.011799547E0,4.879915237E0,-3.966135979E0,7.172074318E0,9.538472485E0
4.014205172E0,4.870338917E0,-3.954165459E0,7.174468994E0,9.530405605E0
4.016610433E0,4.882309437E0,-3.963742018E0,7.263050556E0,9.607294083E0
4.019016162E0,4.894279957E0,-3.973318338E0,7.241503239E0,9.601073069E0
