"Time (s)","Acceleration x (m/s^2)","Acceleration y (m/s^2)","Acceleration z (m/s^2)","Absolute acceleration (m/s^2)"
2.330835300E-2,3.852846861E0,-1.751594663E0,8.871885300E0,9.829692852E0
2.576111400E-2,3.833693743E0,-1.746806502E0,8.862307549E0,9.812697680E0
2.821434300E-2,3.833693743E0,-1.734835982E0,8.869490623E0,9.817063080E0
3.066767600E-2,3.843270540E0,-1.722865462E0,8.871885300E0,9.820862621E0
3.312085300E-2,3.843270540E0,-1.713289022E0,8.871885300E0,9.819187160E0
3.557408200E-2,3.848058462E0,-1.715683222E0,8.869490623E0,9.819317021E0
3.802736400E-2,3.838482141E0,-1.715683222E0,8.857520103E0,9.804752748E0
4.048069700E-2,3.867211580E0,-1.710894942E0,8.840762138E0,9.800079699E0
4.293403000E-2,3.836087942E0,-1.701318622E0,8.819214821E0,9.766709057E0
4.538736400E-2,3.831300020E0,-1.698924422E0,8.812031746E0,9.757925370E0
4.784074900E-2,3.838482141E0,-1.713289022E0,8.826396942E0,9.776225622E0
5.029413500E-2,3.821723461E0,-1.701318622E0,8.852731705E0,9.791369358E0
5.274752000E-2,3.802570581E0,-1.686953902E0,8.850337982E0,9.779255539E0
5.520090500E-2,3.800176382E0,-1.706106782E0,8.838366508E0,9.770816927E0
5.765429100E-2,3.804964781E0,-1.689348102E0,8.812031746E0,9.745950825E0
6.010767600E-2,3.804964781E0,-1.684559941E0,8.816821098E0,9.749452983E0
6.256111400E-2,3.790600061E0,-1.691742182E0,8.807244301E0,9.736436340E0
6.501449900E-2,3.759476900E0,-1.696530461E0,8.807244301E0,9.725195851E0
6.746788500E-2,3.769053221E0,-1.710894942E0,8.824003220E0,9.746586916E0
6.992127000E-2,3.759476900E0,-1.710894942E0,8.816821098E0,9.736383433E0
7.237465500E-2,3.764265060E0,-1.734835982E0,8.816821098E0,9.742467942E0
7.482804100E-2,3.759476900E0,-1.744412303E0,8.828790665E0,9.753162843E0
7.728142600E-2,3.745112181E0,-1.749200583E0,8.838366508E0,9.757166108E0
7.973481200E-2,3.759476900E0,-1.768353343E0,8.840762138E0,9.768306675E0
8.218819700E-2,3.759476900E0,-1.758776903E0,8.850337982E0,9.775246552E0
8.464158200E-2,3.721171141E0,-1.785112023E0,8.785696983E0,9.706812612E0
8.709496800E-2,3.740324259E0,-1.768353343E0,8.795273781E0,9.719770573E0
8.954840500E-2,3.725959301E0,-1.777929664E0,8.895826340E0,9.807116440E0
9.200184300E-2,3.706806660E0,-1.775535703E0,8.958071709E0,9.855962225E0
9.445528000E-2,3.730747700E0,-1.785112023E0,8.941313744E0,9.851507235E0
9.690871800E-2,3.742718220E0,-1.782717943E0,8.931736946E0,9.846925805E0
9.936215500E-2,3.764265060E0,-1.792294383E0,8.914978981E0,9.841689938E0
1.018155930E-1,3.771447420E0,-1.749200583E0,8.934130669E0,9.854045318E0
1.042690300E-1,3.781023741E0,-1.773141623E0,8.910189629E0,9.840307463E0
1.067224680E-1,3.797782421E0,-1.761171103E0,8.919766426E0,9.853279051E0
1.091759050E-1,3.809752941E0,-1.765959263E0,8.903007507E0,9.843595495E0
1.116293430E-1,3.816935062E0,-1.763565183E0,8.888643265E0,9.832961635E0
1.140827800E-1,3.824117422E0,-1.792294383E0,8.917372704E0,9.866900686E0
1.165362180E-1,3.814541101E0,-1.770747423E0,8.917372704E0,9.859300492E0
1.189896550E-1,3.843270540E0,-1.777929664E0,8.931736946E0,9.884719885E0
1.214430930E-1,3.814541101E0,-1.763565183E0,8.941313744E0,9.879674966E0
1.238965300E-1,3.831300020E0,-1.761171103E0,8.953284264E0,9.896559129E0
1.263499680E-1,3.831300020E0,-1.768353343E0,8.960465431E0,9.904336128E0
1.288034050E-1,3.814541101E0,-1.782717943E0,8.965254784E0,9.904776646E0
1.312568430E-1,3.795388460E0,-1.773141623E0,8.948495865E0,9.880515322E0
1.337102800E-1,3.804964781E0,-1.775535703E0,8.946102142E0,9.882460602E0
1.361637180E-1,3.800176382E0,-1.787506223E0,8.936525345E0,9.874107771E0
1.386172070E-1,3.816935062E0,-1.787506223E0,8.931736946E0,9.876238993E0
1.410706450E-1,3.816935062E0,-1.777929664E0,8.931736946E0,9.874510217E0
1.435106450E-1,3.814541101E0,-1.794688463E0,8.931736946E0,9.876616595E0
1.459271030E-1,3.826511621E0,-1.804264784E0,8.903007507E0,9.857033290E0
1.483327800E-1,3.824117422E0,-1.794688463E0,8.838366508E0,9.795994246E0
1.507379370E-1,3.819329500E0,-1.809053063E0,8.931736946E0,9.881086767E0
1.531435620E-1,3.833693743E0,-1.794688463E0,8.888643265E0,9.845105052E0
1.555492390E-1,3.797782421E0,-1.816235304E0,8.699509621E0,9.664539805E0
1.579554370E-1,3.824117422E0,-1.840176344E0,9.142417908E0,1.007938134E1
1.603611140E-1,3.838482141E0,-1.804264784E0,8.522345543E0,9.519437489E0
1.627660620E-1,3.783417940E0,-1.828205824E0,9.027501106E0,9.957528010E0
1.651719470E-1,3.821723461E0,-1.801870704E0,8.764149666E0,9.729472114E0
1.675777800E-1,3.807358980E0,-1.832994103E0,8.680356979E0,9.654245029E0
1.699831970E-1,3.788206100E0,-1.861723185E0,9.053835869E0,9.989417531E0
1.723888740E-1,3.809752941E0,-1.821023583E0,8.467282295E0,9.461776463E0
1.747947600E-1,3.773841381E0,-1.849752665E0,9.029894829E0,9.960043389E0
1.772011140E-1,3.816935062E0,-1.813841224E0,8.656415939E0,9.632888984E0
1.796068430E-1,3.795388460E0,-1.830599904E0,8.740208626E0,9.702954004E0
1.820119470E-1,3.824117422E0,-1.823417544E0,9.049047470E0,9.991695838E0
1.844178320E-1,3.874393702E0,-1.811447024E0,8.522345543E0,9.535336409E0
1.868235100E-1,3.824117422E0,-1.852146864E0,9.065807343E0,1.001215186E1
1.892286660E-1,3.871999502E0,-1.811447024E0,8.646840096E0,9.645805519E0
1.916341350E-1,3.867211580E0,-1.821023583E0,8.756967545E0,9.744533487E0
1.940396030E-1,3.867211580E0,-1.818629503E0,8.955677986E0,9.923049273E0
1.964453850E-1,3.893546343E0,-1.811447024E0,8.481646538E0,9.506806585E0
1.988506450E-1,3.871999502E0,-1.837782264E0,9.039471626E0,1.000409272E1
2.012554370E-1,3.912698984E0,-1.816235304E0,8.534317017E0,9.562556717E0
2.036613220E-1,3.874393702E0,-1.823417544E0,8.756967545E0,9.747833537E0
2.060668430E-1,3.879182100E0,-1.816235304E0,8.864703178E0,9.845289579E0
2.084718430E-1,3.893546343E0,-1.821023583E0,8.450522423E0,9.480883885E0
2.108772600E-1,3.874393702E0,-1.852146864E0,9.025106430E0,9.994694624E0
2.132827280E-1,3.881575823E0,-1.849752665E0,8.464887619E0,9.494342431E0
2.156884050E-1,3.848058462E0,-1.861723185E0,8.768939018E0,9.755401511E0
2.180936660E-1,3.869605303E0,-1.856934905E0,8.807244301E0,9.797428470E0
2.204987180E-1,3.838482141E0,-1.859329104E0,8.474463463E0,9.487232518E0
2.229044470E-1,3.824117422E0,-1.876087785E0,9.010743141E0,9.966798452E0
2.253094470E-1,3.864817381E0,-1.856934905E0,8.464887619E0,9.488906314E0
2.277140300E-1,3.814541101E0,-1.849752665E0,8.876672745E0,9.837053815E0
2.301190820E-1,3.833693743E0,-1.840176344E0,8.812031746E0,9.784444807E0
2.325243950E-1,3.836087942E0,-1.854540944E0,8.551075935E0,9.553836531E0
2.349302800E-1,3.809752941E0,-1.864117384E0,9.072988510E0,1.001540172E1
2.373358530E-1,3.879182100E0,-1.844964623E0,8.479252815E0,9.505244686E0
2.397406970E-1,3.850452662E0,-1.828205824E0,8.946102142E0,9.909645088E0
2.421461660E-1,3.869605303E0,-1.804264784E0,8.766544342E0,9.750975147E0
2.445515300E-1,3.871999502E0,-1.821023583E0,8.596563339E0,9.602573003E0
2.469566350E-1,3.886364222E0,-1.794688463E0,9.065807343E0,1.002564693E1
2.493621550E-1,3.903122663E0,-1.780323863E0,8.536710739E0,9.554022704E0
2.517673640E-1,3.895940542E0,-1.789900184E0,9.041866302E0,1.000686972E1
2.541728320E-1,3.955793142E0,-1.758776903E0,8.788090706E0,9.796536829E0
2.565779890E-1,3.953398943E0,-1.761171103E0,8.742603302E0,9.755213957E0
2.589827280E-1,3.951004744E0,-1.746806502E0,9.199875832E0,1.016363551E1
2.613881970E-1,3.972551584E0,-1.710894942E0,8.618109703E0,9.642621140E0
2.637934050E-1,3.986916304E0,-1.734835982E0,9.195087433E0,1.017127280E1
2.661983530E-1,4.001281261E0,-1.701318622E0,8.843155861E0,9.854244891E0
2.686035620E-1,4.025222301E0,-1.691742182E0,8.857520103E0,9.875224988E0
2.710086660E-1,4.044374466E0,-1.677377582E0,9.185511589E0,1.017566624E1
2.734140300E-1,4.065921783E0,-1.670195341E0,8.620503426E0,9.676484472E0
2.758190300E-1,4.049163342E0,-1.679771662E0,9.199875832E0,1.019093087E1
2.782237180E-1,4.106621742E0,-1.636677980E0,8.752180099E0,9.805290074E0
2.806292390E-1,4.051557064E0,-1.653436542E0,8.859913826E0,9.881651686E0
2.830346550E-1,4.073104382E0,-1.627101541E0,9.108901024E0,1.010988213E1
2.854398120E-1,4.101833344E0,-1.607948661E0,8.567833900E0,9.634226145E0
2.878451240E-1,4.056344986E0,-1.634283781E0,9.161570549E0,1.015180738E1
2.902499680E-1,4.077892303E0,-1.588795900E0,8.670781136E0,9.712668199E0
2.926554370E-1,4.044374466E0,-1.624707460E0,8.879066467E0,9.891130395E0
2.950608530E-1,4.018039703E0,-1.617525101E0,9.049047470E0,1.003226249E1
2.974655930E-1,4.020433903E0,-1.579219580E0,8.565440178E0,9.592944735E0
2.998710100E-1,3.996492624E0,-1.605554700E0,9.168752670E0,1.012994495E1
3.022761660E-1,4.008463383E0,-1.562460780E0,8.632474899E0,9.645137908E0
3.046808010E-1,3.972551584E0,-1.600766420E0,8.903007507E0,9.879633692E0
3.070860100E-1,3.991704226E0,-1.567249060E0,8.946102142E0,9.920822334E0
3.094910620E-1,3.970157862E0,-1.569643259E0,8.591774940E0,9.593984054E0
3.118964780E-1,3.941428423E0,-1.564854980E0,9.175934792E0,1.010848200E1
3.143020510E-1,3.967763186E0,-1.543308139E0,8.586986542E0,9.584429173E0
3.167073120E-1,3.955793142E0,-1.572037220E0,8.950889587E0,9.911509714E0
3.191131450E-1,3.982128382E0,-1.564854980E0,8.919766426E0,9.892843406E0
3.215184570E-1,3.967763186E0,-1.560066819E0,8.586986542E0,9.587141964E0
3.239232490E-1,3.972551584E0,-1.550490379E0,9.140024185E0,1.008589255E1
3.263285100E-1,3.974945784E0,-1.526549339E0,8.529528618E0,9.533278833E0
3.287337180E-1,3.953398943E0,-1.528943419E0,8.972436905E0,9.923288527E0
3.311393950E-1,3.972551584E0,-1.516972899E0,8.833579063E0,9.803799872E0
3.335449160E-1,3.965369463E0,-1.516972899E0,8.618109703E0,9.607141958E0
3.359500720E-1,3.946216822E0,-1.533731699E0,9.113688469E0,1.004909337E1
3.383559570E-1,3.962975264E0,-1.538519859E0,8.527134895E0,9.528076712E0
3.407613220E-1,3.910305262E0,-1.531337619E0,9.058625221E0,9.984696943E0
3.431665300E-1,3.939034224E0,-1.516972899E0,8.816821098E0,9.775148678E0
3.455722600E-1,3.917487383E0,-1.521761179E0,8.709085464E0,9.670089664E0
3.479778320E-1,3.893546343E0,-1.526549339E0,9.125658989E0,1.003831201E1
3.503837700E-1,3.900728464E0,-1.514578938E0,8.541499138E0,9.511405755E0
3.527890300E-1,3.869605303E0,-1.536125779E0,9.125658989E0,1.003051243E1
3.551936660E-1,3.895940542E0,-1.516972899E0,8.816821098E0,9.757863176E0
3.575994470E-1,3.893546343E0,-1.538519859E0,8.780908585E0,9.727851872E0
3.600051240E-1,3.874393702E0,-1.536125779E0,9.130446434E0,1.003671565E1
3.624103850E-1,3.879182100E0,-1.526549339E0,8.584592819E0,9.543251046E0
3.648161140E-1,3.862423182E0,-1.560066819E0,9.178328514E0,1.007937675E1
3.672214260E-1,3.886364222E0,-1.528943419E0,8.795273781E0,9.736443690E0
3.696271030E-1,3.869605303E0,-1.557672739E0,8.886248589E0,9.816598369E0
3.720322600E-1,3.893546343E0,-1.555278540E0,9.159176826E0,1.007318791E1
3.744368950E-1,3.893546343E0,-1.536125779E0,8.615715981E0,9.578619284E0
3.768426240E-1,3.876787901E0,-1.557672739E0,9.257334709E0,1.015647944E1
3.792480410E-1,3.917487383E0,-1.567249060E0,8.776121140E0,9.737724543E0
3.816530930E-1,3.898334742E0,-1.564854980E0,8.972436905E0,9.907088819E0
3.840585100E-1,3.912698984E0,-1.569643259E0,9.094535828E0,1.002414960E1
3.864639780E-1,3.895940542E0,-1.581613660E0,8.651627541E0,9.619278225E0
3.888699160E-1,3.888757944E0,-1.591190100E0,9.238182068E0,1.014880940E1
3.912751240E-1,3.917487383E0,-1.560066819E0,8.697115898E0,9.665419847E0
3.936798120E-1,3.879182100E0,-1.619919181E0,8.972436905E0,9.908421465E0
3.960853850E-1,3.895940542E0,-1.607948661E0,9.056229591E0,9.988951197E0
3.984904890E-1,3.874393702E0,-1.595978260E0,8.642050743E0,9.604327889E0
4.008953320E-1,3.843270540E0,-1.622313380E0,9.211847305E0,1.011240624E1
4.033007490E-1,3.867211580E0,-1.612736940E0,8.603745461E0,9.569779611E0
4.057059570E-1,3.838482141E0,-1.643860221E0,8.979619026E0,9.903018703E0
4.081115300E-1,3.855241060E0,-1.615131140E0,8.929343224E0,9.859244527E0
4.105167390E-1,3.843270540E0,-1.651042581E0,8.625292778E0,9.586049528E0
4.129216870E-1,3.819329500E0,-1.658224821E0,9.183117867E0,1.008298771E1
4.153276760E-1,3.874393702E0,-1.670195341E0,8.579804420E0,9.561041937E0
4.177332490E-1,3.824117422E0,-1.672589421E0,9.017925262E0,9.937021962E0
4.201380410E-1,3.867211580E0,-1.689348102E0,8.895826340E0,9.846062598E0
4.225431970E-1,3.857634783E0,-1.715683222E0,8.673174858E0,9.646184591E0
4.249485620E-1,3.845664263E0,-1.713289022E0,9.161570549E0,1.008260223E1
4.273548120E-1,3.874393702E0,-1.710894942E0,8.522345543E0,9.516746377E0
4.297608530E-1,3.850452662E0,-1.739624262E0,9.039471626E0,9.978192499E0
4.321663220E-1,3.903122663E0,-1.739624262E0,8.843155861E0,9.821510305E0
4.345724160E-1,3.874393702E0,-1.751594663E0,8.704298019E0,9.687301710E0
4.369778850E-1,3.891152620E0,-1.756382823E0,9.130446434E0,1.007923615E1
4.393827280E-1,3.881575823E0,-1.737230062E0,8.524740219E0,9.526583593E0
4.417880410E-1,3.881575823E0,-1.780323863E0,9.106506348E0,1.005806352E1
4.441934570E-1,3.915093184E0,-1.758776903E0,8.761755943E0,9.756516696E0
4.465991350E-1,3.876787901E0,-1.777929664E0,8.756967545E0,9.740379813E0
4.490044470E-1,3.891152620E0,-1.809053063E0,9.101717949E0,1.006255491E1
4.514094470E-1,3.893546343E0,-1.792294383E0,8.534317017E0,9.550214093E0
4.538153850E-1,3.891152620E0,-1.813841224E0,9.135235786E0,1.009374170E1
4.562208530E-1,3.900728464E0,-1.806658983E0,8.697115898E0,9.701521745E0
4.586257490E-1,3.886364222E0,-1.847358584E0,8.790484428E0,9.787194546E0
4.610311140E-1,3.900728464E0,-1.828205824E0,9.084959984E0,1.005457692E1
4.634363740E-1,3.900728464E0,-1.840176344E0,8.529528618E0,9.557969971E0
4.658422070E-1,3.869605303E0,-1.861723185E0,9.128052711E0,1.008767588E1
4.682477800E-1,3.903122663E0,-1.864117384E0,8.625292778E0,9.649091960E0
4.706525720E-1,3.881575823E0,-1.871299624E0,8.807244301E0,9.804893948E0
4.730581450E-1,3.898334742E0,-1.866511464E0,9.008347511E0,9.991556620E0
4.754637180E-1,3.893546343E0,-1.859329104E0,8.539104462E0,9.567293915E0
4.778691870E-1,3.852846861E0,-1.890452504E0,9.128052711E0,1.008660428E1
4.802749680E-1,3.879182100E0,-1.890452504E0,8.598958015E0,9.621015715E0
4.826802800E-1,3.843270540E0,-1.902422786E0,8.883854866E0,9.864725956E0
4.850861140E-1,3.845664263E0,-1.921575665E0,8.931736946E0,9.912492700E0
4.874915300E-1,3.867211580E0,-1.909605265E0,8.570227623E0,9.594306603E0
4.898964780E-1,3.840876341E0,-1.931152105E0,9.151993752E0,1.011141282E1
4.923022600E-1,3.852846861E0,-1.919181585E0,8.591774940E0,9.609697369E0
4.947077800E-1,3.824117422E0,-1.962275386E0,8.938920021E0,9.918603223E0
4.971131450E-1,3.850452662E0,-1.943122625E0,8.883854866E0,9.875453839E0
4.995191350E-1,3.824117422E0,-1.959881186E0,8.596563339E0,9.610718473E0
5.019250720E-1,3.819329500E0,-1.986216307E0,9.163965225E0,1.012475144E1
5.043309570E-1,3.836087942E0,-1.967063546E0,8.546286583E0,9.572038657E0
5.067363740E-1,3.821723461E0,-1.988610506E0,8.998771667E0,9.976874936E0
5.091413220E-1,3.860028982E0,-1.986216307E0,8.840762138E0,9.849058541E0
5.115469990E-1,3.871999502E0,-1.964669466E0,8.639657021E0,9.669331915E0
5.139526240E-1,3.816935062E0,-1.993398666E0,9.096929550E0,1.006462909E1
5.163577280E-1,3.857634783E0,-1.967063546E0,8.496010780E0,9.535873546E0
5.187628320E-1,3.819329500E0,-1.988610506E0,9.013136864E0,9.988918145E0
5.211677800E-1,3.824117422E0,-1.974245787E0,8.744997978E0,9.746615316E0
5.235731450E-1,3.802570581E0,-1.986216307E0,8.639657021E0,9.646153206E0
5.259781970E-1,3.816935062E0,-1.988610506E0,9.037077904E0,1.000961248E1
5.283826760E-1,3.824117422E0,-1.974245787E0,8.455311775E0,9.487561209E0
5.307882490E-1,3.802570581E0,-1.993398666E0,9.017925262E0,9.987800424E0
5.331938220E-1,3.814541101E0,-1.991004586E0,8.682750702E0,9.690458339E0
5.355989260E-1,3.778629780E0,-1.969457746E0,8.658809662E0,9.650481417E0
5.380044470E-1,3.766659260E0,-1.993398666E0,8.996377945E0,9.954706241E0
5.404099160E-1,3.781023741E0,-1.974245787E0,8.426582336E0,9.444632170E0
5.428155930E-1,3.778629780E0,-1.995792747E0,8.998771667E0,9.961883518E0
5.452210620E-1,3.792994261E0,-1.957487226E0,8.594168663E0,9.595743677E0
5.476261140E-1,3.773841381E0,-1.986216307E0,8.701904297E0,9.690720942E0
5.500317390E-1,3.788206100E0,-1.964669466E0,8.984406471E0,9.946355675E0
5.524370510E-1,3.790600061E0,-1.933546185E0,8.426582336E0,9.440049764E0
5.548423120E-1,3.788206100E0,-1.947910786E0,9.029894829E0,9.984180613E0
5.572481450E-1,3.833693743E0,-1.909605265E0,8.534317017E0,9.548736404E0
5.596534050E-1,3.809752941E0,-1.923969865E0,8.766544342E0,9.750291135E0
5.620587700E-1,3.821723461E0,-1.909605265E0,8.922161102E0,9.892275836E0
5.644638740E-1,3.843270540E0,-1.868905425E0,8.462493896E0,9.480365968E0
5.668684570E-1,3.824117422E0,-1.890452504E0,9.046653748E0,1.000198124E1
5.692737700E-1,3.864817381E0,-1.849752665E0,8.531923294E0,9.547361594E0
5.716791870E-1,3.850452662E0,-1.852146864E0,8.831185341E0,9.810518245E0
5.740842390E-1,3.881575823E0,-1.842570424E0,8.862307549E0,9.848969069E0
5.764898120E-1,3.867211580E0,-1.842570424E0,8.448128700E0,9.472131213E0
5.788952280E-1,3.850452662E0,-1.828205824E0,9.049047470E0,1.000267876E1
5.813005930E-1,3.876787901E0,-1.804264784E0,8.479252815E0,9.496451134E0
5.837059570E-1,3.843270540E0,-1.813841224E0,8.857520103E0,9.824276605E0
5.861110100E-1,3.867211580E0,-1.792294383E0,8.838366508E0,9.812459788E0
5.885168430E-1,3.864817381E0,-1.794688463E0,8.541499138E0,9.545413956E0
5.909224160E-1,3.860028982E0,-1.801870704E0,9.084959984E0,1.003409486E1
5.933273640E-1,3.867211580E0,-1.768353343E0,8.476859093E0,9.483645872E0
5.957327800E-1,3.840876341E0,-1.780323863E0,8.934130669E0,9.886383309E0
5.981381970E-1,3.883970022E0,-1.758776903E0,8.826396942E0,9.802234557E0
6.005438740E-1,3.881575823E0,-1.753988862E0,8.596563339E0,9.593956902E0
6.029490820E-1,3.864817381E0,-1.753988862E0,9.072988510E0,1.001660675E1
6.053537700E-1,3.883970022E0,-1.734835982E0,8.507982254E0,9.512131257E0
6.077593430E-1,3.874393702E0,-1.739624262E0,8.982012749E0,9.935480469E0
6.101647070E-1,3.912698984E0,-1.742018342E0,8.766544342E0,9.756850975E0
6.125698120E-1,3.905516863E0,-1.742018342E0,8.649233818E0,9.648675324E0
6.149754370E-1,3.905516863E0,-1.722865462E0,9.068201065E0,1.002265424E1
6.173810100E-1,3.951004744E0,-1.682165861E0,8.467282295E0,9.493944909E0
6.197870510E-1,3.912698984E0,-1.713289022E0,9.027501106E0,9.987009004E0
6.221928320E-1,3.941428423E0,-1.691742182E0,8.704298019E0,9.703692783E0
6.245980410E-1,3.951004744E0,-1.701318622E0,8.704298019E0,9.709259887E0
6.270040820E-1,3.962975264E0,-1.679771662E0,9.075383186E0,1.004437085E1
6.294094990E-1,3.991704226E0,-1.655830741E0,8.515163422E0,9.549004459E0
6.318141870E-1,3.967763186E0,-1.658224821E0,9.111294746E0,1.007514497E1
6.342194990E-1,3.998886824E0,-1.653436542E0,8.716267586E0,9.731303554E0
6.366248640E-1,3.989310503E0,-1.636677980E0,8.833579063E0,9.829823608E0
6.390306970E-1,4.025222301E0,-1.631889701E0,9.099324226E0,1.008281607E1
6.414361140E-1,4.046769142E0,-1.610342860E0,8.579804420E0,9.621984645E0
6.438409570E-1,4.044374466E0,-1.631889701E0,9.178328514E0,1.016177854E1
6.462464260E-1,4.094651222E0,-1.598372340E0,8.713873863E0,9.759741824E0
6.486514260E-1,4.070710182E0,-1.607948661E0,8.979619026E0,9.989481375E0
6.510562180E-1,4.092256546E0,-1.595978260E0,8.864703178E0,9.893264006E0
6.534614260E-1,4.113803864E0,-1.574431300E0,8.862307549E0,9.896600994E0
6.558667390E-1,4.092256546E0,-1.584007740E0,8.833579063E0,9.863455948E0
6.582724160E-1,4.094651222E0,-1.557672739E0,8.869490623E0,9.892440392E0
6.606776240E-1,4.106621742E0,-1.569643259E0,8.840762138E0,9.873560517E0
6.630823640E-1,4.099439144E0,-1.569643259E0,8.840762138E0,9.870575284E0
6.654877800E-1,4.104227066E0,-1.567249060E0,8.814425468E0,9.848606285E0
6.678927280E-1,4.092256546E0,-1.564854980E0,8.812031746E0,9.841099442E0
6.702974160E-1,4.063527584E0,-1.557672739E0,8.826396942E0,9.840929009E0
6.727025720E-1,4.080286026E0,-1.560066819E0,8.795273781E0,9.820355565E0
6.751078320E-1,4.080286026E0,-1.560066819E0,8.795273781E0,9.820355565E0
6.775137700E-1,4.070710182E0,-1.548096299E0,8.800062180E0,9.818776803E0
6.799194990E-1,4.032403946E0,-1.576825500E0,8.780908585E0,9.790353201E0
6.823244470E-1,4.020433903E0,-1.579219580E0,8.792880058E0,9.796558731E0
6.847300720E-1,4.015645504E0,-1.567249060E0,8.756967545E0,9.760438464E0
6.871351240E-1,4.022828102E0,-1.567249060E0,8.752180099E0,9.759102010E0
6.895398640E-1,4.001281261E0,-1.579219580E0,8.776121140E0,9.773663002E0
6.919453320E-1,4.001281261E0,-1.564854980E0,8.768939018E0,9.764902168E0
6.943505930E-1,3.998886824E0,-1.581613660E0,8.744997978E0,9.745131463E0
6.967560620E-1,3.994098425E0,-1.581613660E0,8.759362221E0,9.756062244E0
6.991611140E-1,3.982128382E0,-1.595978260E0,8.764149666E0,9.757807767E0
7.015659050E-1,3.974945784E0,-1.581613660E0,8.756967545E0,9.746085180E0
7.039715820E-1,3.974945784E0,-1.581613660E0,8.759362221E0,9.748236880E0
7.063765820E-1,3.962975264E0,-1.603160620E0,8.761755943E0,9.749034010E0
7.087812180E-1,3.951004744E0,-1.586401820E0,8.778514862E0,9.756507183E0
7.111867390E-1,3.960581064E0,-1.595978260E0,8.821608543E0,9.800720701E0
7.135925200E-1,3.982128382E0,-1.610342860E0,8.850337982E0,9.837633505E0
7.159984570E-1,3.982128382E0,-1.619919181E0,8.840762138E0,9.830593054E0
7.184039780E-1,3.962975264E0,-1.610342860E0,8.855125427E0,9.834206801E0
7.208090820E-1,3.977339983E0,-1.581613660E0,8.859913826E0,9.839654878E0
7.232146550E-1,3.994098425E0,-1.617525101E0,8.857520103E0,9.850120409E0
7.256198120E-1,3.998886824E0,-1.605554700E0,8.852731705E0,9.845799122E0
7.280246030E-1,4.008463383E0,-1.622313380E0,8.857520103E0,9.856740931E0
7.304299160E-1,4.018039703E0,-1.607948661E0,8.843155861E0,9.845382041E0
7.328352800E-1,3.996492624E0,-1.631889701E0,8.855125427E0,9.851307711E0
7.352406450E-1,3.984522104E0,-1.646254301E0,8.850337982E0,9.844544277E0
7.376455410E-1,4.001281261E0,-1.636677980E0,8.859913826E0,9.858348723E0
7.400502280E-1,4.001281261E0,-1.643860221E0,8.859913826E0,9.859543659E0
7.424555410E-1,4.003674984E0,-1.641466022E0,8.850337982E0,9.851512903E0
7.448603850E-1,3.974945784E0,-1.667801261E0,8.843155861E0,9.837843291E0
7.472648640E-1,3.977339983E0,-1.667801261E0,8.857520103E0,9.851723543E0
7.496699160E-1,3.960581064E0,-1.663012981E0,8.840762138E0,9.829083870E0
7.520751240E-1,3.948610544E0,-1.694136381E0,8.845549583E0,9.833888892E0
7.544805930E-1,3.927063704E0,-1.691742182E0,8.840762138E0,9.820534412E0
7.568857490E-1,3.943822622E0,-1.701318622E0,8.852731705E0,9.839668722E0
7.592905930E-1,3.939034224E0,-1.715683222E0,8.831185341E0,9.820865240E0
7.616964260E-1,3.931852102E0,-1.703712702E0,8.843155861E0,9.826673064E0
7.641018430E-1,3.924669504E0,-1.730047822E0,8.833579063E0,9.819786925E0
7.665068430E-1,3.931852102E0,-1.732441783E0,8.824003220E0,9.814471372E0
7.689122600E-1,3.931852102E0,-1.749200583E0,8.831185341E0,9.823899336E0
7.713176240E-1,3.936640024E0,-1.734835982E0,8.814425468E0,9.808205081E0
7.737236140E-1,3.941428423E0,-1.744412303E0,8.800062180E0,9.798924771E0
7.761293430E-1,3.936640024E0,-1.763565183E0,8.800062180E0,9.800428113E0
7.785346030E-1,3.924669504E0,-1.765959263E0,8.797667503E0,9.793906082E0
7.809402800E-1,3.934246302E0,-1.761171103E0,8.790484428E0,9.790435848E0
7.833455410E-1,3.960581064E0,-1.756382823E0,8.761755943E0,9.774428382E0
7.857504370E-1,3.931852102E0,-1.758776903E0,8.771332741E0,9.771849119E0
7.881554890E-1,3.943822622E0,-1.770747423E0,8.776121140E0,9.783127596E0
7.905605930E-1,3.951004744E0,-1.787506223E0,8.752180099E0,9.767613499E0
7.929661140E-1,3.943822622E0,-1.780323863E0,8.761755943E0,9.771983276E0
7.953714780E-1,3.910305262E0,-1.787506223E0,8.742603302E0,9.742626865E0
7.977765300E-1,3.939034224E0,-1.794688463E0,8.728239059E0,9.742641037E0
8.001819470E-1,3.939034224E0,-1.797082543E0,8.742603302E0,9.755952479E0
8.025867390E-1,3.934246302E0,-1.806658983E0,8.744997978E0,9.757935247E0
8.049914260E-1,3.936640024E0,-1.797082543E0,8.728239059E0,9.742114628E0
8.073966350E-1,3.936640024E0,-1.809053063E0,8.721056938E0,9.737897195E0
8.098017910E-1,3.951004744E0,-1.804264784E0,8.721056938E0,9.742825258E0
8.122071550E-1,3.948610544E0,-1.847358584E0,8.728239059E0,9.756352600E0
8.146124160E-1,3.934246302E0,-1.816235304E0,8.730632782E0,9.746843254E0
8.170175200E-1,3.951004744E0,-1.818629503E0,8.725845337E0,9.749780951E0
8.194233010E-1,3.955793142E0,-1.840176344E0,8.721056938E0,9.751481040E0
8.218286140E-1,3.922275782E0,-1.823417544E0,8.728239059E0,9.741214294E0
8.242336660E-1,3.927063704E0,-1.840176344E0,8.747391701E0,9.763449179E0
8.266392390E-1,3.929457903E0,-1.854540944E0,8.754573822E0,9.773562520E0
8.290447600E-1,3.939034224E0,-1.844964623E0,8.780908585E0,9.799195918E0
8.314506450E-1,3.922275782E0,-1.864117384E0,8.754573822E0,9.772499360E0
8.338560620E-1,3.927063704E0,-1.852146864E0,8.764149666E0,9.780725776E0
8.362608530E-1,3.924669504E0,-1.864117384E0,8.749785423E0,9.769171372E0
8.386663740E-1,3.929457903E0,-1.861723185E0,8.766544342E0,9.785650327E0
8.410716870E-1,3.931852102E0,-1.856934905E0,8.773726463E0,9.792136858E0
8.434763740E-1,3.951004744E0,-1.885664225E0,8.768939018E0,9.801043799E0
8.458812700E-1,3.958187342E0,-1.876087785E0,8.780908585E0,9.812813459E0
8.482862180E-1,3.946216822E0,-1.873693705E0,8.776121140E0,9.803247297E0
8.506915820E-1,3.934246302E0,-1.890452504E0,8.788090706E0,9.812371930E0
8.530967910E-1,3.915093184E0,-1.868905425E0,8.764149666E0,9.779114555E0
8.555013740E-1,3.917487383E0,-1.868905425E0,8.759362221E0,9.775783416E0
8.579065820E-1,3.929457903E0,-1.856934905E0,8.773726463E0,9.791175757E0
8.603116350E-1,3.907911062E0,-1.883270025E0,8.768939018E0,9.783290160E0
8.627162700E-1,3.905516863E0,-1.888058305E0,8.756967545E0,9.772528163E0
8.651213740E-1,3.907911062E0,-1.866511464E0,8.778514862E0,9.788664725E0
8.675265300E-1,3.898334742E0,-1.861723185E0,8.788090706E0,9.792525988E0
8.699323640E-1,3.905516863E0,-1.864117384E0,8.807244301E0,9.813029490E0
8.723378320E-1,3.891152620E0,-1.871299624E0,8.835972786E0,9.834492670E0
8.747426760E-1,3.895940542E0,-1.847358584E0,8.845549583E0,9.840469190E0
8.771481970E-1,3.917487383E0,-1.856934905E0,8.838366508E0,9.844370837E0
8.795533530E-1,3.919881582E0,-1.854540944E0,8.838366508E0,9.844872588E0
8.819581450E-1,3.927063704E0,-1.840176344E0,8.824003220E0,9.832146822E0
8.843633530E-1,3.934246302E0,-1.840176344E0,8.824003220E0,9.835017832E0
8.867686140E-1,3.939034224E0,-1.828205824E0,8.814425468E0,9.826109275E0
8.891741350E-1,3.962975264E0,-1.823417544E0,8.840762138E0,9.858453209E0
8.915795510E-1,3.974945784E0,-1.801870704E0,8.824003220E0,9.844285898E0
8.939847070E-1,3.979733706E0,-1.816235304E0,8.833579063E0,9.857439329E0
8.963906450E-1,3.974945784E0,-1.799476743E0,8.831185341E0,9.850286547E0
8.987964780E-1,3.984522104E0,-1.811447024E0,8.845549583E0,9.869220038E0
9.012019470E-1,4.006069183E0,-1.801870704E0,8.838366508E0,9.869754347E0
9.036076760E-1,3.991704226E0,-1.785112023E0,8.843155861E0,9.865177806E0
9.060134050E-1,3.979733706E0,-1.780323863E0,8.826396942E0,9.844445967E0
9.084194470E-1,4.003674984E0,-1.777929664E0,8.835972786E0,9.862294983E0
9.108249680E-1,3.991704226E0,-1.785112023E0,8.843155861E0,9.865177806E0
9.132298640E-1,4.018039703E0,-1.775535703E0,8.833579063E0,9.865560763E0
9.156354370E-1,4.001281261E0,-1.763565183E0,8.855125427E0,9.875913133E0
9.180407490E-1,4.001281261E0,-1.751594663E0,8.833579063E0,9.854463692E0
9.204456970E-1,4.018039703E0,-1.770747423E0,8.802455902E0,9.836839909E0
9.228509570E-1,4.015645504E0,-1.749200583E0,8.812031746E0,9.840580013E0
9.252563220E-1,4.018039703E0,-1.756382823E0,8.776121140E0,9.810699564E0
9.276618950E-1,4.006069183E0,-1.734835982E0,8.780908585E0,9.806253197E0
9.300668950E-1,4.015645504E0,-1.753988862E0,8.783303261E0,9.815717086E0
9.324715820E-1,3.996492624E0,-1.768353343E0,8.754573822E0,9.784763137E0
9.348774160E-1,3.984522104E0,-1.749200583E0,8.754573822E0,9.776435029E0
9.372829890E-1,3.977339983E0,-1.739624262E0,8.735421181E0,9.754645515E0
9.396881450E-1,3.962975264E0,-1.746806502E0,8.744997978E0,9.758662589E0
9.420935620E-1,3.967763186E0,-1.744412303E0,8.723450661E0,9.740878318E0
9.444992390E-1,3.970157862E0,-1.749200583E0,8.742603302E0,9.759865195E0
9.469055410E-1,3.955793142E0,-1.746806502E0,8.749785423E0,9.760039820E0
9.493113220E-1,3.941428423E0,-1.751594663E0,8.768939018E0,9.772268589E0
9.517166350E-1,3.958187342E0,-1.751594663E0,8.742603302E0,9.755431482E0
9.541226760E-1,3.955793142E0,-1.730047822E0,8.752180099E0,9.759201881E0
9.565285100E-1,3.967763186E0,-1.732441783E0,8.747391701E0,9.760192662E0
9.589338220E-1,3.953398943E0,-1.734835982E0,8.742603302E0,9.750493915E0
9.613394990E-1,3.996492624E0,-1.720471382E0,8.766544342E0,9.786944098E0
9.637450720E-1,3.998886824E0,-1.698924422E0,8.778514862E0,9.794884543E0
9.661510620E-1,3.991704226E0,-1.718077302E0,8.788090706E0,9.803878339E0
9.685568430E-1,4.022828102E0,-1.715683222E0,8.773726463E0,9.803315302E0
9.709621030E-1,4.020433903E0,-1.715683222E0,8.792880058E0,9.819480506E0
9.733679890E-1,4.032403946E0,-1.710894942E0,8.783303261E0,9.814981368E0
9.757732490E-1,4.041980743E0,-1.691742182E0,8.780908585E0,9.813457877E0
9.781781970E-1,4.039586544E0,-1.686953902E0,8.780908585E0,9.811647593E0
9.805836660E-1,4.034798622E0,-1.691742182E0,8.809638023E0,9.836224562E0
9.829892390E-1,4.039586544E0,-1.698924422E0,8.816821098E0,9.845858922E0
9.853951760E-1,4.053951263E0,-1.698924422E0,8.824003220E0,9.858189380E0
9.878004370E-1,4.039586544E0,-1.670195341E0,8.833579063E0,9.855959162E0
9.902049160E-1,4.034798622E0,-1.672589421E0,8.828790665E0,9.850111669E0
9.926104370E-1,4.049163342E0,-1.672589421E0,8.881461143E0,9.903213175E0
9.950158010E-1,4.034798622E0,-1.677377582E0,8.852731705E0,9.872388470E0
9.974206450E-1,4.058739662E0,-1.663012981E0,8.864703178E0,9.890497574E0
9.998260100E-1,4.061133862E0,-1.677377582E0,8.874279022E0,9.902486150E0
1.002231635E0,4.025222301E0,-1.670195341E0,8.879066467E0,9.890894216E0
1.004637364E0,4.046769142E0,-1.658224821E0,8.898220062E0,9.914856041E0
1.007042676E0,4.018039703E0,-1.663012981E0,8.926948547E0,9.929786785E0
1.009447728E0,4.030010223E0,-1.674983501E0,8.917372704E0,9.928045531E0
1.011853405E0,4.044374466E0,-1.686953902E0,8.891037941E0,9.912281975E0
1.014258770E0,4.065921783E0,-1.665407062E0,8.883854866E0,9.911012961E0
1.016663666E0,4.065921783E0,-1.679771662E0,8.855125427E0,9.887699384E0
1.019069082E0,4.068315506E0,-1.670195341E0,8.838366508E0,9.872054805E0
1.021474395E0,4.053951263E0,-1.682165861E0,8.831185341E0,9.861746162E0
1.023879812E0,4.053951263E0,-1.682165861E0,8.824003220E0,9.855315096E0
1.026285124E0,4.044374466E0,-1.684559941E0,8.819214821E0,9.847500042E0
1.028690385E0,4.041980743E0,-1.703712702E0,8.802455902E0,9.834809363E0
1.031096374E0,4.030010223E0,-1.701318622E0,8.792880058E0,9.820906637E0
1.033501687E0,4.020433903E0,-1.698924422E0,8.788090706E0,9.812276556E0
1.035906478E0,4.008463383E0,-1.720471382E0,8.776121140E0,9.800413396E0
1.038311895E0,3.989310503E0,-1.737230062E0,8.790484428E0,9.808424087E0
1.040717468E0,3.991704226E0,-1.727653742E0,8.797667503E0,9.814145076E0
1.043123145E0,3.972551584E0,-1.732441783E0,8.766544342E0,9.779305718E0
1.045528301E0,3.970157862E0,-1.753988862E0,8.783303261E0,9.797195851E0
1.047933093E0,3.958187342E0,-1.739624262E0,8.756967545E0,9.766167118E0
1.050338510E0,3.958187342E0,-1.737230062E0,8.744997978E0,9.755009224E0
1.052743510E0,3.948610544E0,-1.737230062E0,8.733026505E0,9.740392469E0
1.055148510E0,3.951004744E0,-1.737230062E0,8.744997978E0,9.752097026E0
1.057554187E0,3.962975264E0,-1.737230062E0,8.716267586E0,9.731210709E0
1.059959655E0,3.967763186E0,-1.749200583E0,8.711480141E0,9.731019146E0
1.062365749E0,3.974945784E0,-1.751594663E0,8.709085464E0,9.732237537E0
1.064771478E0,3.970157862E0,-1.758776903E0,8.685144424E0,9.710158769E0
1.067176374E0,3.974945784E0,-1.730047822E0,8.728239059E0,9.745533158E0
1.069581999E0,3.982128382E0,-1.744412303E0,8.730632782E0,9.753167153E0
1.071987051E0,3.984522104E0,-1.734835982E0,8.723450661E0,9.746007578E0
1.074391791E0,3.986916304E0,-1.746806502E0,8.740208626E0,9.764122152E0
1.076797155E0,3.982128382E0,-1.746806502E0,8.716267586E0,9.740739193E0
1.079202572E0,3.958187342E0,-1.730047822E0,8.721056938E0,9.732273456E0
1.081608405E0,3.984522104E0,-1.732441783E0,8.737814903E0,9.758441485E0
1.084013562E0,3.970157862E0,-1.725259542E0,8.752180099E0,9.764186112E0
1.086418562E0,4.003674984E0,-1.734835982E0,8.766544342E0,9.792413848E0
1.088824395E0,3.979733706E0,-1.730047822E0,8.754573822E0,9.771075101E0
1.091229812E0,3.991704226E0,-1.722865462E0,8.752180099E0,9.772544424E0
1.093634864E0,3.989310503E0,-1.715683222E0,8.776121140E0,9.791755178E0
1.096040437E0,4.001281261E0,-1.715683222E0,8.764149666E0,9.785915390E0
1.098446010E0,4.018039703E0,-1.722865462E0,8.764149666E0,9.794040424E0
1.100851739E0,3.998886824E0,-1.730047822E0,8.756967545E0,9.781034806E0
1.103256739E0,4.001281261E0,-1.727653742E0,8.744997978E0,9.770876564E0
1.105661582E0,4.003674984E0,-1.737230062E0,8.744997978E0,9.773554691E0
1.108067676E0,4.003674984E0,-1.727653742E0,8.761755943E0,9.786856903E0
1.110473510E0,3.998886824E0,-1.742018342E0,8.756967545E0,9.783159219E0
1.112878770E0,3.984522104E0,-1.739624262E0,8.740208626E0,9.761862312E0
1.115284291E0,3.972551584E0,-1.753988862E0,8.752180099E0,9.770276327E0
1.117689916E0,3.974945784E0,-1.742018342E0,8.735421181E0,9.754096836E0
1.120096114E0,3.962975264E0,-1.749200583E0,8.737814903E0,9.752655274E0
1.122501635E0,3.965369463E0,-1.753988862E0,8.754573822E0,9.769503299E0
1.124906478E0,3.948610544E0,-1.756382823E0,8.752180099E0,9.760996995E0
1.127312051E0,3.960581064E0,-1.758776903E0,8.761755943E0,9.774858862E0
1.129717103E0,3.951004744E0,-1.756382823E0,8.776121140E0,9.783436071E0
1.132121895E0,3.951004744E0,-1.765959263E0,8.776121140E0,9.785159828E0
1.134527051E0,3.958187342E0,-1.773141623E0,8.804849625E0,9.815123797E0
1.136932312E0,3.951004744E0,-1.763565183E0,8.809638023E0,9.814801207E0
1.139338405E0,3.941428423E0,-1.773141623E0,8.812031746E0,9.814825150E0
1.141743874E0,3.943822622E0,-1.770747423E0,8.802455902E0,9.806758548E0
1.144148926E0,3.965369463E0,-1.756382823E0,8.826396942E0,9.834343831E0
1.146554812E0,3.965369463E0,-1.780323863E0,8.833579063E0,9.845091523E0
1.148960020E0,3.953398943E0,-1.744412303E0,8.833579063E0,9.833842410E0
1.151364655E0,3.979733706E0,-1.761171103E0,8.809638023E0,9.825972019E0
1.153769655E0,3.984522104E0,-1.753988862E0,8.824003220E0,9.839508430E0
1.156174916E0,3.998886824E0,-1.749200583E0,8.840762138E0,9.859506767E0
1.158580541E0,3.974945784E0,-1.737230062E0,8.871885300E0,9.875652436E0
1.160985853E0,4.001281261E0,-1.749200583E0,8.867096901E0,9.884096411E0
1.163391062E0,4.001281261E0,-1.725259542E0,8.874279022E0,9.886334022E0
1.165796947E0,4.008463383E0,-1.722865462E0,8.864703178E0,9.880233121E0
1.168202416E0,3.986916304E0,-1.725259542E0,8.886248589E0,9.891280811E0
1.170607520E0,3.998886824E0,-1.708500981E0,8.857520103E0,9.867407654E0
1.173013249E0,4.018039703E0,-1.710894942E0,8.816821098E0,9.839112706E0
1.175418926E0,4.013251781E0,-1.715683222E0,8.826396942E0,9.846575128E0
1.177824864E0,4.008463383E0,-1.725259542E0,8.790484428E0,9.814118181E0
1.180230385E0,4.030010223E0,-1.691742182E0,8.812031746E0,9.836405721E0
1.182635645E0,4.015645504E0,-1.732441783E0,8.780908585E0,9.809746119E0
1.185041478E0,4.018039703E0,-1.720471382E0,8.800062180E0,9.825770158E0
1.187446582E0,4.001281261E0,-1.706106782E0,8.802455902E0,9.818568225E0
1.189851739E0,3.991704226E0,-1.691742182E0,8.764149666E0,9.777832766E0
1.192257260E0,3.972551584E0,-1.701318622E0,8.742603302E0,9.752372206E0
1.194662416E0,3.984522104E0,-1.706106782E0,8.752180099E0,9.766671554E0
1.197067885E0,3.958187342E0,-1.725259542E0,8.747391701E0,9.755030963E0
1.199472989E0,3.970157862E0,-1.718077302E0,8.737814903E0,9.750043710E0
1.201877624E0,3.960581064E0,-1.708500981E0,8.718662262E0,9.727294054E0
1.204282780E0,3.986916304E0,-1.713289022E0,8.735421181E0,9.753893791E0
1.206687624E0,3.958187342E0,-1.691742182E0,8.754573822E0,9.755603592E0
1.209092260E0,3.946216822E0,-1.715683222E0,8.759362221E0,9.759232687E0
1.211497468E0,3.958187342E0,-1.706106782E0,8.771332741E0,9.773143068E0
1.213902728E0,3.955793142E0,-1.694136381E0,8.759362221E0,9.759345469E0
1.216308249E0,3.967763186E0,-1.708500981E0,8.764149666E0,9.770999932E0
1.218713301E0,3.965369463E0,-1.691742182E0,8.790484428E0,9.790748852E0
1.221117832E0,3.953398943E0,-1.679771662E0,8.776121140E0,9.770941525E0
1.223523301E0,3.984522104E0,-1.715683222E0,8.783303261E0,9.796244254E0
1.225928614E0,3.996492624E0,-1.684559941E0,8.809638023E0,9.819338959E0
1.228333614E0,3.986916304E0,-1.686953902E0,8.816821098E0,9.822303669E0
1.230738926E0,3.979733706E0,-1.696530461E0,8.867096901E0,9.866200050E0
1.233144343E0,4.008463383E0,-1.710894942E0,8.867096901E0,9.880300990E0
1.235550124E0,4.003674984E0,-1.706106782E0,8.893431664E0,9.901178742E0
1.237955437E0,3.979733706E0,-1.696530461E0,8.891037941E0,9.887722268E0
1.240360437E0,3.986916304E0,-1.691742182E0,8.917372704E0,9.913477148E0
1.242766010E0,4.008463383E0,-1.720471382E0,8.895826340E0,9.907750841E0
1.245170905E0,3.998886824E0,-1.708500981E0,8.905402184E0,9.910411671E0
1.247575593E0,4.006069183E0,-1.722865462E0,8.879066467E0,9.892152295E0
1.249981010E0,4.018039703E0,-1.708500981E0,8.821608543E0,9.842987146E0
1.252386114E0,3.991704226E0,-1.732441783E0,8.977225304E0,9.976253370E0
1.254791739E0,4.015645504E0,-1.722865462E0,8.991589546E0,9.997117424E0
1.257197051E0,3.996492624E0,-1.742018342E0,8.627686501E0,9.666620689E0
1.259601687E0,3.960581064E0,-1.768353343E0,9.192693710E0,1.016459018E1
1.262007103E0,3.967763186E0,-1.730047822E0,8.601351738E0,9.629094552E0
1.264412416E0,3.929457903E0,-1.753988862E0,9.003560066E0,9.979038541E0
1.266817624E0,3.948610544E0,-1.758776903E0,8.888643265E0,9.883966841E0
1.269223510E0,3.936640024E0,-1.768353343E0,8.646840096E0,9.663956326E0
1.271629239E0,3.931852102E0,-1.775535703E0,9.137629509E0,1.010486324E1
1.274035385E0,3.936640024E0,-1.770747423E0,8.555864334E0,9.583083826E0
1.276441218E0,3.905516863E0,-1.792294383E0,9.056229591E0,1.002400496E1
1.278846635E0,3.941428423E0,-1.770747423E0,8.814425468E0,9.816542201E0
1.281252520E0,3.941428423E0,-1.758776903E0,8.663598061E0,9.679157276E0
1.283657937E0,3.931852102E0,-1.787506223E0,9.082565308E0,1.005721791E1
1.286063093E0,3.946216822E0,-1.744412303E0,8.491223335E0,9.524519684E0
1.288468353E0,3.929457903E0,-1.758776903E0,9.020318985E0,9.995003261E0
1.290873614E0,3.965369463E0,-1.746806502E0,8.742603302E0,9.757489453E0
1.293279239E0,3.953398943E0,-1.758776903E0,8.699509621E0,9.716178623E0
1.295684395E0,3.982128382E0,-1.761171103E0,9.041866302E0,1.003565724E1
1.298088874E0,4.001281261E0,-1.758776903E0,8.496010780E0,9.554357493E0
1.300494135E0,3.958187342E0,-1.753988862E0,9.034684181E0,1.001844510E1
1.302899343E0,3.986916304E0,-1.744412303E0,8.656415939E0,9.688757031E0
1.305304239E0,3.962975264E0,-1.744412303E0,8.711480141E0,9.728208132E0
1.307709551E0,3.967763186E0,-1.749200583E0,8.979619026E0,9.971780444E0
1.310114395E0,3.984522104E0,-1.744412303E0,8.462493896E0,9.514893254E0
1.312519812E0,3.967763186E0,-1.756382823E0,9.025106430E0,1.001401874E1
1.314925437E0,3.998886824E0,-1.737230062E0,8.575016975E0,9.619770280E0
1.317330385E0,3.955793142E0,-1.756382823E0,8.740208626E0,9.753175218E0
1.319735697E0,3.979733706E0,-1.763565183E0,8.926948547E0,9.931709465E0
1.322140749E0,3.984522104E0,-1.739624262E0,8.428977013E0,9.484216491E0
1.324545385E0,3.929457903E0,-1.761171103E0,9.003560066E0,9.980303449E0
1.326950437E0,3.960581064E0,-1.763565183E0,8.524740219E0,9.563867435E0
1.329355541E0,3.929457903E0,-1.765959263E0,8.747391701E0,9.750698082E0
1.331761010E0,3.958187342E0,-1.768353343E0,8.843155861E0,9.848640828E0
1.334166218E0,3.929457903E0,-1.770747423E0,8.450522423E0,9.486174944E0
1.336570853E0,3.910305262E0,-1.787506223E0,9.022712708E0,9.994749138E0
1.338976426E0,3.936640024E0,-1.777929664E0,8.484041214E0,9.520353139E0
1.341382103E0,3.881575823E0,-1.794688463E0,8.831185341E0,9.812103346E0
1.343787364E0,3.905516863E0,-1.799476743E0,8.838366508E0,9.828931837E0
1.346192832E0,3.879182100E0,-1.806658983E0,8.519951820E0,9.534235652E0
1.348598457E0,3.867211580E0,-1.816235304E0,8.847944260E0,9.825484910E0
1.351004603E0,3.869605303E0,-1.799476743E0,8.776121140E0,9.758701963E0
1.353410228E0,3.891152620E0,-1.821023583E0,8.824003220E0,9.814286955E0
1.355815332E0,3.871999502E0,-1.816235304E0,8.783303261E0,9.769212199E0
1.358221166E0,3.895940542E0,-1.835388064E0,8.819214821E0,9.814558172E0
1.360626582E0,3.903122663E0,-1.840176344E0,8.778514862E0,9.781765622E0
1.363031478E0,3.893546343E0,-1.842570424E0,8.804849625E0,9.802048041E0
1.365436687E0,3.898334742E0,-1.821023583E0,8.797667503E0,9.793472017E0
1.367842103E0,3.936640024E0,-1.801870704E0,8.790484428E0,9.798800396E0
1.370247989E0,3.907911062E0,-1.801870704E0,8.797667503E0,9.793745984E0
1.372653301E0,3.931852102E0,-1.806658983E0,8.809638023E0,9.814947771E0
1.375057937E0,3.924669504E0,-1.780323863E0,8.816821098E0,9.813710718E0
1.377463249E0,3.936640024E0,-1.780323863E0,8.843155861E0,9.842158976E0
1.379868353E0,3.929457903E0,-1.799476743E0,8.855125427E0,9.853527403E0
1.382273197E0,3.941428423E0,-1.799476743E0,8.850337982E0,9.854007152E0
1.384678457E0,3.924669504E0,-1.789900184E0,8.886248589E0,9.877863502E0
1.387083770E0,3.941428423E0,-1.809053063E0,8.910189629E0,9.909541373E0
1.389489395E0,3.943822622E0,-1.801870704E0,8.955677986E0,9.950107693E0
1.391894760E0,3.970157862E0,-1.789900184E0,8.962861061E0,9.964877045E0
1.394299655E0,4.008463383E0,-1.787506223E0,8.965254784E0,9.981921184E0
1.396705228E0,4.037192822E0,-1.809053063E0,8.967648506E0,9.999515918E0
1.399110489E0,4.046769142E0,-1.799476743E0,8.970043182E0,1.000380586E1
1.401515749E0,4.075498104E0,-1.813841224E0,8.972436905E0,1.002019605E1
1.403921062E0,4.089862823E0,-1.818629503E0,8.970043182E0,1.002477261E1
1.406326010E0,4.104227066E0,-1.816235304E0,9.001166344E0,1.005805081E1
1.408731530E0,4.109015465E0,-1.835388064E0,9.001166344E0,1.006348116E1
1.411136739E0,4.123380184E0,-1.811447024E0,8.984406471E0,1.005003304E1
1.413541530E0,4.137744427E0,-1.840176344E0,8.960465431E0,1.003977682E1
1.415947207E0,4.132956505E0,-1.835388064E0,8.977225304E0,1.005189300E1
1.418352832E0,4.159291744E0,-1.852146864E0,8.946102142E0,1.003807249E1
1.420757989E0,4.137744427E0,-1.873693705E0,8.943707466E0,1.003102987E1
1.423163510E0,4.161685467E0,-1.890452504E0,8.960465431E0,1.005899485E1
1.425569239E0,4.152109146E0,-1.895240545E0,8.953284264E0,1.004953960E1
1.427975280E0,4.132956505E0,-1.907211065E0,8.946102142E0,1.003750602E1
1.430381010E0,4.123380184E0,-1.895240545E0,8.993984222E0,1.007402368E1
1.432786218E0,4.147321224E0,-1.916787505E0,8.989195824E0,1.008364960E1
1.435191947E0,4.132956505E0,-1.911999345E0,9.001166344E0,1.008752034E1
1.437597312E0,4.164079666E0,-1.911999345E0,9.051442146E0,1.014514198E1
1.440002364E0,4.180838585E0,-1.919181585E0,9.065807343E0,1.016619555E1
1.442407676E0,4.180838585E0,-1.907211065E0,9.094535828E0,1.018957542E1
1.444813145E0,4.202384949E0,-1.923969865E0,9.125658989E0,1.022933777E1
1.447218978E0,4.209567547E0,-1.921575665E0,9.092142105E0,1.020195864E1
1.449624499E0,4.238296509E0,-1.964669466E0,9.080170631E0,1.021139472E1
1.452029760E0,4.243085384E0,-1.957487226E0,9.072988510E0,1.020561857E1
1.454435280E0,4.252661705E0,-1.959881186E0,9.025106430E0,1.016753716E1
1.456840124E0,4.264632225E0,-1.969457746E0,9.003560066E0,1.015529151E1
1.459244760E0,4.245479107E0,-1.986216307E0,8.977225304E0,1.012717741E1
1.461650072E0,4.219144344E0,-1.988610506E0,8.962861061E0,1.010389178E1
1.464055645E0,4.171262264E0,-1.998186827E0,8.950889587E0,1.007524709E1
1.466461687E0,4.144927025E0,-1.991004586E0,8.974830627E0,1.008425030E1
1.468867312E0,4.111409664E0,-1.976639986E0,8.982012749E0,1.007409292E1
1.471272624E0,4.053951263E0,-1.981428146E0,8.989195824E0,1.005814197E1
1.473678770E0,4.015645504E0,-1.993398666E0,9.027501106E0,1.007942574E1
1.476084551E0,3.972551584E0,-1.993398666E0,9.063412666E0,1.009456554E1
1.478490020E0,3.946216822E0,-1.995792747E0,9.106506348E0,1.012345167E1
1.480895541E0,3.917487383E0,-1.988610506E0,9.175934792E0,1.017344870E1
1.483300905E0,3.893546343E0,-2.002975225E0,9.197482109E0,1.018652492E1
1.485706687E0,3.883970022E0,-2.017339706E0,9.147206306E0,1.014032868E1
1.488111999E0,3.876787901E0,-2.007763147E0,9.149600029E0,1.013783892E1
1.490516895E0,3.910305262E0,-2.038886547E0,9.166358948E0,1.017200481E1
1.492922832E0,3.888757944E0,-2.022127867E0,9.156783104E0,1.015175434E1
1.495328510E0,3.871999502E0,-2.024522066E0,9.187906265E0,1.017392212E1
1.497733457E0,3.864817381E0,-2.031704187E0,9.187906265E0,1.017262291E1
1.500138926E0,3.850452662E0,-2.022127867E0,9.238182068E0,1.021072939E1
1.502544499E0,3.838482141E0,-2.014945745E0,9.240575790E0,1.020696784E1
1.504950541E0,3.807358980E0,-2.002975225E0,9.293246269E0,1.024071865E1
1.507356322E0,3.792994261E0,-2.010157347E0,9.338733673E0,1.027810706E1
1.509761739E0,3.797782421E0,-1.993398666E0,9.369856834E0,1.030490207E1
1.512167885E0,3.797782421E0,-1.967063546E0,9.422528267E0,1.034777895E1
1.514573614E0,3.783417940E0,-1.928757906E0,9.448863029E0,1.035931325E1
1.516978926E0,3.785811901E0,-1.935940385E0,9.465620995E0,1.037681154E1
1.519384447E0,3.812146902E0,-1.921575665E0,9.472804070E0,1.039032887E1
1.521789864E0,3.824117422E0,-1.921575665E0,9.458438873E0,1.038163730E1
1.524195541E0,3.845664263E0,-1.923969865E0,9.482379913E0,1.041183569E1
1.526600853E0,3.852846861E0,-1.931152105E0,9.475197792E0,1.040928194E1
1.529005853E0,3.869605303E0,-1.950304866E0,9.444073677E0,1.039076811E1
1.531411791E0,3.881575823E0,-1.959881186E0,9.422528267E0,1.037746617E1
1.533817260E0,3.905516863E0,-1.974245787E0,9.377039909E0,1.034792665E1
1.536222364E0,3.907911062E0,-2.000581026E0,9.333946228E0,1.031487496E1
1.538627937E0,3.951004744E0,-2.019733667E0,9.271698952E0,1.027882114E1
1.541033457E0,3.922275782E0,-2.026916027E0,9.223816872E0,1.022601748E1
1.543439082E0,3.917487383E0,-2.050857067E0,9.178328514E0,1.018795546E1
1.545844499E0,3.912698984E0,-2.046068907E0,9.147206306E0,1.015711546E1
1.548249707E0,3.905516863E0,-2.050857067E0,9.092142105E0,1.010574711E1
1.550655332E0,3.917487383E0,-2.079586267E0,8.993984222E0,1.002811740E1
1.553060645E0,3.860028982E0,-2.072404146E0,8.917372704E0,9.935502938E0
1.555465801E0,3.843270540E0,-2.043674707E0,8.797667503E0,9.815614512E0
1.557871322E0,3.850452662E0,-2.053251028E0,8.685144424E0,9.719750982E0
1.560276635E0,3.804964781E0,-2.029310226E0,8.582199097E0,9.604686268E0
1.562682364E0,3.788206100E0,-2.002975225E0,8.481646538E0,9.502670320E0
1.565087728E0,3.771447420E0,-1.964669466E0,8.405035973E0,9.419573847E0
1.567492468E0,3.730747700E0,-1.923969865E0,8.321242332E0,9.320043583E0
1.569897989E0,3.711594820E0,-1.892846465E0,8.244630814E0,9.237572251E0
1.572303405E0,3.673289299E0,-1.840176344E0,8.182384491E0,9.155911708E0
1.574708457E0,3.649348497E0,-1.789900184E0,8.134502411E0,9.093493091E0
1.577113822E0,3.639771938E0,-1.773141623E0,8.079438210E0,9.037106437E0
1.579519395E0,3.615830898E0,-1.725259542E0,8.031556129E0,8.975335505E0
1.581925385E0,3.596678257E0,-1.689348102E0,8.012403488E0,8.943634672E0
1.584331114E0,3.599072218E0,-1.641466022E0,7.926216125E0,8.858478063E0
1.586736062E0,3.606254578E0,-1.605554700E0,7.844816208E0,8.782028200E0
1.589141635E0,3.620619059E0,-1.560066819E0,7.813693047E0,8.751942063E0
1.591546947E0,3.651742458E0,-1.550490379E0,7.737082005E0,8.694922734E0
1.593951843E0,3.680471659E0,-1.526549339E0,7.693987846E0,8.664506535E0
1.596357155E0,3.687654018E0,-1.516972899E0,7.658076286E0,8.634010154E0
1.598762572E0,3.723565340E0,-1.481061459E0,7.617376804E0,8.607143037E0
1.601168353E0,3.766659260E0,-1.464302778E0,7.612588882E0,8.618782634E0
1.603573614E0,3.800176382E0,-1.464302778E0,7.600618362E0,8.622930050E0
1.605978457E0,3.843270540E0,-1.447544098E0,7.574283600E0,8.616024861E0
1.608383926E0,3.864817381E0,-1.461908698E0,7.562313080E0,8.617573298E0
1.610788978E0,3.922275782E0,-1.428391337E0,7.559918404E0,8.635792690E0
1.613193666E0,3.960581064E0,-1.414026737E0,7.564706802E0,8.655083072E0
1.615598874E0,4.010857582E0,-1.404450297E0,7.559918404E0,8.672475163E0
1.618004499E0,4.049163342E0,-1.402056217E0,7.583859444E0,8.710706600E0
1.620410801E0,4.101833344E0,-1.375721216E0,7.603012562E0,8.747768039E0
1.622816270E0,4.128168106E0,-1.399662256E0,7.646105766E0,8.801349881E0
1.625220801E0,4.173655987E0,-1.356568336E0,7.703564167E0,8.865922559E0
1.627626114E0,4.202384949E0,-1.349386096E0,7.777781487E0,8.942861228E0
1.630031270E0,4.267025948E0,-1.344597816E0,7.842422485E0,9.028789740E0
1.632436114E0,4.324484348E0,-1.330233335E0,7.863968849E0,9.072634219E0
1.634841114E0,4.362790108E0,-1.306292295E0,7.914245605E0,9.131025166E0
1.637246426E0,4.422642708E0,-1.277563095E0,7.933398247E0,9.172281272E0
1.639652468E0,4.487283230E0,-1.287139416E0,7.978885651E0,9.244190332E0
1.642058041E0,4.520800591E0,-1.256016254E0,8.041131973E0,9.309941902E0
1.644463145E0,4.578258514E0,-1.227287054E0,8.067467690E0,9.356854143E0
1.646869082E0,4.635717392E0,-1.191375613E0,8.079438210E0,9.390770648E0
1.649274395E0,4.671628475E0,-1.188981414E0,8.124925613E0,9.447338548E0
1.651678978E0,4.709934235E0,-1.177011013E0,8.160837173E0,9.495688432E0
1.654084082E0,4.733875275E0,-1.136311293E0,8.215902328E0,9.549964897E0
1.656489343E0,4.764998436E0,-1.133917212E0,8.278148651E0,9.618665366E0
1.658895020E0,4.788939476E0,-1.126734972E0,8.318847656E0,9.664714136E0
1.661300280E0,4.829638958E0,-1.112370372E0,8.376305580E0,9.732691071E0
1.663704968E0,4.851186275E0,-1.090823412E0,8.385883331E0,9.749202185E0
1.666110437E0,4.884703636E0,-1.102793932E0,8.397852898E0,9.777546592E0
1.668515697E0,4.906250000E0,-1.088429332E0,8.428977013E0,9.813440831E0
1.670920697E0,4.934979439E0,-1.083641171E0,8.448128700E0,9.843738049E0
1.673325801E0,4.961314678E0,-1.074064732E0,8.469676018E0,9.874394677E0
1.675731010E0,4.982861519E0,-1.069276571E0,8.450522423E0,9.868312445E0
1.678136843E0,4.990043640E0,-1.066882491E0,8.445734978E0,9.867583954E0
1.680542468E0,5.011590481E0,-1.081246972E0,8.414611816E0,9.853467724E0
1.682947780E0,5.023561001E0,-1.054911971E0,8.440946579E0,9.879199540E0
1.685353666E0,5.025955200E0,-1.057306051E0,8.407429695E0,9.852055412E0
1.687759187E0,5.028349876E0,-1.052517891E0,8.438552856E0,9.879335539E0
1.690164655E0,4.992438316E0,-1.078852892E0,8.448128700E0,9.872144774E0
1.692570801E0,4.961314678E0,-1.090823412E0,8.421793938E0,9.835199651E0
1.694976635E0,4.920615196E0,-1.093217492E0,8.431370735E0,9.823216931E0
1.697382364E0,4.853579998E0,-1.117158413E0,8.445734978E0,9.804882510E0
1.699787572E0,4.817668438E0,-1.117158413E0,8.460100174E0,9.799554431E0
1.702192624E0,4.764998436E0,-1.162646294E0,8.448128700E0,9.768717164E0
1.704598666E0,4.702752113E0,-1.186587334E0,8.460100174E0,9.751777371E0
1.707004343E0,4.654870033E0,-1.179405093E0,8.507982254E0,9.769573861E0
1.709409603E0,4.628535271E0,-1.186587334E0,8.551075935E0,9.795520808E0
1.711815176E0,4.590229034E0,-1.205740213E0,8.570227623E0,9.796571521E0
1.714220437E0,4.578258514E0,-1.208134174E0,8.603745461E0,9.820614805E0
1.716626322E0,4.597411633E0,-1.208134174E0,8.615715981E0,9.840037793E0
1.719031843E0,4.559106350E0,-1.196163654E0,8.632474899E0,9.835440055E0
1.721436843E0,4.583047390E0,-1.172222853E0,8.670781136E0,9.877290888E0
1.723842937E0,4.595017433E0,-1.172222853E0,8.651627541E0,9.866050412E0
1.726248770E0,4.638111115E0,-1.162646294E0,8.639657021E0,9.874588323E0
1.728654187E0,4.638111115E0,-1.145887733E0,8.627686501E0,9.862155330E0
1.731059760E0,4.657264233E0,-1.133917212E0,8.613322258E0,9.857240927E0
1.733465280E0,4.657264233E0,-1.126734972E0,8.594168663E0,9.839683777E0
1.735871062E0,4.671628475E0,-1.102793932E0,8.608533859E0,9.856323974E0
1.738276322E0,4.683598995E0,-1.107582092E0,8.618109703E0,9.870899275E0
1.740681270E0,4.693175793E0,-1.083641171E0,8.639657021E0,9.891605059E0
1.743087103E0,4.671628475E0,-1.078852892E0,8.627686501E0,9.870410859E0
1.745492728E0,4.642899513E0,-1.062094212E0,8.632474899E0,9.859218168E0
1.747897989E0,4.623746872E0,-1.052517891E0,8.642050743E0,9.857579322E0
1.750303353E0,4.597411633E0,-1.045335531E0,8.677963257E0,9.876029890E0
1.752708666E0,4.563894272E0,-1.042941451E0,8.701904297E0,9.881295269E0
1.755114551E0,4.554317474E0,-1.033365011E0,8.689932823E0,9.865322264E0
1.757520332E0,4.511224270E0,-1.016606331E0,8.654022217E0,9.812070799E0
1.759925957E0,4.487283230E0,-1.035759211E0,8.651627541E0,9.800977861E0
1.762331999E0,4.475312710E0,-1.038153291E0,8.630081177E0,9.776731930E0
1.764737416E0,4.444189072E0,-1.050123811E0,8.606140137E0,9.742649772E0
1.767142364E0,4.439401150E0,-1.071670651E0,8.555864334E0,9.698431577E0
1.769547624E0,4.448977470E0,-1.066882491E0,8.541499138E0,9.689625705E0
1.771953041E0,4.408277512E0,-1.083641171E0,8.522345543E0,9.655959940E0
1.774358770E0,4.384336472E0,-1.109976172E0,8.527134895E0,9.652278639E0
1.776763978E0,4.377154827E0,-1.124340773E0,8.555864334E0,9.676075705E0
1.779168822E0,4.374760628E0,-1.167434573E0,8.598958015E0,9.718205235E0
1.781574291E0,4.350819588E0,-1.203346133E0,8.606140137E0,9.718195360E0
1.783979291E0,4.300543785E0,-1.220104694E0,8.637263298E0,9.725515390E0
1.786383926E0,4.288573265E0,-1.275169134E0,8.627686501E0,9.718790631E0
1.788789082E0,4.298149109E0,-1.299109936E0,8.649233818E0,9.745307488E0
1.791194187E0,4.302937508E0,-1.346991897E0,8.646840096E0,9.751794809E0
1.793599603E0,4.300543785E0,-1.399662256E0,8.649233818E0,9.760275453E0
1.796004968E0,4.295755386E0,-1.406844497E0,8.668385506E0,9.776176812E0
1.798410124E0,4.288573265E0,-1.464302778E0,8.646840096E0,9.762370968E0
1.800816010E0,4.298149109E0,-1.495426059E0,8.675568581E0,9.796727773E0
1.803221478E0,4.334060669E0,-1.507396579E0,8.646840096E0,9.788982070E0
1.805626530E0,4.324484348E0,-1.543308139E0,8.682750702E0,9.822073337E0
1.808031739E0,4.288573265E0,-1.562460780E0,8.663598061E0,9.792398873E0
1.810437103E0,4.300543785E0,-1.591190100E0,8.680356979E0,9.817085111E0
1.812843301E0,4.302937508E0,-1.603160620E0,8.680356979E0,9.820081082E0
1.815248978E0,4.290966988E0,-1.617525101E0,8.665991783E0,9.804498902E0
1.817653874E0,4.274208069E0,-1.624707460E0,8.668385506E0,9.800481428E0
1.820059499E0,4.293361187E0,-1.610342860E0,8.689932823E0,9.825532397E0
1.822464707E0,4.274208069E0,-1.634283781E0,8.704298019E0,9.833846760E0
1.824869707E0,4.288573265E0,-1.624707460E0,8.721056938E0,9.853343042E0
1.827275228E0,4.278996468E0,-1.617525101E0,8.723450661E0,9.850116225E0
1.829680749E0,4.276602745E0,-1.615131140E0,8.725845337E0,9.850804865E0
1.832086687E0,4.300543785E0,-1.617525101E0,8.730632782E0,9.865850854E0
1.834492207E0,4.319695950E0,-1.619919181E0,8.682750702E0,9.832297341E0
1.836897260E0,4.319695950E0,-1.619919181E0,8.670781136E0,9.821728807E0
1.839303041E0,4.326878548E0,-1.629495621E0,8.661204338E0,9.818023963E0
1.841708405E0,4.338849068E0,-1.653436542E0,8.646840096E0,9.814647587E0
1.844113353E0,4.355607510E0,-1.658224821E0,8.622899055E0,9.801806693E0
1.846518770E0,4.360395432E0,-1.646254301E0,8.622899055E0,9.801917652E0
1.848924135E0,4.367578030E0,-1.691742182E0,8.577410698E0,9.772906617E0
1.851329916E0,4.336454868E0,-1.689348102E0,8.575016975E0,9.756518537E0
1.853735280E0,4.372365952E0,-1.706106782E0,8.522345543E0,9.729273247E0
1.856139968E0,4.350819588E0,-1.710894942E0,8.496010780E0,9.697370353E0
1.858545489E0,4.324484348E0,-1.742018342E0,8.515163422E0,9.707924643E0
1.860950853E0,4.305331707E0,-1.758776903E0,8.486434937E0,9.677228696E0
1.863355853E0,4.329272747E0,-1.775535703E0,8.457705498E0,9.665811494E0
1.865760957E0,4.288573265E0,-1.753988862E0,8.450522423E0,9.637409756E0
1.868166270E0,4.298149109E0,-1.770747423E0,8.431370735E0,9.627961605E0
1.870571999E0,4.290966988E0,-1.813841224E0,8.393064499E0,9.599268168E0
1.872977312E0,4.302937508E0,-1.811447024E0,8.390670776E0,9.602081420E0
1.875382207E0,4.295755386E0,-1.823417544E0,8.376305580E0,9.588579720E0
1.877787937E0,4.312514305E0,-1.835388064E0,8.373911858E0,9.596292450E0
1.880193405E0,4.317302227E0,-1.818629503E0,8.347577095E0,9.572280561E0
1.882598562E0,4.326878548E0,-1.840176344E0,8.385883331E0,9.614112865E0
1.885004082E0,4.348425388E0,-1.856934905E0,8.364336014E0,9.608284319E0
1.887409447E0,4.362790108E0,-1.854540944E0,8.390670776E0,9.637251461E0
1.889815176E0,4.389125347E0,-1.854540944E0,8.390670776E0,9.649202014E0
1.892220541E0,4.403489590E0,-1.873693705E0,8.421793938E0,9.686488620E0
1.894625489E0,4.425036430E0,-1.868905425E0,8.414611816E0,9.689140670E0
1.897031374E0,4.432218552E0,-1.897634745E0,8.438552856E0,9.718783526E0
1.899436791E0,4.470524788E0,-1.892846465E0,8.436159134E0,9.733305736E0
1.901841635E0,4.501647472E0,-1.888058305E0,8.436159134E0,9.746710987E0
1.904246687E0,4.518406391E0,-1.911999345E0,8.431370735E0,9.754985919E0
1.906651687E0,4.530376434E0,-1.935940385E0,8.443341255E0,9.775591407E0
1.909057416E0,4.551923752E0,-1.959881186E0,8.428977013E0,9.777975127E0
1.911462572E0,4.549529552E0,-1.967063546E0,8.443341255E0,9.790687907E0
1.913867468E0,4.563894272E0,-1.981428146E0,8.467282295E0,9.820899037E0
1.916273457E0,4.611776352E0,-1.986216307E0,8.519951820E0,9.889545761E0
1.918678718E0,4.604594231E0,-2.010157347E0,8.558258057E0,9.924051670E0
1.921083457E0,4.628535271E0,-2.026916027E0,8.601351738E0,9.975719475E0
1.923488770E0,4.659657955E0,-2.026916027E0,8.620503426E0,1.000669177E1
1.925894187E0,4.669234753E0,-2.038886547E0,8.651627541E0,1.004039196E1
1.928300072E0,4.700358391E0,-2.053251028E0,8.670781136E0,1.007430664E1
1.930705593E0,4.736268997E0,-2.050857067E0,8.677963257E0,1.009679677E1
1.933110593E0,4.764998436E0,-2.067615747E0,8.646840096E0,1.008702576E1
1.935516270E0,4.808092117E0,-2.062827587E0,8.675568581E0,1.013106597E1
1.937921426E0,4.805697918E0,-2.070009947E0,8.649233818E0,1.010885351E1
1.940326218E0,4.817668438E0,-2.086768627E0,8.682750702E0,1.014665917E1
1.942731426E0,4.846398354E0,-2.096344948E0,8.663598061E0,1.014594355E1
1.945136635E0,4.834427834E0,-2.101133108E0,8.644444466E0,1.012486409E1
1.947542312E0,4.832033157E0,-2.115497828E0,8.656415939E0,1.013693309E1
1.949947572E0,4.812880516E0,-2.134650469E0,8.644444466E0,1.012160914E1
1.952352260E0,4.798516273E0,-2.129862547E0,8.630081177E0,1.010150355E1
1.954757780E0,4.791333675E0,-2.151409388E0,8.642050743E0,1.011288692E1
1.957163093E0,4.764998436E0,-2.146620989E0,8.618109703E0,1.007893876E1
1.959567937E0,4.750634193E0,-2.149015188E0,8.606140137E0,1.006242712E1
1.961973093E0,4.719510555E0,-2.177744389E0,8.577410698E0,1.002937310E1
1.964378457E0,4.685993195E0,-2.160985470E0,8.577410698E0,1.001001322E1
1.966784343E0,4.664446831E0,-2.156197548E0,8.543892860E0,9.970173384E0
1.969189864E0,4.654870033E0,-2.187320709E0,8.536710739E0,9.966324155E0
1.971594760E0,4.609382153E0,-2.180138588E0,8.488828659E0,9.902505748E0
1.974000228E0,4.597411633E0,-2.146620989E0,8.469676018E0,9.873175134E0
1.976405541E0,4.554317474E0,-2.156197548E0,8.436159134E0,9.826483423E0
1.978810645E0,4.547135830E0,-2.163379908E0,8.390670776E0,9.785704520E0
1.981216218E0,4.563894272E0,-2.160985470E0,8.347577095E0,9.756076695E0
1.983621635E0,4.542346954E0,-2.160985470E0,8.304482460E0,9.709129878E0
1.986027468E0,4.516012192E0,-2.160985470E0,8.227871895E0,9.631308335E0
1.988433249E0,4.508830070E0,-2.149015188E0,8.177596092E0,9.582321886E0
1.990838562E0,4.532771111E0,-2.132256508E0,8.117743492E0,9.538883119E0
1.993244187E0,4.518406391E0,-2.160985470E0,8.069861412E0,9.497816471E0
1.995649447E0,4.501647472E0,-2.153803349E0,8.045920372E0,9.467868475E0
1.998054760E0,4.496859550E0,-2.160985470E0,8.041131973E0,9.463160541E0
2.000460489E0,4.475312710E0,-2.156197548E0,8.014797211E0,9.429453115E0
2.002865853E0,4.480100632E0,-2.170562029E0,8.014797211E0,9.435020695E0
2.005271582E0,4.470524788E0,-2.184926510E0,8.005220413E0,9.425659107E0
2.007677051E0,4.448977470E0,-2.153803349E0,7.971703529E0,9.379782863E0
2.010081739E0,4.458554268E0,-2.172955990E0,7.971703529E0,9.388743316E0
2.012487364E0,4.475312710E0,-2.165773869E0,8.007615089E0,9.425545062E0
2.014892937E0,4.489676952E0,-2.146620989E0,8.048315048E0,9.462587169E0
2.017297989E0,4.484889030E0,-2.129862547E0,8.067467690E0,9.472833737E0
2.019703510E0,4.520800591E0,-2.127468348E0,8.115349770E0,9.530092415E0
2.022109030E0,4.549529552E0,-2.103527308E0,8.127320290E0,9.548632435E0
2.024514916E0,4.587835312E0,-2.074798107E0,8.156049728E0,9.585101314E0
2.026920020E0,4.606987953E0,-2.067615747E0,8.187171936E0,9.619207722E0
2.029324707E0,4.638111115E0,-2.034098387E0,8.247024536E0,9.677966969E0
2.031730541E0,4.693175793E0,-1.998186827E0,8.311665535E0,9.752047661E0
2.034135905E0,4.736268997E0,-1.986216307E0,8.338001251E0,9.792832282E0
2.036540905E0,4.733875275E0,-1.969457746E0,8.354759216E0,9.802568056E0
2.038946374E0,4.805697918E0,-1.943122625E0,8.371518135E0,9.846459968E0
2.041351843E0,4.822457314E0,-1.947910786E0,8.393064499E0,9.873904124E0
2.043757364E0,4.836821556E0,-1.923969865E0,8.400246620E0,9.882340112E0
2.046162416E0,4.867944717E0,-1.911999345E0,8.409823418E0,9.903421489E0
2.048567312E0,4.879915237E0,-1.907211065E0,8.426582336E0,9.922616421E0
2.050973041E0,4.896674156E0,-1.911999345E0,8.431370735E0,9.935852845E0
2.053378301E0,4.879915237E0,-1.904816985E0,8.421793938E0,9.918090219E0
2.055783093E0,4.863156796E0,-1.928757906E0,8.448128700E0,9.936864677E0
2.058188457E0,4.848792076E0,-1.923969865E0,8.448128700E0,9.928913494E0
2.060593874E0,4.832033157E0,-1.950304866E0,8.440946579E0,9.919768780E0
2.062999551E0,4.815274715E0,-1.962275386E0,8.443341255E0,9.916017690E0
2.065404916E0,4.776968956E0,-1.976639986E0,8.474463463E0,9.926886170E0
2.067810228E0,4.788939476E0,-2.000581026E0,8.448128700E0,9.914995930E0
2.070216270E0,4.769786835E0,-2.019733667E0,8.469676018E0,9.928021071E0
2.072621687E0,4.757816315E0,-2.036492586E0,8.467282295E0,9.923657975E0
2.075026791E0,4.750634193E0,-2.060433626E0,8.455311775E0,9.914948774E0
2.077432260E0,4.753028393E0,-2.055645227E0,8.440946579E0,9.902854909E0
2.079837780E0,4.757816315E0,-2.053251028E0,8.440946579E0,9.904657239E0
2.082243770E0,4.724298477E0,-2.081980467E0,8.448128700E0,9.900733170E0
2.084649291E0,4.750634193E0,-2.089162588E0,8.440946579E0,9.908718621E0
2.087054291E0,4.741057873E0,-2.081980467E0,8.462493896E0,9.920991652E0
2.089459916E0,4.750634193E0,-2.070009947E0,8.479252815E0,9.937363570E0
2.091865385E0,4.781757355E0,-2.062827587E0,8.505587578E0,9.973238245E0
2.094270593E0,4.781757355E0,-2.058039427E0,8.505587578E0,9.972248980E0
2.096676062E0,4.812880516E0,-2.034098387E0,8.534317017E0,1.000679479E1
2.099081582E0,4.870338917E0,-2.012551546E0,8.565440178E0,1.005670574E1
2.101487364E0,4.915826797E0,-1.983822227E0,8.558258057E0,1.006700972E1
2.103892832E0,4.915826797E0,-1.974245787E0,8.584592819E0,1.008752861E1
2.106298041E0,4.961314678E0,-1.955093026E0,8.565440178E0,1.008978679E1
2.108703874E0,5.011590481E0,-1.933546185E0,8.577410698E0,1.012060345E1
2.111109395E0,5.033137798E0,-1.928757906E0,8.577410698E0,1.013037795E1
2.113514395E0,5.052290440E0,-1.923969865E0,8.601351738E0,1.015925935E1
2.115919551E0,5.059472561E0,-1.911999345E0,8.586986542E0,1.014841574E1
2.118324760E0,5.073837280E0,-1.928757906E0,8.615715981E0,1.018304933E1
2.120730228E0,5.092989922E0,-1.919181585E0,8.618109703E0,1.019282194E1
2.123135385E0,5.069049358E0,-1.923969865E0,8.656415939E0,1.021422823E1
2.125540124E0,5.073837280E0,-1.902422786E0,8.689932823E0,1.024099456E1
2.127945489E0,5.066655159E0,-1.928757906E0,8.716267586E0,1.026471735E1
2.130350645E0,5.061866760E0,-1.931152105E0,8.704298019E0,1.025264100E1
2.132755385E0,5.045108318E0,-1.940728426E0,8.728239059E0,1.026653310E1
2.135160541E0,5.030743599E0,-1.945516706E0,8.723450661E0,1.025631551E1
2.137566010E0,5.004408836E0,-1.959881186E0,8.718662262E0,1.024208542E1
2.139971791E0,5.037925720E0,-1.974245787E0,8.733026505E0,1.027346553E1
2.142377520E0,5.059472561E0,-1.974245787E0,8.835972786E0,1.037161145E1
2.144783249E0,5.073837280E0,-1.947910786E0,8.888643265E0,1.041854886E1
2.147189499E0,5.076231480E0,-1.983822227E0,8.833579063E0,1.037958553E1
2.149595280E0,5.121719360E0,-1.971851707E0,8.804849625E0,1.037523905E1
2.152000541E0,5.140872002E0,-1.955093026E0,8.826396942E0,1.039981907E1
2.154406062E0,5.169600964E0,-1.940728426E0,8.771332741E0,1.036472281E1
2.156811582E0,5.203118801E0,-1.940728426E0,8.733026505E0,1.034913639E1
2.159217520E0,5.248606682E0,-1.928757906E0,8.716267586E0,1.035573753E1
2.161623197E0,5.267759323E0,-1.909605265E0,8.692326546E0,1.034178038E1
2.164028978E0,5.296488762E0,-1.895240545E0,8.713873863E0,1.037190087E1
2.166435593E0,5.320429802E0,-1.888058305E0,8.718662262E0,1.038685752E1
2.168841687E0,5.337188244E0,-1.859329104E0,8.699509621E0,1.037420603E1
2.171247103E0,5.341976166E0,-1.832994103E0,8.677963257E0,1.035391825E1
2.173652676E0,5.339581966E0,-1.821023583E0,8.694722176E0,1.036462523E1
2.176058353E0,5.361129284E0,-1.801870704E0,8.689932823E0,1.036838356E1
2.178464447E0,5.351552486E0,-1.782717943E0,8.706691742E0,1.037418326E1
2.180870176E0,5.344370842E0,-1.789900184E0,8.744997978E0,1.040389504E1
2.183275437E0,5.344370842E0,-1.782717943E0,8.766544342E0,1.042078129E1
2.185681322E0,5.361129284E0,-1.789900184E0,8.814425468E0,1.047089042E1
2.188086895E0,5.318035126E0,-1.794688463E0,8.893431664E0,1.051644099E1
2.190492155E0,5.325217724E0,-1.806658983E0,8.931736946E0,1.055451967E1
2.192897780E0,5.286911964E0,-1.849752665E0,9.020318985E0,1.061787067E1
2.195303510E0,5.282123566E0,-1.885664225E0,9.120870590E0,1.070732643E1
2.197709603E0,5.301276684E0,-1.907211065E0,9.221423149E0,1.080627750E1
2.200115176E0,5.298882484E0,-1.967063546E0,9.317187309E0,1.089759028E1
2.202520228E0,5.310853004E0,-1.995792747E0,9.381828308E0,1.096389761E1
2.204926010E0,5.353946686E0,-2.048463106E0,9.444073677E0,1.104769088E1
2.207331478E0,5.382676125E0,-2.077192307E0,9.506320953E0,1.112016494E1
2.209736739E0,5.423375607E0,-2.127468348E0,9.544627190E0,1.118208535E1
2.212142051E0,5.459287167E0,-2.172955990E0,9.544627190E0,1.120827651E1
2.214547260E0,5.488016129E0,-2.208867550E0,9.511109352E0,1.120083113E1
2.216953145E0,5.531110287E0,-2.228020430E0,9.523079872E0,1.123593816E1
2.219358770E0,5.576598167E0,-2.268720150E0,9.494349480E0,1.124225112E1
2.221763770E0,5.600539207E0,-2.295055389E0,9.446469307E0,1.121913994E1
2.224169291E0,5.610115528E0,-2.297449350E0,9.391404152E0,1.117810993E1
2.226574499E0,5.643632889E0,-2.302237511E0,9.278882027E0,1.110173596E1
2.228979082E0,5.650815010E0,-2.326178551E0,9.439286232E0,1.124468503E1
2.231383874E0,5.677150249E0,-2.321390390E0,9.384222031E0,1.121082118E1
2.233788978E0,5.715455532E0,-2.323784351E0,9.391404152E0,1.123676455E1
2.236194812E0,5.734608650E0,-2.318996191E0,9.374646187E0,1.123153911E1
2.238600332E0,5.756155491E0,-2.290266991E0,9.434497833E0,1.128664690E1
2.241005332E0,5.823190212E0,-2.287872791E0,9.456045151E0,1.133846092E1
2.243411062E0,5.875860214E0,-2.271114349E0,9.470408440E0,1.137419578E1
2.245816426E0,5.914165974E0,-2.256749630E0,9.479986191E0,1.139914103E1
2.248221478E0,5.957259655E0,-2.230414629E0,9.494349480E0,1.142831414E1
2.250627155E0,6.019505978E0,-2.223232269E0,9.606872559E0,1.155288770E1
2.253032832E0,6.088935375E0,-2.165773869E0,9.089747429E0,1.115299147E1
2.255438666E0,6.115270138E0,-2.187320709E0,9.621237755E0,1.160814872E1
2.257843926E0,6.177516460E0,-2.134650469E0,9.496745110E0,1.152851291E1
2.260249030E0,6.232581139E0,-2.091556787E0,9.355492592E0,1.143437445E1
2.262655020E0,6.280463219E0,-2.086768627E0,9.858252525E0,1.187366685E1
2.265060489E0,6.311586380E0,-2.050857067E0,9.233393669E0,1.137091447E1
2.267465541E0,6.335526943E0,-2.038886547E0,9.705030441E0,1.176790448E1
2.269870957E0,6.388197422E0,-2.014945745E0,9.312398911E0,1.147126175E1
2.272276166E0,6.426503181E0,-1.950304866E0,9.130446434E0,1.133440269E1
2.274681739E0,6.421715260E0,-1.919181585E0,9.441679955E0,1.157873072E1
2.277087051E0,6.448050022E0,-1.878481984E0,8.826396942E0,1.109104714E1
2.279492103E0,6.388197422E0,-1.821023583E0,9.379433632E0,1.149343153E1
2.281898145E0,6.347497463E0,-1.782717943E0,9.070594788E0,1.121358538E1
2.284304030E0,6.223004818E0,-1.742018342E0,9.178328514E0,1.122506709E1
2.286709291E0,6.108088017E0,-1.706106782E0,9.549414635E0,1.146345757E1
2.289114760E0,5.959653854E0,-1.667801261E0,9.080170631E0,1.098856377E1
2.291520385E0,5.765731812E0,-1.689348102E0,9.788825035E0,1.148558470E1
2.293926270E0,5.646027088E0,-1.655830741E0,9.496745110E0,1.117173062E1
2.296331843E0,5.495198727E0,-1.670195341E0,9.757700920E0,1.132252131E1
2.298736895E0,5.404222965E0,-1.686953902E0,9.973170280E0,1.146802358E1
2.301142728E0,5.370705605E0,-1.701318622E0,9.367463112E0,1.093107172E1
2.303548353E0,5.327611446E0,-1.706106782E0,9.815159798E0,1.129741590E1
2.305953249E0,5.418587685E0,-1.701318622E0,9.211847305E0,1.082190872E1
2.308358510E0,5.471257687E0,-1.672589421E0,9.367463112E0,1.097641021E1
2.310763978E0,5.588568687E0,-1.646254301E0,9.463227272E0,1.111282699E1
2.313169760E0,5.696303368E0,-1.603160620E0,9.061018944E0,1.082220219E1
2.315575072E0,5.780096531E0,-1.607948661E0,9.649967194E0,1.136296095E1
2.317980176E0,5.875860214E0,-1.603160620E0,8.991589546E0,1.086022743E1
2.320385957E0,5.868678093E0,-1.627101541E0,9.183117867E0,1.101900611E1
2.322791426E0,5.873466015E0,-1.639072061E0,9.039471626E0,1.090395376E1
2.325196791E0,5.830372810E0,-1.670195341E0,8.572622299E0,1.050107864E1
2.327602728E0,5.744184971E0,-1.720471382E0,9.013136864E0,1.082554012E1
2.330008666E0,5.634056568E0,-1.737230062E0,8.306878090E0,1.018650015E1
2.332414655E0,5.452105045E0,-1.730047822E0,8.756967545E0,1.045958869E1
2.334820020E0,5.301276684E0,-1.749200583E0,8.733026505E0,1.036479566E1
2.337225176E0,5.128901482E0,-1.732441783E0,8.500800133E0,1.007822345E1
2.339631426E0,4.992438316E0,-1.710894942E0,9.187906265E0,1.059571722E1
2.342037416E0,4.896674156E0,-1.674983501E0,8.637263298E0,1.006902700E1
2.344443093E0,4.776968956E0,-1.653436542E0,8.974830627E0,1.030052764E1
2.346849135E0,4.736268997E0,-1.598372340E0,8.594168663E0,9.942171451E0
2.349254864E0,4.662052155E0,-1.562460780E0,8.723450661E0,1.001372086E1
2.351660645E0,4.587835312E0,-1.540913939E0,8.496010780E0,9.777773151E0
2.354066062E0,4.544741631E0,-1.500214338E0,8.598958015E0,9.841107585E0
2.356471530E0,4.518406391E0,-1.457120538E0,8.642050743E0,9.860235171E0
2.358877937E0,4.516012192E0,-1.399662256E0,8.649233818E0,9.857112467E0
2.361283614E0,4.580653191E0,-1.339809656E0,8.857520103E0,1.006146788E1
2.363688301E0,4.664446831E0,-1.256016254E0,9.063412666E0,1.027035005E1
2.366093457E0,4.822457314E0,-1.210528374E0,9.195087433E0,1.045328209E1
2.368498562E0,5.028349876E0,-1.150675774E0,9.192693710E0,1.054106137E1
2.370903874E0,5.215089321E0,-1.093217492E0,9.144811630E0,1.058394354E1
2.373309187E0,5.370705605E0,-1.062094212E0,9.056229591E0,1.058242965E1
2.375713926E0,5.552657127E0,-1.021394610E0,9.051442146E0,1.066788888E1
2.378119291E0,5.713061810E0,-1.007030010E0,9.082565308E0,1.077711359E1
2.380524343E0,5.827978611E0,-9.974536300E-1,9.116083145E0,1.086569005E1
2.382929030E0,5.926136494E0,-9.495716691E-1,9.202269554E0,1.098647100E1
2.385334343E0,5.940501213E0,-9.543598294E-1,9.290851593E0,1.106888796E1
2.387739447E0,5.976412773E0,-9.399952888E-1,9.408163071E0,1.118546526E1
2.390144864E0,6.014718056E0,-9.232365489E-1,9.582931519E0,1.135173007E1
2.392550020E0,6.036265373E0,-8.992955685E-1,9.736153603E0,1.149077539E1
2.394954707E0,6.053023815E0,-8.466253877E-1,9.855858803E0,1.159714726E1
2.397360124E0,6.084146976E0,-8.083198071E-1,9.982747078E0,1.171859482E1
2.399765280E0,6.117664337E0,-7.748024464E-1,1.008090496E1,1.181739314E1
2.402170280E0,6.141605377E0,-7.149499655E-1,1.016709232E1,1.189958976E1
2.404575853E0,6.194275856E0,-7.029794455E-1,1.024609661E1,1.199357033E1
2.406981270E0,6.206246376E0,-6.670680046E-1,1.028679657E1,1.203248343E1
2.409387051E0,6.251733780E0,-5.904568434E-1,1.032270908E1,1.208267923E1
2.411792468E0,6.280463219E0,-5.497571826E-1,1.033467865E1,1.210586775E1
2.414197207E0,6.323556423E0,-5.090574622E-1,1.032031441E1,1.211426410E1
2.416603041E0,6.345103741E0,-4.563872814E-1,1.028919125E1,1.209694537E1
2.419008822E0,6.381015301E0,-4.085053205E-1,1.021976185E1,1.205519660E1
2.421413926E0,6.381015301E0,-3.534410596E-1,1.017427444E1,1.201491312E1
2.423819395E0,6.400167942E0,-3.103472590E-1,1.006893349E1,1.193490204E1
2.426224916E0,6.412138462E0,-2.648593783E-1,9.994716644E0,1.187771152E1
2.428630853E0,6.419320583E0,-2.217656076E-1,9.949229240E0,1.184246677E1
2.431036166E0,6.412138462E0,-1.619131565E-1,9.889376640E0,1.178734516E1
2.433440957E0,6.436079502E0,-1.164252684E-1,9.846282959E0,1.176375630E1
2.435846322E0,6.455232143E0,-6.614919752E-2,9.822341919E0,1.175384186E1
2.438251530E0,6.476778984E0,-1.826722175E-2,9.784035683E0,1.173355675E1
2.440656530E0,6.510296822E0,2.482655644E-2,9.712212563E0,1.169237589E1
2.443061843E0,6.531843662E0,6.313212961E-2,9.647572517E0,1.165094944E1
2.445467312E0,6.584513664E0,1.158023179E-1,9.523079872E0,1.157835397E1
2.447873301E0,6.632395744E0,1.756547838E-1,9.393797874E0,1.150056374E1
2.450278926E0,6.665913105E0,2.331131548E-1,9.271698952E0,1.142160850E1
2.452684082E0,6.692248344E0,2.666305304E-1,9.168752670E0,1.135443989E1
2.455090176E0,6.764070988E0,3.169065714E-1,9.058625221E0,1.130980888E1
2.457495853E0,6.795194149E0,3.623944521E-1,8.958071709E0,1.124957964E1
2.459901062E0,6.855046749E0,4.126705527E-1,8.898220062E0,1.124011936E1
2.462306739E0,6.881381512E0,4.605525136E-1,8.871885300E0,1.123725362E1
2.464712260E0,6.948416710E0,5.180108547E-1,8.862307549E0,1.127339013E1
2.467118093E0,7.008269310E0,5.515282154E-1,8.816821098E0,1.127636273E1
2.469523510E0,7.053757191E0,6.209571362E-1,8.819214821E0,1.131015598E1
2.471928197E0,7.118397713E0,6.520804167E-1,8.838366508E0,1.136721238E1
2.474333822E0,7.223738194E0,7.047505975E-1,8.852731705E0,1.144770394E1
2.476739239E0,7.269225597E0,7.598148584E-1,8.883854866E0,1.150399221E1
2.479144187E0,7.369778156E0,8.005145192E-1,8.876672745E0,1.156502367E1
2.481549603E0,7.446389198E0,8.507906199E-1,8.881461143E0,1.162122665E1
2.483955020E0,7.563700199E0,8.914902806E-1,8.881461143E0,1.169977212E1
2.486360697E0,7.654675484E0,9.154313207E-1,8.869490623E0,1.175159288E1
2.488766010E0,7.733681202E0,9.489486814E-1,8.824003220E0,1.177171871E1
2.491171270E0,7.839021206E0,9.848601222E-1,8.771332741E0,1.180493460E1
2.493577207E0,7.922814846E0,1.023165822E0,8.723450661E0,1.182862861E1
2.495982624E0,7.992243290E0,1.051894903E0,8.663598061E0,1.183386526E1
2.498387728E0,8.061672211E0,1.073441744E0,8.598958015E0,1.183574733E1
2.500792937E0,8.138282776E0,1.080624223E0,8.563045502E0,1.186276290E1
2.503198197E0,8.152647972E0,1.097382784E0,8.534317017E0,1.185345877E1
2.505604082E0,8.164618492E0,1.123717904E0,8.498404503E0,1.183835361E1
2.508009447E0,8.183771133E0,1.111747384E0,8.507982254E0,1.185731227E1
2.510414135E0,8.193347931E0,1.138082504E0,8.493617058E0,1.185612554E1
2.512819707E0,8.205318451E0,1.166811705E0,8.481646538E0,1.185862675E1
2.515225072E0,8.186164856E0,1.166811705E0,8.464887619E0,1.183338781E1
2.517630124E0,8.147859573E0,1.164417505E0,8.433764458E0,1.178439081E1
2.520035749E0,8.114341736E0,1.176388025E0,8.402641296E0,1.174013677E1
2.522441218E0,8.064065933E0,1.200329065E0,8.381094933E0,1.169242069E1
2.524846999E0,8.018578529E0,1.207511425E0,8.402641296E0,1.167733130E1
2.527252624E0,8.004213333E0,1.221875906E0,8.385883331E0,1.165690572E1
2.529657624E0,7.941967487E0,1.238634706E0,8.373911858E0,1.160738831E1
2.532063510E0,7.918026447E0,1.250605226E0,8.287724495E0,1.153020093E1
2.534469239E0,7.862962246E0,1.272152066E0,8.199142456E0,1.143111907E1
2.536874655E0,7.817474842E0,1.303275347E0,8.132108688E0,1.135529089E1
2.539280332E0,7.762410164E0,1.341580868E0,8.079438210E0,1.128415582E1
2.541685957E0,7.709740162E0,1.372704148E0,8.021980286E0,1.121055653E1
2.544091530E0,7.688193321E0,1.418192029E0,7.981280327E0,1.117230598E1
2.546496635E0,7.628340721E0,1.456497669E0,7.962127686E0,1.112242981E1
2.548901791E0,7.647493839E0,1.490015030E0,7.976491928E0,1.115027938E1
2.551307885E0,7.616370201E0,1.540291071E0,8.029161453E0,1.117358605E1
2.553713405E0,7.635523319E0,1.592961311E0,7.990856171E0,1.116658070E1
2.556118562E0,7.659464359E0,1.626478672E0,7.904668808E0,1.112639277E1
2.558524447E0,7.700163841E0,1.674360633E0,7.784964085E0,1.107707870E1
2.560930176E0,7.738469124E0,1.700695634E0,7.648500443E0,1.101253055E1
2.563336270E0,7.800715446E0,1.750971794E0,7.559918404E0,1.100315546E1
2.565741895E0,7.819868565E0,1.786883354E0,7.516824722E0,1.099299552E1
2.568147207E0,7.834232807E0,1.808430195E0,7.440213680E0,1.095456083E1
2.570553510E0,7.836627483E0,1.856312156E0,7.437819481E0,1.096265405E1
2.572959603E0,7.862962246E0,1.892223716E0,7.411484241E0,1.096981242E1
2.575365228E0,7.882114887E0,1.904194117E0,7.373178959E0,1.095981105E1
2.577770957E0,7.879721165E0,1.937711596E0,7.358814240E0,1.095430869E1
2.580176739E0,7.910844326E0,1.987987638E0,7.303750038E0,1.094889572E1
2.582583041E0,7.932390690E0,2.019110680E0,7.310932159E0,1.097494232E1
2.584989030E0,7.910844326E0,2.057416439E0,7.286991596E0,1.095055555E1
2.587394551E0,7.918026447E0,2.107692480E0,7.272626877E0,1.095575703E1
2.589800593E0,7.915632725E0,2.143604040E0,7.241503239E0,1.094036786E1
2.592206166E0,7.946755886E0,2.179515362E0,7.219956398E0,1.095577413E1
2.594611374E0,7.973090649E0,2.241761923E0,7.212774277E0,1.098270385E1
2.597017155E0,7.985061169E0,2.294432163E0,7.179256916E0,1.098031651E1
2.599422780E0,8.001819611E0,2.371043205E0,7.114616394E0,1.096671005E1
2.601828718E0,7.992243290E0,2.433290005E0,7.114616394E0,1.097335954E1
2.604234343E0,7.997031689E0,2.497930527E0,7.066734314E0,1.096042456E1
2.606639499E0,7.977879047E0,2.545812368E0,7.057157993E0,1.095131013E1
2.609045385E0,7.961120129E0,2.610453129E0,7.035610676E0,1.094046237E1
2.611450749E0,7.946755886E0,2.670305729E0,7.004487991E0,1.092448231E1
2.613855905E0,7.915632725E0,2.722975731E0,6.932664871E0,1.086893189E1
2.616261687E0,7.910844326E0,2.806769133E0,6.923088551E0,1.088065099E1
2.618667364E0,7.882114887E0,2.871409893E0,6.889570713E0,1.085536340E1
2.621073457E0,7.841415882E0,2.912109613E0,6.868023872E0,1.082302810E1
2.623479082E0,7.819868565E0,2.988720655E0,6.846477509E0,1.081466827E1
2.625884291E0,7.829445362E0,3.034208775E0,6.834506989E0,1.082668570E1
2.628290437E0,7.800715446E0,3.094061136E0,6.832112312E0,1.082137396E1
2.630696062E0,7.829445362E0,3.132366657E0,6.769865990E0,1.081401965E1
2.633101218E0,7.807898045E0,3.163489819E0,6.729166508E0,1.078205090E1
2.635506739E0,7.827050686E0,3.204189777E0,6.664525986E0,1.076779742E1
2.637912312E0,7.810292244E0,3.223342419E0,6.592702866E0,1.071701135E1
2.640318666E0,7.834232807E0,3.276012659E0,6.516091347E0,1.070359328E1
2.642724447E0,7.831839085E0,3.285588980E0,6.410751343E0,1.064098356E1
2.645129812E0,7.817474842E0,3.307135820E0,6.353292942E0,1.060256532E1
2.647536166E0,7.803109646E0,3.319106340E0,6.348504543E0,1.059285122E1
2.649941843E0,7.771986485E0,3.340653181E0,6.372445583E0,1.059111894E1
2.652346999E0,7.728892803E0,3.364594221E0,6.389204502E0,1.057724976E1
2.654752520E0,7.685799122E0,3.381352901E0,6.444268227E0,1.058459487E1
2.657157676E0,7.652281761E0,3.390929461E0,6.475391865E0,1.058236829E1
2.659563301E0,7.623552799E0,3.395717382E0,6.494544983E0,1.057490276E1
2.661968718E0,7.602005482E0,3.443599463E0,6.552002907E0,1.061025950E1
2.664373822E0,7.561306000E0,3.445993662E0,6.530456066E0,1.056858918E1
2.666779655E0,7.554123878E0,3.481905222E0,6.511303425E0,1.056340494E1
2.669185385E0,7.525394440E0,3.496269703E0,6.480179787E0,1.052844686E1
2.671590853E0,7.542153358E0,3.515422344E0,6.446662903E0,1.052624027E1
2.673996374E0,7.511029720E0,3.536969423E0,6.417933464E0,1.049359758E1
2.676401739E0,7.484694481E0,3.551333904E0,6.386810303E0,1.046059127E1
2.678807416E0,7.443994999E0,3.587245464E0,6.341322422E0,1.041603387E1
2.681212885E0,7.391324520E0,3.625550985E0,6.329351902E0,1.038445924E1
2.683617780E0,7.357807636E0,3.647097826E0,6.307805061E0,1.035505000E1
2.686023614E0,7.276408195E0,3.668644667E0,6.226405144E0,1.025539814E1
2.688429447E0,7.206979275E0,3.706950426E0,6.154582500E0,1.017648847E1
2.690834916E0,7.116003513E0,3.714132786E0,6.056424141E0,1.005547422E1
2.693240645E0,7.022633553E0,3.754832506E0,5.955872536E0,9.944273067E0
2.695646374E0,6.929263592E0,3.805108309E0,5.836167336E0,9.826209459E0
2.698052676E0,6.840682030E0,3.824261189E0,5.728432655E0,9.707463364E0
2.700458614E0,6.732947826E0,3.881719589E0,5.623092651E0,9.592679728E0
2.702864082E0,6.606060505E0,3.910448790E0,5.553663731E0,9.474957834E0
2.705270280E0,6.486355782E0,3.941571951E0,5.515358448E0,9.382322718E0
2.707675853E0,6.359467983E0,4.006212711E0,5.472264290E0,9.297217314E0
2.710081166E0,6.256522179E0,4.058883190E0,5.455505848E0,9.240191913E0
2.712486635E0,6.148787498E0,4.099582672E0,5.405230045E0,9.155909438E0
2.714892051E0,6.053023815E0,4.161828995E0,5.362135887E0,9.094636835E0
2.717298197E0,5.985989094E0,4.212105751E0,5.309465885E0,9.042362981E0
2.719703978E0,5.890224934E0,4.257593155E0,5.240036964E0,8.959901597E0
2.722109499E0,5.861495495E0,4.338992596E0,5.182578564E0,8.946681326E0
2.724515593E0,5.794461250E0,4.389268875E0,5.115543842E0,8.888771076E0
2.726921062E0,5.748973370E0,4.461091518E0,5.093997002E0,8.882614356E0
2.729326322E0,5.722638130E0,4.501791000E0,5.053297520E0,8.862873417E0
2.731731947E0,5.681938171E0,4.552067757E0,5.043720722E0,8.856910351E0
2.734137364E0,5.648421288E0,4.614314079E0,5.043720722E0,8.867675918E0
2.736543353E0,5.607721329E0,4.662196159E0,5.041327000E0,8.865528154E0
2.738949082E0,5.569415569E0,4.690925121E0,5.048508644E0,8.860621186E0
2.741354135E0,5.540686607E0,4.748383522E0,5.038932323E0,8.867761449E0
2.743759916E0,5.492804527E0,4.789083004E0,5.005415440E0,8.840837139E0
2.746165489E0,5.480834007E0,4.827388763E0,4.947957039E0,8.821876362E0
2.748570749E0,5.490410805E0,4.844147682E0,4.861769199E0,8.789037337E0
2.750976322E0,5.490410805E0,4.884847164E0,4.730093956E0,8.739572727E0
2.753381791E0,5.468863487E0,4.884847164E0,4.588841915E0,8.650298826E0
2.755787728E0,5.437740326E0,4.918364525E0,4.409284592E0,8.555765311E0
2.758193510E0,5.389858246E0,4.935122967E0,4.236909389E0,8.447331637E0
2.760598770E0,5.353946686E0,4.932729244E0,4.119598866E0,8.364667221E0
2.763004655E0,5.265365124E0,4.937517166E0,4.004682064E0,8.254733435E0
2.765410020E0,5.162419319E0,4.942305565E0,3.940041542E0,8.160936520E0
2.767815072E0,5.059472561E0,4.959064007E0,3.884976864E0,8.079828194E0
2.770220645E0,4.946949959E0,4.937517166E0,3.873006344E0,7.990717602E0
2.772626426E0,4.810486794E0,4.949487686E0,3.865824223E0,7.910929684E0
2.775032624E0,4.674022675E0,4.971034527E0,3.887371063E0,7.852981982E0
2.777438249E0,4.544741631E0,4.963852882E0,3.956799984E0,7.807097927E0
2.779843457E0,4.465736389E0,5.006946087E0,3.980741024E0,7.801192839E0
2.782249291E0,4.334060669E0,5.026099205E0,4.026228905E0,7.762491500E0
2.784654603E0,4.235902786E0,5.050040245E0,4.011864185E0,7.716270675E0
2.787059603E0,4.176050186E0,5.078769207E0,3.999893665E0,7.696261505E0
2.789465124E0,4.116197586E0,5.102710247E0,3.961587906E0,7.659955168E0
2.791870801E0,4.080286026E0,5.148198128E0,3.930464745E0,7.655144096E0
2.794277207E0,4.056344986E0,5.210444450E0,3.853853703E0,7.645577439E0
2.796683041E0,4.037192822E0,5.241567612E0,3.770060539E0,7.614874482E0
2.799088249E0,4.032403946E0,5.265508652E0,3.681478977E0,7.585456506E0
2.801494499E0,4.006069183E0,5.322967052E0,3.590503216E0,7.567977397E0
2.803900541E0,3.979733706E0,5.382819653E0,3.516285896E0,7.561566920E0
2.806305801E0,3.953398943E0,5.423519135E0,3.461221695E0,7.551422292E0
2.808711426E0,3.929457903E0,5.464219093E0,3.458827496E0,7.567153848E0
2.811117312E0,3.874393702E0,5.521677494E0,3.451645374E0,7.577183163E0
2.813523666E0,3.821723461E0,5.567165375E0,3.470798016E0,7.592452791E0
2.815929707E0,3.788206100E0,5.619835854E0,3.466009617E0,7.612245605E0
2.818335176E0,3.749900341E0,5.679687977E0,3.461221695E0,7.635487129E0
2.820741426E0,3.718777180E0,5.715599537E0,3.456433296E0,7.644888025E0
2.823147155E0,3.663712978E0,5.780240059E0,3.475586414E0,7.675524011E0
2.825552260E0,3.625407457E0,5.787422180E0,3.480374336E0,7.664909670E0
2.827958093E0,3.558372736E0,5.847274780E0,3.454039097E0,7.667008867E0
2.830364082E0,3.532037497E0,5.883186340E0,3.439674854E0,7.675840898E0
2.832770176E0,3.515278578E0,5.899945259E0,3.432492733E0,7.677795511E0
2.835175749E0,3.476973057E0,5.943038464E0,3.434886456E0,7.694640523E0
2.837581218E0,3.462608576E0,5.976556301E0,3.422915936E0,7.708776613E0
2.839987416E0,3.443455935E0,6.017255783E0,3.413339615E0,7.727589744E0
2.842393145E0,3.429091215E0,6.036408901E0,3.387004375E0,7.724551613E0
2.844798562E0,3.419514894E0,6.089078426E0,3.372640133E0,7.755298812E0
2.847204447E0,3.419514894E0,6.122596264E0,3.358275414E0,7.775428019E0
2.849610280E0,3.376421213E0,6.160901546E0,3.382216454E0,7.797199254E0
2.852016739E0,3.374027014E0,6.172872066E0,3.396581173E0,7.811860950E0
2.854422728E0,3.306992054E0,6.208783627E0,3.477980137E0,7.847390420E0
2.856828301E0,3.268686771E0,6.235118866E0,3.535438538E0,7.877838925E0
2.859234864E0,3.220804691E0,6.247089386E0,3.621626377E0,7.906698823E0
2.861641114E0,3.144193411E0,6.263848305E0,3.676690578E0,7.914531028E0
2.864046687E0,3.086735249E0,6.290183067E0,3.767666340E0,7.955479066E0
2.866452468E0,3.019700527E0,6.299759865E0,3.810760021E0,7.957855086E0
2.868858353E0,2.971818447E0,6.342853069E0,3.798789501E0,7.968330541E0
2.871264603E0,2.923936367E0,6.402705669E0,3.794001102E0,7.996154584E0
2.873670385E0,2.866477966E0,6.436223030E0,3.782030582E0,7.996587907E0
2.876075697E0,2.813807964E0,6.488893032E0,3.750907421E0,8.005782568E0
2.878481843E0,2.763531685E0,6.536775112E0,3.724572659E0,8.014922191E0
2.880887624E0,2.718043804E0,6.587051392E0,3.707813740E0,8.032738691E0
2.883293145E0,2.677344084E0,6.639721870E0,3.652749538E0,8.037204554E0
2.885698666E0,2.639038563E0,6.685209751E0,3.645567417E0,8.058952522E0
2.888104082E0,2.598338842E0,6.730697155E0,3.621626377E0,8.072783073E0
2.890510332E0,2.564821720E0,6.754638195E0,3.592896938E0,8.069222764E0
2.892916426E0,2.500180960E0,6.807308674E0,3.540226936E0,8.069917160E0
2.895322103E0,2.452298880E0,6.824067116E0,3.506709576E0,8.054729905E0
2.897728405E0,2.433146238E0,6.869554996E0,3.504315376E0,8.086483335E0
2.900134239E0,2.385264158E0,6.886313438E0,3.480374336E0,8.076125519E0
2.902539343E0,2.349352598E0,6.907860756E0,3.468403816E0,8.078850344E0
2.904944864E0,2.318229437E0,6.953348637E0,3.458827496E0,8.104735198E0
2.907350437E0,2.299076557E0,6.984471798E0,3.475586414E0,8.133160532E0
2.909756218E0,2.306258917E0,7.027565479E0,3.466009617E0,8.168153367E0
2.912161739E0,2.296682358E0,7.089812279E0,3.485162735E0,8.227183436E0
2.914566843E0,2.296682358E0,7.123329639E0,3.463615894E0,8.247012190E0
2.916972312E0,2.323017597E0,7.156846523E0,3.480374336E0,8.290347908E0
2.919377364E0,2.337382078E0,7.216699123E0,3.444462776E0,8.331171888E0
2.921782051E0,2.380475998E0,7.255005360E0,3.408551693E0,8.361817589E0
2.924187364E0,2.435540199E0,7.324433804E0,3.353487015E0,8.415762696E0
2.926592937E0,2.478633881E0,7.393862724E0,3.288846493E0,8.463412028E0
2.928998978E0,2.509757519E0,7.451321125E0,3.252934933E0,8.508974967E0
2.931404812E0,2.504969120E0,7.508779049E0,3.240964413E0,8.553390171E0
2.933810020E0,2.502574921E0,7.542296886E0,3.272087574E0,8.593932781E0
2.936216010E0,2.516939640E0,7.590178490E0,3.307999134E0,8.653823024E0
2.938621739E0,2.492998600E0,7.626090050E0,3.365457535E0,8.700494002E0
2.941026791E0,2.447510719E0,7.688336849E0,3.461221695E0,8.779572191E0
2.943432155E0,2.380475998E0,7.712277889E0,3.590503216E0,8.833889832E0
2.945837676E0,2.330199957E0,7.764948368E0,3.700631618E0,8.911729875E0
2.948243562E0,2.272741318E0,7.798465252E0,3.827518940E0,8.979494118E0
2.950649187E0,2.212889194E0,7.853529453E0,3.961587906E0,9.070225036E0
2.953054395E0,2.119519234E0,7.899017811E0,4.133963585E0,9.163869220E0
2.955460332E0,2.088395834E0,7.922958851E0,4.251274109E0,9.230818255E0
2.957865749E0,2.050090313E0,7.975628376E0,4.354220390E0,9.315189396E0
2.960270645E0,2.033331633E0,8.011539459E0,4.457166195E0,9.390715230E0
2.962675957E0,1.999814391E0,8.054634094E0,4.533777714E0,9.456824433E0
2.965081478E0,1.978267550E0,8.104909897E0,4.576871395E0,9.515821494E0
2.967487416E0,1.961508870E0,8.138426781E0,4.603206158E0,9.553586470E0
2.969892885E0,1.961508870E0,8.159974098E0,4.634329796E0,9.586955043E0
2.972298041E0,1.956720471E0,8.198279381E0,4.648694515E0,9.625533778E0
2.974703926E0,1.975873590E0,8.231796265E0,4.631936073E0,9.649941864E0
2.977109135E0,1.956720471E0,8.255737305E0,4.627147198E0,9.664183599E0
2.979513822E0,1.968690991E0,8.267707825E0,4.607995033E0,9.667696474E0
2.981919135E0,2.002208471E0,8.294043541E0,4.552930355E0,9.671048125E0
2.984324916E0,1.987843871E0,8.279678345E0,4.509836674E0,9.635518853E0
2.986731270E0,1.997420192E0,8.277284622E0,4.440407753E0,9.603142671E0
2.989137051E0,1.966297030E0,8.277284622E0,4.332673550E0,9.547346480E0
2.991542416E0,1.959114671E0,8.277284622E0,4.189027309E0,9.481535783E0
2.993948510E0,1.927991509E0,8.243766785E0,4.074110985E0,9.395489470E0
2.996354030E0,1.853774428E0,8.210249901E0,3.952012062E0,9.298552705E0
2.998759135E0,1.798710108E0,8.195885658E0,3.837095261E0,9.226657023E0
3.001164499E0,1.695763946E0,8.145608902E0,3.734148979E0,9.119782253E0
3.003569864E0,1.595211625E0,8.109697342E0,3.669508457E0,9.043073782E0
3.005975801E0,1.506630063E0,8.064209938E0,3.626414299E0,8.969520430E0
3.008381166E0,1.386925220E0,8.028298378E0,3.640779018E0,8.923699248E0
3.010786114E0,1.286373019E0,8.016327858E0,3.621626377E0,8.890019431E0
3.013191947E0,1.238491058E0,7.980416775E0,3.664720058E0,8.868544701E0
3.015597364E0,1.116391897E0,7.970840931E0,3.703025341E0,8.859629377E0
3.018002624E0,1.066115856E0,7.968446255E0,3.731754780E0,8.863336419E0
3.020408353E0,9.918987751E-1,7.958870411E0,3.765272141E0,8.860290948E0
3.022813614E0,9.727460146E-1,7.982811451E0,3.777242661E0,8.884766490E0
3.025219343E0,9.440169334E-1,7.992387295E0,3.794001102E0,8.897407881E0
3.027624916E0,9.368345737E-1,8.021116257E0,3.839489460E0,8.941903843E0
3.030029968E0,9.009230137E-1,8.030693054E0,3.863430023E0,8.957108057E0
3.032435645E0,9.296523333E-1,8.059421539E0,3.870612621E0,8.988891538E0
3.034841166E0,9.224698544E-1,8.104909897E0,3.880188942E0,9.033071532E0
3.037246374E0,9.535932541E-1,8.148003578E0,3.882583141E0,9.075998802E0
3.039651635E0,9.727460146E-1,8.186308861E0,3.899341583E0,9.119580712E0
3.042056895E0,1.018233895E0,8.238979340E0,3.863430023E0,9.156619047E0
3.044462520E0,1.046963215E0,8.298831940E0,3.882583141E0,9.221778320E0
3.046867780E0,1.092450976E0,8.341925621E0,3.858642101E0,9.255824710E0
3.049272676E0,1.099633336E0,8.396989822E0,3.827518940E0,9.293467210E0
3.051678353E0,1.157091618E0,8.444871902E0,3.820336342E0,9.340754371E0
3.054083666E0,1.193003178E0,8.490359306E0,3.817942142E0,9.385421671E0
3.056488405E0,1.231308699E0,8.538241386E0,3.801183701E0,9.426912783E0
3.058893457E0,1.250461578E0,8.569364548E0,3.758090019E0,9.440386830E0
3.061298562E0,1.255249619E0,8.564577103E0,3.734148979E0,9.427168247E0
3.063703822E0,1.252855539E0,8.607670784E0,3.717390060E0,9.459420288E0
3.066109030E0,1.236096859E0,8.600487709E0,3.738936901E0,9.459174035E0
3.068514030E0,1.185820818E0,8.583729744E0,3.803577900E0,9.463286542E0
3.070919655E0,1.147515297E0,8.566970825E0,3.884976864E0,9.476435285E0
3.073324968E0,1.087662816E0,8.559788704E0,3.978346825E0,9.501591262E0
3.075729916E0,1.066115856E0,8.528664589E0,4.069322586E0,9.509685010E0
3.078135228E0,1.042174935E0,8.473600388E0,4.141145229E0,9.488788960E0
3.080540593E0,9.942928553E-1,8.447265625E0,4.186633587E0,9.480127405E0
3.082946322E0,9.847165346E-1,8.411354065E0,4.253668308E0,9.477037403E0
3.085351791E0,9.631696939E-1,8.368260384E0,4.268033028E0,9.443070668E0
3.087757103E0,9.200758934E-1,8.306014061E0,4.270426750E0,9.384719168E0
3.090163197E0,8.817702532E-1,8.272496223E0,4.294367790E0,9.362334499E0
3.092568457E0,8.530410528E-1,8.217432022E0,4.268033028E0,9.298923271E0
3.094973197E0,8.314942122E-1,8.148003578E0,4.268033028E0,9.235661907E0
3.097378718E0,8.027650118E-1,8.107303619E0,4.239303589E0,9.183926097E0
3.099784447E0,7.740358114E-1,8.066603661E0,4.220150948E0,9.136678832E0
3.102190385E0,7.524889708E-1,8.018722534E0,4.191421986E0,9.079326461E0
3.104595957E0,7.141833305E-1,7.999569416E0,4.186633587E0,9.057100500E0
3.107001166E0,7.070010900E-1,7.970840931E0,4.193815708E0,9.034503079E0
3.109406843E0,7.812181711E-1,7.980416775E0,4.263244152E0,9.081442861E0
3.111812103E0,7.740358114E-1,7.954082012E0,4.062140465E0,8.964794323E0
3.114217260E0,6.878482103E-1,7.930140495E0,3.858642101E0,8.845868092E0
3.116622885E0,5.609610081E-1,7.930140495E0,3.786818981E0,8.805782391E0
3.119028249E0,4.723793566E-1,7.894228935E0,3.846671581E0,8.794252384E0
3.121433718E0,4.316796958E-1,7.891835213E0,3.940041542E0,8.831270449E0
3.123839030E0,3.454921544E-1,7.903805733E0,4.054958344E0,8.890005459E0
3.126244030E0,2.616986930E-1,7.894228935E0,4.114810467E0,8.906121595E0
3.128649707E0,2.449400127E-1,7.939716816E0,4.124386787E0,8.950400276E0
3.131055124E0,2.209990025E-1,7.922958851E0,4.095657825E0,8.921688771E0
3.133460176E0,2.090285122E-1,7.927746773E0,4.071716785E0,8.914692333E0
3.135865541E0,2.186049223E-1,7.918169975E0,3.997499466E0,8.872722573E0
3.138271166E0,2.090285122E-1,7.949293613E0,3.990317345E0,8.897055377E0
3.140677051E0,2.114225924E-1,7.949293613E0,3.949617863E0,8.878932916E0
3.143082312E0,2.042403221E-1,7.966052532E0,3.896947384E0,8.870507650E0
3.145487364E0,1.970579922E-1,7.970840931E0,3.911312103E0,8.880962750E0
3.147893249E0,2.114225924E-1,7.989993572E0,3.906523705E0,8.896382650E0
3.150298249E0,1.300232708E-1,8.006752014E0,3.887371063E0,8.901496371E0
3.152702989E0,1.204468608E-1,7.999569416E0,3.884976864E0,8.893855380E0
3.155108666E0,1.060822606E-1,8.001963615E0,3.892159462E0,8.898965132E0
3.157514030E0,8.932358027E-2,8.004357338E0,3.942435265E0,8.923032607E0
3.159919603E0,6.538258493E-2,8.021116257E0,3.961587906E0,8.946326599E0
3.162324760E0,3.665339947E-2,8.018722534E0,4.021440506E0,8.970687727E0
3.164729447E0,3.425930440E-2,8.018722534E0,4.007076263E0,8.964248154E0
3.167135332E0,4.862388968E-2,8.030693054E0,4.031017303E0,8.985738462E0
3.169541062E0,1.989470422E-2,8.028298378E0,4.033411026E0,8.984563159E0
3.171946166E0,1.750060916E-2,8.035480499E0,3.985528946E0,8.969598325E0
3.174351478E0,-2.319906652E-2,8.018722534E0,3.990317345E0,8.956733879E0
3.176756895E0,-2.080495656E-2,8.047451019E0,3.971164703E0,8.973965113E0
3.179162832E0,-7.108104229E-2,8.042663574E0,3.987923145E0,8.977361578E0
3.181568353E0,-1.261453182E-1,8.040268898E0,3.959194183E0,8.963094063E0
3.183973510E0,-1.405099034E-1,8.028298378E0,3.930464745E0,8.939903299E0
3.186379239E0,-1.764213890E-1,8.018722534E0,3.925676823E0,8.929836174E0
3.188784760E0,-2.123328745E-1,8.009145737E0,3.932858944E0,8.925182360E0
3.191190124E0,-2.434561551E-1,8.013934135E0,3.928071022E0,8.928166283E0
3.193595541E0,-2.697912455E-1,8.009145737E0,3.928071022E0,8.924625746E0
3.196001166E0,-2.913381159E-1,8.001963615E0,3.906523705E0,8.909389825E0
3.198407520E0,-3.057027459E-1,7.994781971E0,3.916100502E0,8.907627971E0
3.200813510E0,-3.368260264E-1,7.992387295E0,3.952012062E0,8.922449539E0
3.203218770E0,-3.799197674E-1,7.985205173E0,3.978346825E0,8.929450383E0
3.205624499E0,-3.871020675E-1,7.973234653E0,4.052563667E0,8.952407002E0
3.208029707E0,-4.301958680E-1,7.956475735E0,4.102839947E0,8.962358519E0
3.210434812E0,-4.349840581E-1,7.942111492E0,4.148327827E0,8.970784238E0
3.212840280E0,-4.708955288E-1,7.920564175E0,4.196209908E0,8.975815118E0
3.215245645E0,-4.780778289E-1,7.903805733E0,4.203392506E0,8.964776184E0
3.217651530E0,-4.613191485E-1,7.889441013E0,4.172268867E0,8.936661701E0
3.220057103E0,-4.373781383E-1,7.870288372E0,4.141145229E0,8.904034058E0
3.222462416E0,-4.301958680E-1,7.848741531E0,4.105233669E0,8.867962313E0
3.224868301E0,-4.062548876E-1,7.827194691E0,4.057352066E0,8.825651565E0
3.227273822E0,-3.751316071E-1,7.808041573E0,3.997499466E0,8.779876930E0
3.229678770E0,-3.248555064E-1,7.784100533E0,3.968770504E0,8.743505676E0
3.232084187E0,-2.985204458E-1,7.772130013E0,3.889765263E0,8.696286172E0
3.234489760E0,-3.080968261E-1,7.764948368E0,3.868218422E0,8.680579507E0
3.236895697E0,-2.865499258E-1,7.755371571E0,3.844277382E0,8.660621666E0
3.239301374E0,-3.080968261E-1,7.755371571E0,3.839489460E0,8.659237332E0
3.241706687E0,-3.392201066E-1,7.731430531E0,3.877794743E0,8.656060328E0
3.244112572E0,-3.655551970E-1,7.752977848E0,3.894553661E0,8.683884173E0
3.246517885E0,-4.254076779E-1,7.736218452E0,3.947223663E0,8.695436866E0
3.248922624E0,-4.373781383E-1,7.714671612E0,3.772454262E0,8.598771358E0
3.251327572E0,-5.307480097E-1,7.690730572E0,4.136357307E0,8.748627432E0
3.253732989E0,-5.618712902E-1,7.697913170E0,4.332673550E0,8.851306491E0
3.256139030E0,-5.858122706E-1,7.705095768E0,3.746119499E0,8.587496033E0
3.258544551E0,-6.624234319E-1,7.664395809E0,4.533777714E0,8.929552524E0
3.260949864E0,-6.911525726E-1,7.676366329E0,3.937647343E0,8.655019266E0
3.263355593E0,-7.414287329E-1,7.618907928E0,4.208180428E0,8.735345276E0
3.265760853E0,-7.629755735E-1,7.640454769E0,4.402102470E0,8.850829733E0
3.268166010E0,-7.366404533E-1,7.602149010E0,3.784424782E0,8.523918093E0
3.270571270E0,-7.677638531E-1,7.573420048E0,4.497866154E0,8.841773153E0
3.272976530E0,-7.174876928E-1,7.571026325E0,3.827518940E0,8.513819909E0
3.275382207E0,-7.079112530E-1,7.542296886E0,4.174663067E0,8.649577584E0
3.277787520E0,-6.504529715E-1,7.508779049E0,4.284791470E0,8.669734126E0
3.280192260E0,-6.193296909E-1,7.484838486E0,3.801183701E0,8.417563421E0
3.282597624E0,-6.289060712E-1,7.446532726E0,4.596024513E0,8.773244201E0
3.285002728E0,-5.499007702E-1,7.439350605E0,3.961587906E0,8.446330980E0
3.287407468E0,-5.283539295E-1,7.391468525E0,4.445195675E0,8.641338404E0
3.289812364E0,-4.685014188E-1,7.374709606E0,4.476319313E0,8.639633670E0
3.292217520E0,-3.942843676E-1,7.357951164E0,4.167480946E0,8.465388528E0
3.294623353E0,-3.607670069E-1,7.307675362E0,4.909651279E0,8.811183105E0
3.297028978E0,-2.650030255E-1,7.312463284E0,4.234515190E0,8.454198056E0
3.299433874E0,-2.171210647E-1,7.278946400E0,4.835434437E0,8.741374517E0
3.301839343E0,-1.285394132E-1,7.300492764E0,4.727699757E0,8.698555165E0
3.304244395E0,-3.756365180E-2,7.271763802E0,4.509836674E0,8.556785999E0
3.306648874E0,3.665339947E-2,7.255005360E0,5.175396442E0,8.911855844E0
3.309053926E0,1.683288217E-1,7.302886486E0,4.469136715E0,8.563507961E0
3.311459030E0,2.401517928E-1,7.240640163E0,5.110755444E0,8.865910222E0
3.313864395E0,3.359157741E-1,7.278946400E0,4.900074959E0,8.781038361E0
3.316269551E0,4.077387154E-1,7.274157524E0,4.782763958E0,8.715185002E0
3.318674499E0,4.604088962E-1,7.262187004E0,5.433959007E0,9.081808571E0
3.321080489E0,5.418082476E-1,7.300492764E0,4.770793438E0,8.737918562E0
3.323485957E0,5.537787676E-1,7.271763802E0,5.546481609E0,9.162351115E0
3.325890697E0,6.279958487E-1,7.302886486E0,5.268765926E0,9.026983117E0
3.328295905E0,6.495426893E-1,7.302886486E0,5.295101166E0,9.043901431E0
3.330701218E0,6.615132093E-1,7.338798046E0,5.843349934E0,9.404270037E0
3.333106947E0,7.237597704E-1,7.360345364E0,5.199337482E0,9.040554316E0
3.335512312E0,7.165774107E-1,7.350768566E0,5.996572018E0,9.513472429E0
3.337917260E0,7.860063314E-1,7.408226967E0,5.548875332E0,9.289222260E0
3.340322832E0,8.075531721E-1,7.396256447E0,5.627881050E0,9.328976185E0
3.342727937E0,8.243118525E-1,7.413015842E0,5.998966217E0,9.571827912E0
3.345132572E0,8.674057722E-1,7.424986362E0,5.335800648E0,9.184420712E0
3.347537520E0,8.745880127E-1,7.446532726E0,6.161765099E0,9.704797935E0
3.349942312E0,9.009230137E-1,7.465685844E0,5.596757412E0,9.373997063E0
3.352347624E0,9.296523333E-1,7.499203205E0,5.738009453E0,9.488258779E0
3.354752728E0,9.344403744E-1,7.482444286E0,5.754767895E0,9.485647307E0
3.357157364E0,9.631696939E-1,7.515961647E0,5.819408894E0,9.554208246E0
3.359562989E0,9.751402140E-1,7.520749569E0,5.800255775E0,9.547541022E0
3.361968353E0,9.799282551E-1,7.539902687E0,5.802649975E0,9.564577285E0
3.364373301E0,9.990811348E-1,7.539902687E0,5.817014694E0,9.575278356E0
3.366778353E0,1.011051655E0,7.566237450E0,5.824196815E0,9.601637524E0
3.369183770E0,1.003869295E0,7.602149010E0,5.821803093E0,9.627762688E0
3.371589760E0,1.054145455E0,7.614119530E0,5.840955734E0,9.654159867E0
3.373995332E0,1.046963215E0,7.630878448E0,5.833773613E0,9.662264353E0
3.376400905E0,1.082874537E0,7.669184208E0,5.874473095E0,9.721030697E0
3.378807103E0,1.085268617E0,7.695518970E0,5.915173054E0,9.766682776E0
3.381212676E0,1.133150697E0,7.729036808E0,5.922354698E0,9.802873337E0
3.383617885E0,1.159485817E0,7.769736290E0,5.896019936E0,9.822232967E0
3.386023457E0,1.173850298E0,7.820012093E0,5.862502575E0,9.843751830E0
3.388429030E0,1.202579498E0,7.822406292E0,5.850532055E0,9.841999948E0
3.390834916E0,1.231308699E0,7.863106251E0,5.864896774E0,9.886433897E0
3.393240489E0,1.243279219E0,7.865499973E0,5.862502575E0,9.888415924E0
3.395645645E0,1.255249619E0,7.887047291E0,5.850532055E0,9.899994540E0
3.398051426E0,1.260037899E0,7.901411533E0,5.850532055E0,9.912049488E0
3.400456739E0,1.236096859E0,7.894228935E0,5.884049416E0,9.923145845E0
3.402861999E0,1.226520538E0,7.906199455E0,5.903202534E0,9.942843789E0
3.405267520E0,1.183426738E0,7.918169975E0,5.963054657E0,9.982781949E0
3.407672937E0,1.166668057E0,7.906199455E0,6.001360416E0,9.994269910E0
3.410078874E0,1.099633336E0,7.930140495E0,6.077971458E0,1.005176894E1
3.412484447E0,1.075692296E0,7.922958851E0,6.066000938E0,1.003627213E1
3.414889447E0,1.008657575E0,7.889441013E0,6.089941978E0,1.001738803E1
3.417294968E0,9.607754946E-1,7.887047291E0,6.058818817E0,9.991891211E0
3.419699968E0,8.889524937E-1,7.906199455E0,6.044454098E0,9.991679123E0
3.422104707E0,8.051590919E-1,7.896623135E0,5.991784096E0,9.945170423E0
3.424509968E0,7.093951702E-1,7.894228935E0,5.924749374E0,9.895693363E0
3.426915072E0,5.825079679E-1,7.855923653E0,5.852926254E0,9.813847243E0
3.429320437E0,4.723793566E-1,7.851135731E0,5.805044174E0,9.775582458E0
3.431725489E0,3.407039344E-1,7.846347332E0,5.702097893E0,9.705419414E0
3.434130072E0,2.281812727E-1,7.860712051E0,5.601545811E0,9.655059612E0
3.436535228E0,1.012940705E-1,7.858317852E0,5.539299488E0,9.614949754E0
3.438940176E0,1.031832397E-2,7.901411533E0,5.433959007E0,9.589594422E0
3.441344968E0,-7.826333493E-2,7.922958851E0,5.323830605E0,9.545814497E0
3.443750489E0,-1.405099034E-1,7.944505215E0,5.199337482E0,9.495684093E0
3.446155905E0,-1.883918792E-1,7.966052532E0,5.101179600E0,9.461264067E0
3.448561582E0,-2.386679649E-1,7.997175694E0,4.993444920E0,9.431133211E0
3.450966895E0,-2.626089454E-1,8.018722534E0,4.909651279E0,9.406037966E0
3.453371843E0,-2.817617357E-1,8.073785782E0,4.816281319E0,9.405422493E0
3.455777520E0,-3.080968261E-1,8.095333099E0,4.739670277E0,9.385830596E0
3.458182624E0,-2.865499258E-1,8.143215179E0,4.698970318E0,9.406082413E0
3.460587624E0,-2.961263359E-1,8.219825745E0,4.651088238E0,9.449118894E0
3.462992937E0,-2.817617357E-1,8.219825745E0,4.648694515E0,9.447501556E0
3.465398093E0,-2.578207254E-1,8.255737305E0,4.675029278E0,9.491025694E0
3.467803978E0,-2.482443452E-1,8.286861420E0,4.720517159E0,9.540281950E0
3.470209395E0,-2.386679649E-1,8.329955101E0,4.775581837E0,9.604753837E0
3.472614499E0,-2.123328745E-1,8.368260384E0,4.864163399E0,9.681578005E0
3.475020228E0,-1.955741793E-1,8.408959389E0,4.928803921E0,9.748946371E0
3.477425020E0,-1.931800842E-1,8.432900429E0,5.031750202E0,9.821895860E0
3.479829447E0,-1.836036891E-1,8.442477226E0,5.134696484E0,9.883027877E0
3.482234655E0,-1.644508988E-1,8.456841469E0,5.211308002E0,9.934935472E0
3.484640072E0,-1.668449938E-1,8.437689781E0,5.273554325E0,9.951523568E0
3.487045801E0,-1.548745036E-1,8.411354065E0,5.328618526E0,9.958365263E0
3.489451114E0,-1.381158084E-1,8.413748741E0,5.376500607E0,9.985840106E0
3.491855957E0,-1.596626937E-1,8.396989822E0,5.448323250E0,1.001095183E1
3.494261530E0,-1.524803936E-1,8.392201424E0,5.505781651E0,1.003822328E1
3.496667051E0,-1.548745036E-1,8.351501465E0,5.532116890E0,1.001877638E1
3.499072103E0,-1.812095940E-1,8.346714020E0,5.517752171E0,1.000730038E1
3.501477260E0,-1.907859743E-1,8.339531898E0,5.522540569E0,1.000413144E1
3.503882312E0,-1.979682744E-1,8.306014061E0,5.536905289E0,9.984306746E0
3.506287885E0,-2.266974598E-1,8.272496223E0,5.558451653E0,9.969050621E0
3.508693353E0,-2.290915549E-1,8.282073021E0,5.589575291E0,9.994426867E0
3.511098197E0,-2.362738550E-1,8.282073021E0,5.608727932E0,1.000531798E1
3.513503822E0,-2.290915549E-1,8.277284622E0,5.611122608E0,1.000253071E1
3.515909135E0,-2.673971355E-1,8.282073021E0,5.611122608E0,1.000744381E1
3.518313614E0,-2.506384552E-1,8.298831940E0,5.594363213E0,1.001150992E1
3.520718718E0,-2.099387646E-1,8.279678345E0,5.579998970E0,9.986667927E0
3.523124395E0,-2.195151746E-1,8.320378304E0,5.608727932E0,1.003666832E1
3.525530541E0,-2.338797599E-1,8.313196182E0,5.644639492E0,1.005116339E1
3.527936270E0,-2.506384552E-1,8.334742546E0,5.659004211E0,1.007745412E1
3.530341687E0,-2.602148354E-1,8.344319344E0,5.656610012E0,1.008427558E1
3.532747728E0,-2.171210647E-1,8.346714020E0,5.659004211E0,1.008658045E1
3.535153145E0,-2.290915549E-1,8.351501465E0,5.651822090E0,1.008678108E1
3.537558145E0,-2.003623843E-1,8.351501465E0,5.635063171E0,1.007678812E1
3.539963510E0,-1.548745036E-1,8.351501465E0,5.630274773E0,1.007330913E1
3.542368822E0,-1.381158084E-1,8.344319344E0,5.570422173E0,1.003376024E1
3.544774655E0,-1.213571206E-1,8.363471985E0,5.551270008E0,1.003887394E1
3.547179968E0,-9.023384005E-2,8.346714020E0,5.556057930E0,1.002724074E1
3.549585072E0,-7.347514480E-2,8.370655060E0,5.553663731E0,1.004571777E1
3.551991062E0,-1.122857630E-2,8.370655060E0,5.534511089E0,1.003487943E1
3.554396374E0,7.419139147E-4,8.356289864E0,5.570422173E0,1.004276775E1
3.556801114E0,4.383569956E-2,8.361077309E0,5.587181568E0,1.005614902E1
3.559206530E0,4.383569956E-2,8.339531898E0,5.587181568E0,1.003824246E1
3.561611895E0,8.692947030E-2,8.351501465E0,5.599152088E0,1.005512991E1
3.564017364E0,1.180527508E-1,8.351501465E0,5.620698452E0,1.006746067E1
3.566422728E0,1.324173510E-1,8.353896141E0,5.620698452E0,1.006962592E1
3.568827728E0,1.683288217E-1,8.339531898E0,5.668580532E0,1.008508464E1
3.571233353E0,1.850875318E-1,8.361077309E0,5.687733173E0,1.011395965E1
3.573638666E0,1.874816418E-1,8.380230904E0,5.721251011E0,1.014870102E1
3.576043718E0,2.329694927E-1,8.361077309E0,5.721251011E0,1.013383450E1
3.578449447E0,2.401517928E-1,8.370655060E0,5.730827332E0,1.014731102E1
3.580855437E0,2.784573734E-1,8.370655060E0,5.678156853E0,1.011863972E1
3.583261791E0,3.047924638E-1,8.375442505E0,5.611122608E0,1.008591258E1
3.585667885E0,3.191570342E-1,8.399383545E0,5.584786892E0,1.009164753E1
3.588073353E0,3.407039344E-1,8.385018349E0,5.515358448E0,1.004210091E1
3.590479447E0,3.718272150E-1,8.408959389E0,5.472264290E0,1.003964790E1
3.592885176E0,3.957681954E-1,8.418537140E0,5.410017967E0,1.001482374E1
3.595290645E0,4.412560761E-1,8.428112984E0,5.340589046E0,9.987476496E0
3.597696843E0,4.723793566E-1,8.454447746E0,5.319042206E0,9.999651941E0
3.600102780E0,4.747734368E-1,8.449659348E0,5.273554325E0,9.971586039E0
3.602508770E0,4.891380966E-1,8.452054024E0,5.275948524E0,9.975575479E0
3.604914187E0,5.298377275E-1,8.464024544E0,5.244824886E0,9.971390454E0
3.607318978E0,5.011085272E-1,8.478388786E0,5.242430687E0,9.980844938E0
3.609724499E0,5.011085272E-1,8.468812943E0,5.237642765E0,9.970195793E0
3.612129760E0,4.963203967E-1,8.473600388E0,5.204125404E0,9.956463162E0
3.614534603E0,4.747734368E-1,8.471206665E0,5.225672245E0,9.964657676E0
3.616939916E0,4.580147564E-1,8.456841469E0,5.199337482E0,9.937859699E0
3.619344916E0,4.580147564E-1,8.468812943E0,5.187366962E0,9.941797935E0
3.621750280E0,4.436502159E-1,8.447265625E0,5.151455402E0,9.904070618E0
3.624155593E0,4.436502159E-1,8.480782509E0,5.134696484E0,9.923991407E0
3.626560645E0,4.484383762E-1,8.475995064E0,5.101179600E0,9.902808824E0
3.628966635E0,4.771675766E-1,8.507117271E0,5.089209080E0,9.924655270E0
3.631371999E0,4.699852765E-1,8.499936104E0,5.065268040E0,9.905894217E0
3.633776999E0,5.106849670E-1,8.480782509E0,5.029356480E0,9.873140215E0
3.636182364E0,5.130790472E-1,8.490359306E0,5.034144402E0,9.883929437E0
3.638587416E0,5.202612877E-1,8.483176231E0,5.022173882E0,9.872040381E0
3.640992832E0,5.082908869E-1,8.509512901E0,5.019779682E0,9.892843752E0
3.643398249E0,5.154731274E-1,8.509512901E0,5.012597561E0,9.889573129E0
3.645803457E0,5.130790472E-1,8.502329826E0,5.024568081E0,9.889345124E0
3.648209187E0,5.250495672E-1,8.521482468E0,5.038932323E0,9.913736907E0
3.650614343E0,5.442023277E-1,8.499936104E0,5.072449684E0,9.913365510E0
3.653019135E0,5.226554871E-1,8.504723549E0,5.110755444E0,9.935960578E0
3.655424291E0,5.298377275E-1,8.521482468E0,5.141879082E0,9.966710187E0
3.657829499E0,5.298377275E-1,8.531058311E0,5.137090683E0,9.972431229E0
3.660235124E0,5.250495672E-1,8.535847664E0,5.125120163E0,9.970116803E0
3.662640489E0,5.465964079E-1,8.545423508E0,5.146667004E0,9.990556131E0
3.665045489E0,5.801137686E-1,8.552605629E0,5.163425922E0,1.000722550E1
3.667451322E0,5.872961283E-1,8.559788704E0,5.156243324E0,1.001008215E1
3.669856582E0,5.944783688E-1,8.578940392E0,5.129908562E0,1.001337029E1
3.672261166E0,6.184194088E-1,8.557394028E0,5.122725964E0,9.992685145E0
3.674666218E0,6.303899288E-1,8.550211906E0,5.132302284E0,9.992199049E0
3.677071635E0,6.375721693E-1,8.564577103E0,5.151455402E0,1.001478767E1
3.679477416E0,6.112370491E-1,8.569364548E0,5.129908562E0,1.000617716E1
3.681882780E0,6.088429689E-1,8.533453941E0,5.122725964E0,9.971602039E0
3.684287885E0,6.064488888E-1,8.543029785E0,5.129908562E0,9.983341125E0
3.686693718E0,5.944783688E-1,8.497541428E0,5.161031723E0,9.959812412E0
3.689099082E0,5.777196884E-1,8.495147705E0,5.137090683E0,9.944395168E0
3.691504343E0,5.896902084E-1,8.468812943E0,5.156243324E0,9.932541086E0
3.693910072E0,5.825079679E-1,8.447265625E0,5.180184364E0,9.926223961E0
3.696315645E0,5.681433678E-1,8.420930862E0,5.168213844E0,9.896731673E0
3.698721582E0,5.561728477E-1,8.399383545E0,5.170608044E0,9.878975641E0
3.701126947E0,5.777196884E-1,8.385018349E0,5.165819645E0,9.865494684E0
3.703531791E0,5.729315281E-1,8.382624626E0,5.141879082E0,9.850663259E0
3.705937624E0,5.561728477E-1,8.380230904E0,5.141879082E0,9.847665649E0
3.708342937E0,5.537787676E-1,8.380230904E0,5.122725964E0,9.837543505E0
3.710747989E0,5.513846874E-1,8.370655060E0,5.086814404E0,9.810584691E0
3.713153562E0,5.633550882E-1,8.377836227E0,5.050902843E0,9.798833009E0
3.715558874E0,5.442023277E-1,8.420930862E0,5.041327000E0,9.829710610E0
3.717964499E0,5.513846874E-1,8.389807701E0,5.070055962E0,9.818266944E0
3.720369916E0,5.202612877E-1,8.413748741E0,5.055691242E0,9.829641582E0
3.722774916E0,4.963203967E-1,8.399383545E0,5.093997002E0,9.835892604E0
3.725180645E0,4.843498766E-1,8.430506706E0,5.134696484E0,9.882972534E0
3.727586166E0,4.388619959E-1,8.423324585E0,5.141879082E0,9.878457238E0
3.729991322E0,4.244973958E-1,8.430506706E0,5.180184364E0,9.903936157E0
3.732396791E0,4.077387154E-1,8.449659348E0,5.204125404E0,9.932065000E0
3.734802207E0,3.622508347E-1,8.461630821E0,5.237642765E0,9.958078306E0
3.737208041E0,3.502803743E-1,8.473600388E0,5.280736446E0,9.990534384E0
3.739613457E0,3.502803743E-1,8.468812943E0,5.275948524E0,9.983943200E0
3.742018718E0,3.430980146E-1,8.478388786E0,5.271160603E0,9.989290603E0
3.744424603E0,3.574626148E-1,8.475995064E0,5.249613285E0,9.976407745E0
3.746829864E0,3.239452541E-1,8.487965584E0,5.242430687E0,9.981662176E0
3.749235020E0,3.574626148E-1,8.490359306E0,5.223278522E0,9.974799206E0
3.751640801E0,3.622508347E-1,8.485571861E0,5.173001766E0,9.944651967E0
3.754046530E0,3.454921544E-1,8.471206665E0,5.170608044E0,9.930553596E0
3.756452364E0,3.694331348E-1,8.459236145E0,5.105967522E0,9.887672190E0
3.758857728E0,3.837976754E-1,8.464024544E0,5.098784924E0,9.888610612E0
3.761262937E0,3.837976754E-1,8.452054024E0,5.089209080E0,9.873427314E0
3.763669135E0,4.053446352E-1,8.449659348E0,5.082026482E0,9.868537912E0
3.766075072E0,3.837976754E-1,8.459236145E0,5.079632282E0,9.874646370E0
3.768480541E0,3.885859549E-1,8.449659348E0,5.084420204E0,9.869096764E0
3.770886218E0,4.197091758E-1,8.473600388E0,5.082026482E0,9.889643698E0
3.773291739E0,4.149210155E-1,8.468812943E0,5.072449684E0,9.880419925E0
3.775697468E0,3.957681954E-1,8.459236145E0,5.079632282E0,9.875118872E0
3.778103093E0,4.125268757E-1,8.459236145E0,5.096390724E0,9.884434885E0
3.780508614E0,4.101327956E-1,8.456841469E0,5.091602802E0,9.879817591E0
3.782914968E0,3.957681954E-1,8.456841469E0,5.074843884E0,9.870604872E0
3.785320801E0,4.053446352E-1,8.483176231E0,5.096390724E0,9.904634353E0
3.787726062E0,4.221033156E-1,8.478388786E0,5.125120163E0,9.916052859E0
3.790131791E0,4.053446352E-1,8.468812943E0,5.127514362E0,9.908405546E0
3.792537364E0,3.837976754E-1,8.478388786E0,5.139484882E0,9.921929345E0
3.794943041E0,3.646449149E-1,8.478388786E0,5.105967522E0,9.903885432E0
3.797348510E0,3.287334442E-1,8.473600388E0,5.105967522E0,9.898528857E0
3.799753718E0,3.335216343E-1,8.444871902E0,5.108361244E0,9.875345702E0
3.802159655E0,3.263393641E-1,8.459236145E0,5.098784924E0,9.882448140E0
3.804565176E0,2.976101637E-1,8.447265625E0,5.062873363E0,9.852794276E0
3.806970228E0,2.712750733E-1,8.423324585E0,5.046114922E0,9.822894840E0
3.809375749E0,2.616986930E-1,8.430506706E0,5.043720722E0,9.827565734E0
3.811781270E0,2.545163929E-1,8.396989822E0,5.034144402E0,9.793713623E0
3.814187103E0,2.425458729E-1,8.380230904E0,5.034144402E0,9.779044348E0
3.816592364E0,2.449400127E-1,8.351501465E0,5.048508644E0,9.761916403E0
3.818997468E0,2.305754125E-1,8.308407784E0,5.055691242E0,9.728454083E0
3.821403457E0,2.114225924E-1,8.272496223E0,5.084420204E0,9.712374689E0
3.823809082E0,1.802993119E-1,8.231796265E0,5.093997002E0,9.682137318E0
3.826214291E0,1.443878412E-1,8.212644577E0,5.096390724E0,9.666518360E0
3.828619655E0,1.300232708E-1,8.150397301E0,5.132302284E0,9.632570215E0
3.831025020E0,1.060822606E-1,8.114485741E0,5.156243324E0,9.614727115E0
3.833430645E0,6.538258493E-2,8.061815262E0,5.201731205E0,9.594537390E0
3.835836114E0,2.947109938E-2,8.011539459E0,5.242430687E0,9.574377920E0
3.838241322E0,1.510649920E-2,7.987598896E0,5.261583805E0,9.564843358E0
3.840647260E0,-1.652181149E-3,7.975628376E0,5.340589046E0,9.598569794E0
3.843052676E0,1.510649920E-2,7.944505215E0,5.323830605E0,9.563397075E0
3.845457416E0,2.468290925E-2,7.915776253E0,5.328618526E0,9.542237596E0
3.847862780E0,7.495898008E-2,7.901411533E0,5.331012726E0,9.531926340E0
3.850268457E0,6.059437990E-2,7.901411533E0,5.347771168E0,9.541207070E0
3.852674551E0,7.974718511E-2,7.889441013E0,5.376500607E0,9.547585972E0
3.855079968E0,5.341207981E-2,7.903805733E0,5.419594288E0,9.583579715E0
3.857484916E0,3.904750943E-2,7.887047291E0,5.462687969E0,9.594164869E0
3.859890749E0,2.468290925E-2,7.908593655E0,5.517752171E0,9.643238660E0
3.862295905E0,-4.046276212E-3,7.930140495E0,5.563240528E0,9.686939136E0
3.864700697E0,-5.432235450E-2,7.956475735E0,5.603940010E0,9.732039903E0
3.867106166E0,-5.192825198E-2,7.980416775E0,5.639851570E0,9.772291143E0
3.869511478E0,-5.911055207E-2,8.018722534E0,5.666186333E0,9.818812183E0
3.871917103E0,-7.347514480E-2,8.047451019E0,5.663792610E0,9.841006719E0
3.874322364E0,-9.981022775E-2,8.061815262E0,5.627881050E0,9.832388952E0
3.876727416E0,-1.237512156E-1,8.112092018E0,5.591969490E0,9.853500599E0
3.879133249E0,-1.548745036E-1,8.140821457E0,5.541693211E0,9.849229602E0
3.881538718E0,-1.716331840E-1,8.169549942E0,5.469870567E0,9.833132168E0
3.883943718E0,-1.740272939E-1,8.210249901E0,5.412411690E0,9.835277791E0
3.886348978E0,-1.740272939E-1,8.222220421E0,5.333406925E0,9.802062210E0
3.888754551E0,-1.907859743E-1,8.248556137E0,5.283130646E0,9.797272429E0
3.891160228E0,-1.668449938E-1,8.267707825E0,5.204125404E0,9.770657662E0
3.893565072E0,-1.668449938E-1,8.262920380E0,5.125120163E0,9.724738924E0
3.895969812E0,-1.213571206E-1,8.267707825E0,5.055691242E0,9.691735353E0
3.898375593E0,-1.022043228E-1,8.289255142E0,4.995838642E0,9.678873916E0
3.900781010E0,-9.023384005E-2,8.284466743E0,4.909651279E0,9.630431302E0
3.903186166E0,-6.389874220E-2,8.262920380E0,4.825858116E0,9.569161029E0
3.905591530E0,-2.080495656E-2,8.265314102E0,4.744458199E0,9.530253598E0
3.907996947E0,-8.834481239E-3,8.217432022E0,4.679817677E0,9.456582923E0
3.910403041E0,3.136023879E-3,8.188703537E0,4.622359276E0,9.403248414E0
3.912808822E0,5.101798475E-2,8.174338341E0,4.588841915E0,9.374426930E0
3.915214291E0,6.777667999E-2,8.133638382E0,4.533777714E0,9.312132267E0
3.917620541E0,9.889996052E-2,8.102515221E0,4.526595592E0,9.281734847E0
3.920026582E0,1.683288217E-1,8.073785782E0,4.543354511E0,9.265874036E0
3.922432051E0,1.946639121E-1,8.028298378E0,4.550536156E0,9.230322215E0
3.924837572E0,2.233931124E-1,8.001963615E0,4.576871395E0,9.221121296E0
3.927243093E0,2.329694927E-1,7.999569416E0,4.617571354E0,9.239553606E0
3.929648874E0,2.425458729E-1,7.946899891E0,4.643906593E0,9.207492320E0
3.932054239E0,2.880337536E-1,7.946899891E0,4.670241356E0,9.222111236E0
3.934459082E0,3.239452541E-1,7.942111492E0,4.737276554E0,9.253316413E0
3.936864447E0,3.933741152E-1,7.956475735E0,4.754034996E0,9.276912097E0
3.939269760E0,4.484383762E-1,7.973234653E0,4.763611317E0,9.298685961E0
3.941674812E0,5.394141674E-1,7.992387295E0,4.794734478E0,9.335882445E0
3.944080228E0,5.801137686E-1,8.016327858E0,4.787552357E0,9.355143071E0
3.946485593E0,6.519367695E-1,8.047451019E0,4.751640797E0,9.368275173E0
3.948891270E0,7.117892504E-1,8.071392059E0,4.763611317E0,9.399255635E0
3.951296635E0,7.740358114E-1,8.092939377E0,4.742064476E0,9.411799758E0
3.953701582E0,8.195236921E-1,8.126456261E0,4.720517159E0,9.433673340E0
3.956107312E0,8.578293324E-1,8.155185699E0,4.737276554E0,9.470201376E0
3.958512468E0,8.961348534E-1,8.164762497E0,4.725306034E0,9.476018226E0
3.960917260E0,9.488050938E-1,8.183915138E0,4.715729237E0,9.492881561E0
3.963322885E0,9.895048141E-1,8.215038300E0,4.734881878E0,9.533366690E0
3.965728510E0,1.042174935E0,8.222220421E0,4.732487679E0,9.543975947E0
3.968134447E0,1.123574257E0,8.241373062E0,4.751640797E0,9.579182602E0
3.970540228E0,1.169062138E0,8.248556137E0,4.725306034E0,9.577781671E0
3.972945541E0,1.202579498E0,8.258131981E0,4.675029278E0,9.565502601E0
3.975351270E0,1.267220140E0,8.286861420E0,4.682211876E0,9.602136592E0
3.977756374E0,1.310313940E0,8.277284622E0,4.698970318E0,9.607844992E0
3.980161166E0,1.360589981E0,8.296437263E0,4.694182396E0,9.628988770E0
3.982566374E0,1.391713262E0,8.284466743E0,4.686999798E0,9.619626923E0
3.984971895E0,1.410866141E0,8.270102501E0,4.708547115E0,9.620579742E0
3.987378093E0,1.427624822E0,8.270102501E0,4.698970318E0,9.618369407E0
3.989783822E0,1.446777582E0,8.262920380E0,4.634329796E0,9.583633509E0
3.992189135E0,1.494659543E0,8.246161461E0,4.581659794E0,9.551167073E0
3.994595280E0,1.602393985E0,8.238979340E0,4.598418236E0,9.570470067E0
3.997001166E0,1.743645787E0,8.243766785E0,4.598418236E0,9.599241725E0
3.999406478E0,1.870533109E0,8.258131981E0,4.610388756E0,9.641126615E0
4.001812155E0,2.078819513E0,8.265314102E0,4.634329796E0,9.701232934E0
4.004218249E0,2.241618156E0,8.267707825E0,4.703758717E0,9.772675718E0
4.006624707E0,2.370899677E0,8.248556137E0,4.809098721E0,9.838052355E0
4.009030801E0,2.459481239E0,8.253343582E0,4.962321281E0,9.939384325E0
4.011436582E0,2.521727800E0,8.234190941E0,5.127514362E0,1.002259523E1
4.013842832E0,2.588762760E0,8.222220421E0,5.278342247E0,1.010779393E1
4.016248510E0,2.617491722E0,8.179126740E0,5.465082169E0,1.017921904E1
4.018653926E0,2.691708803E0,8.169549942E0,5.670974731E0,1.030275676E1
4.021060124E0,2.722832203E0,8.131244659E0,5.886443615E0,1.040101790E1
4.023466322E0,2.749167204E0,8.092939377E0,6.097124577E0,1.049897691E1
4.025872416E0,2.751561165E0,8.066603661E0,6.331746101E0,1.061754172E1
4.028277885E0,2.727620363E0,8.023509979E0,6.563973427E0,1.071925242E1
4.030682832E0,2.696496964E0,7.978023052E0,6.753107548E0,1.079464725E1
4.033088822E0,2.655797482E0,7.934929371E0,6.942240715E0,1.087249146E1
4.035494655E0,2.603127241E0,7.851135731E0,7.124192238E0,1.091653419E1
4.037900020E0,2.583974361E0,7.803253651E0,7.255867958E0,1.096427430E1
4.040305853E0,2.543274641E0,7.748188972E0,7.375572681E0,1.099553321E1
4.042711582E0,2.509757519E0,7.700307369E0,7.447395802E0,1.100260517E1
4.045117624E0,2.483422279E0,7.664395809E0,7.478519440E0,1.099266130E1
4.047523249E0,2.428357840E0,7.602149010E0,7.478519440E0,1.093699430E1
4.049928614E0,2.390052319E0,7.571026325E0,7.416272640E0,1.086434027E1
4.052334812E0,2.320623398E0,7.511173725E0,7.339661598E0,1.075516881E1
4.054740853E0,2.279923916E0,7.496808529E0,7.196015358E0,1.063874185E1
4.057146374E0,2.186553955E0,7.458503246E0,7.042793274E0,1.048862365E1
4.059551999E0,2.136277914E0,7.451321125E0,6.851265430E0,1.034532299E1
4.061957572E0,2.078819513E0,7.451321125E0,6.674101830E0,1.021701093E1
4.064363249E0,2.035725594E0,7.453715324E0,6.456238747E0,1.006901532E1
4.066768770E0,1.956720471E0,7.472867966E0,6.214435101E0,9.914217783E0
4.069173822E0,1.911232829E0,7.492020607E0,5.953478336E0,9.758436760E0
4.071579655E0,1.875321269E0,7.544690609E0,5.704492092E0,9.642635339E0
4.073985280E0,1.817862868E0,7.597361088E0,5.498599529E0,9.552963817E0
