"Time (s)","Acceleration x (m/s^2)","Acceleration y (m/s^2)","Acceleration z (m/s^2)","Absolute acceleration (m/s^2)"
1.186927100E-2,1.164273858E0,-6.800748825E0,7.124192238E0,9.917652607E0
1.427224000E-2,1.164273858E0,-6.800748825E0,7.124192238E0,9.917652607E0
1.669994800E-2,1.159485817E0,-6.841448307E0,7.138557434E0,9.955341508E0
1.915244800E-2,1.159485817E0,-6.841448307E0,7.138557434E0,9.955341508E0
2.160520800E-2,1.161879778E0,-6.836660385E0,7.131374836E0,9.947180349E0
2.405849000E-2,1.195397139E0,-6.851024628E0,7.124192238E0,9.955884080E0
2.651192700E-2,1.219338179E0,-6.865389347E0,7.136162758E0,9.977232852E0
2.896531300E-2,1.236096859E0,-6.870177746E0,7.126586914E0,9.975746526E0
3.141875000E-2,1.245673299E0,-6.858207226E0,7.145739555E0,9.982399617E0
3.387224000E-2,1.276796579E0,-6.874965668E0,7.155315876E0,1.000469428E1
3.632572900E-2,1.283978939E0,-6.870177746E0,7.164892197E0,1.000917701E1
3.877921900E-2,1.305525780E0,-6.867783546E0,7.174468994E0,1.001717793E1
4.123265600E-2,1.315102220E0,-6.858207226E0,7.157710075E0,9.999865685E0
4.368614600E-2,1.312708020E0,-6.865389347E0,7.160103798E0,1.000619107E1
4.613958300E-2,1.327072620E0,-6.841448307E0,7.167286396E0,9.996826044E0
4.859302100E-2,1.315102220E0,-6.846236706E0,7.143345356E0,9.981374342E0
5.104645800E-2,1.305525780E0,-6.848630905E0,7.136162758E0,9.976620758E0
5.349989600E-2,1.319890380E0,-6.824689865E0,7.138557434E0,9.963809744E0
5.595333300E-2,1.315102220E0,-6.798354626E0,7.109827995E0,9.924554075E0
5.840677100E-2,1.310313940E0,-6.800748825E0,7.109827995E0,9.925561008E0
6.086020800E-2,1.300737500E0,-6.781595707E0,7.105040073E0,9.907752158E0
6.331369800E-2,1.281584740E0,-6.774414062E0,7.112221718E0,9.905495601E0
6.576718800E-2,1.264826059E0,-6.786384106E0,7.066734314E0,9.878943671E0
6.822067700E-2,1.243279219E0,-6.764837265E0,7.073916435E0,9.866562733E0
7.067416700E-2,1.226520538E0,-6.764837265E0,7.061945915E0,9.855884332E0
7.312765600E-2,1.226520538E0,-6.743290424E0,7.016458511E0,9.808517137E0
7.558114600E-2,1.219338179E0,-6.755260944E0,7.004487991E0,9.807302791E0
7.803458300E-2,1.200185418E0,-6.738502502E0,6.978152275E0,9.774582865E0
8.048802100E-2,1.188214898E0,-6.752866745E0,6.954211235E0,9.765967326E0
8.294151100E-2,1.188214898E0,-6.750473022E0,6.963788033E0,9.771135268E0
8.539500000E-2,1.190608978E0,-6.755260944E0,6.959000111E0,9.771324511E0
8.784849000E-2,1.207367659E0,-6.745684147E0,6.908723831E0,9.731004894E0
9.030197900E-2,1.188214898E0,-6.755260944E0,6.908723831E0,9.735289931E0
9.275546900E-2,1.214550018E0,-6.752866745E0,6.908723831E0,9.736878658E0
9.520895800E-2,1.240885139E0,-6.752866745E0,6.899147511E0,9.733408528E0
9.766244800E-2,1.248067379E0,-6.764837265E0,6.906329155E0,9.747721672E0
1.001159380E-1,1.274402499E0,-6.757654667E0,6.932664871E0,9.764826703E0
1.025694270E-1,1.279190660E0,-6.760049343E0,6.937452793E0,9.770509051E0
1.050229170E-1,1.279190660E0,-6.764837265E0,6.942240715E0,9.777221390E0
1.074764060E-1,1.291161180E0,-6.774414062E0,6.944635391E0,9.787121323E0
1.099298960E-1,1.279190660E0,-6.781595707E0,6.992517471E0,9.824544247E0
1.123833860E-1,1.293555260E0,-6.798354626E0,7.004487991E0,9.846510186E0
1.148368750E-1,1.305525780E0,-6.807931423E0,7.071522236E0,9.902462045E0
1.172903650E-1,1.283978939E0,-6.810325146E0,7.064340591E0,9.896162817E0
1.197438540E-1,1.324678540E0,-6.831872463E0,7.100251198E0,9.941972725E0
1.221973440E-1,1.295949459E0,-6.831872463E0,7.090675354E0,9.931346501E0
1.246507810E-1,1.288766980E0,-6.834266186E0,7.117010593E0,9.950877068E0
1.271042190E-1,1.305525780E0,-6.822295666E0,7.140951157E0,9.961992729E0
1.295576560E-1,1.283978939E0,-6.851024628E0,7.150527954E0,9.985749365E0
1.320110940E-1,1.283978939E0,-6.867783546E0,7.131374836E0,9.983564484E0
1.344645830E-1,1.298343420E0,-6.848630905E0,7.119404316E0,9.963702059E0
1.369180730E-1,1.288766980E0,-6.870177746E0,7.128981113E0,9.984119105E0
1.393493230E-1,1.272008419E0,-6.860601425E0,7.136162758E0,9.980514828E0
1.417568750E-1,1.286373019E0,-6.867783546E0,7.105040073E0,9.965079068E0
1.441621880E-1,1.281584740E0,-6.870177746E0,7.107433796E0,9.967819063E0
1.465671880E-1,1.286373019E0,-6.855813026E0,7.093069553E0,9.948294501E0
1.489728130E-1,1.269614339E0,-6.855813026E0,7.112221718E0,9.959808763E0
1.513783860E-1,1.272008419E0,-6.858207226E0,7.100251198E0,9.953219521E0
1.537841150E-1,1.272008419E0,-6.846236706E0,7.119404316E0,9.958658557E0
1.561892710E-1,1.269614339E0,-6.822295666E0,7.114616394E0,9.938481029E0
1.585942190E-1,1.255249619E0,-6.827084064E0,7.126586914E0,9.948515943E0
1.610002080E-1,1.248067379E0,-6.831872463E0,7.131374836E0,9.954328736E0
1.634056250E-1,1.221732259E0,-6.819901943E0,7.117010593E0,9.932549120E0
1.658106250E-1,1.236096859E0,-6.807931423E0,7.097857475E0,9.912388534E0
1.682162500E-1,1.248067379E0,-6.805536747E0,7.114616394E0,9.924251560E0
1.706218750E-1,1.255249619E0,-6.807931423E0,7.109827995E0,9.923368178E0
1.730276560E-1,1.255249619E0,-6.788778305E0,7.107433796E0,9.908520457E0
1.754333330E-1,1.257643819E0,-6.755260944E0,7.114616394E0,9.891055800E0
1.778388020E-1,1.245673299E0,-6.772019863E0,7.090675354E0,9.883806553E0
1.802450000E-1,1.255249619E0,-6.750473022E0,7.073916435E0,9.858236727E0
1.826507290E-1,1.262431979E0,-6.750473022E0,7.105040073E0,9.881508740E0
1.850557810E-1,1.257643819E0,-6.719349384E0,7.054763794E0,9.823493081E0
1.874611460E-1,1.274402499E0,-6.736108303E0,7.052370071E0,9.835404436E0
1.898666670E-1,1.269614339E0,-6.702590942E0,7.052370071E0,9.811858618E0
1.922725520E-1,1.262431979E0,-6.733713627E0,7.038004875E0,9.821921723E0
1.946780730E-1,1.274402499E0,-6.719349384E0,7.004487991E0,9.789617454E0
1.970832290E-1,1.250461578E0,-6.702590942E0,7.136162758E0,9.869812481E0
1.994892190E-1,1.264826059E0,-6.700196743E0,6.566367149E0,9.466234674E0
2.018950000E-1,1.238491058E0,-6.721743107E0,7.507248402E0,1.015255973E1
2.043004170E-1,1.255249619E0,-6.681043625E0,6.767471790E0,9.592219240E0
2.067061980E-1,1.212155938E0,-6.695408344E0,7.095463276E0,9.830738223E0
2.091121880E-1,1.238491058E0,-6.714561462E0,7.181651115E0,9.909354594E0
2.115186980E-1,1.240885139E0,-6.702590942E0,6.702831268E0,9.559940809E0
2.139247920E-1,1.212155938E0,-6.750473022E0,7.430637360E0,1.011200176E1
2.163300520E-1,1.228914618E0,-6.709773064E0,6.731560230E0,9.583589559E0
2.187357810E-1,1.202579498E0,-6.743290424E0,7.193621159E0,9.933093605E0
2.211415110E-1,1.209761739E0,-6.721743107E0,7.097857475E0,9.850123583E0
2.235466150E-1,1.200185418E0,-6.724137783E0,6.774654388E0,9.620312679E0
2.259518750E-1,1.178638577E0,-6.733713627E0,7.411484241E0,1.008276682E1
2.283573440E-1,1.212155938E0,-6.728925705E0,6.721983910E0,9.588160973E0
2.307634900E-1,1.173850298E0,-6.757654667E0,7.253473759E0,9.982820377E0
2.331691150E-1,1.185820818E0,-6.748078823E0,7.066734314E0,9.842838649E0
2.355741670E-1,1.193003178E0,-6.752866745E0,6.865629673E0,9.703676451E0
2.379801040E-1,1.190608978E0,-6.757654667E0,7.428243160E0,1.011247956E1
2.403858330E-1,1.202579498E0,-6.736108303E0,6.721983910E0,9.591997717E0
2.427909380E-1,1.190608978E0,-6.788778305E0,7.337267399E0,1.006680453E1
2.451962500E-1,1.216944218E0,-6.772019863E0,7.057157993E0,9.856200343E0
2.476017710E-1,1.178638577E0,-6.774414062E0,6.951817513E0,9.778018282E0
2.500077610E-1,1.207367659E0,-6.793566227E0,7.413878441E0,1.012797474E1
2.524131250E-1,1.207367659E0,-6.757654667E0,6.750713348E0,9.627863936E0
2.548179170E-1,1.190608978E0,-6.783990383E0,7.401907921E0,1.011080195E1
2.572234900E-1,1.204973698E0,-6.776807785E0,6.999699593E0,9.816968970E0
2.596287500E-1,1.200185418E0,-6.776807785E0,7.002093315E0,9.818089406E0
2.620335420E-1,1.221732259E0,-6.769625187E0,7.394725800E0,1.009962497E1
2.644389060E-1,1.214550018E0,-6.755260944E0,6.743530750E0,9.622052232E0
2.668442190E-1,1.231308699E0,-6.755260944E0,7.452184200E0,1.013334697E1
2.692498960E-1,1.267220140E0,-6.733713627E0,6.939846992E0,9.752446994E0
2.716552610E-1,1.233702779E0,-6.757654667E0,7.085886955E0,9.869027971E0
2.740603130E-1,1.264826059E0,-6.733713627E0,7.380361557E0,1.007037342E1
2.764660940E-1,1.248067379E0,-6.714561462E0,6.769865990E0,9.616345113E0
2.788714580E-1,1.243279219E0,-6.748078823E0,7.466548920E0,1.014059484E1
2.812764060E-1,1.274402499E0,-6.719349384E0,6.875206470E0,9.697536898E0
2.836817190E-1,1.252855539E0,-6.731319904E0,7.112221718E0,9.872386359E0
2.860870310E-1,1.262431979E0,-6.707378864E0,7.270232201E0,9.971907640E0
2.884927080E-1,1.272008419E0,-6.700196743E0,6.729166508E0,9.580831055E0
2.908980730E-1,1.260037899E0,-6.716955185E0,7.437819481E0,1.010080893E1
2.933029690E-1,1.312708020E0,-6.704984665E0,6.812959671E0,9.648649708E0
2.957086980E-1,1.274402499E0,-6.716955185E0,7.167286396E0,9.905129124E0
2.981140110E-1,1.295949459E0,-6.697802544E0,7.188833237E0,9.910568461E0
3.005191670E-1,1.322284460E0,-6.702590942E0,6.743530750E0,9.599394174E0
3.029247400E-1,1.303131700E0,-6.709773064E0,7.435425282E0,1.009974039E1
3.053303130E-1,1.353407741E0,-6.704984665E0,6.743530750E0,9.605401545E0
3.077363540E-1,1.315102220E0,-6.726531982E0,7.188833237E0,9.932524838E0
3.101417710E-1,1.339043140E0,-6.697802544E0,7.102645874E0,9.853992788E0
3.125468230E-1,1.324678540E0,-6.702590942E0,6.762683868E0,9.613188424E0
3.149527080E-1,1.327072620E0,-6.728925705E0,7.409090519E0,1.009624609E1
3.173581770E-1,1.362984180E0,-6.755260944E0,6.686072350E0,9.601814400E0
3.197633860E-1,1.312708020E0,-6.764837265E0,7.219956398E0,9.980681137E0
3.221689060E-1,1.339043140E0,-6.745684147E0,7.038004875E0,9.840264415E0
3.245741150E-1,1.305525780E0,-6.772019863E0,6.786624908E0,9.675894183E0
3.269795830E-1,1.293555260E0,-6.767231464E0,7.382755280E0,1.009820689E1
3.293847920E-1,1.319890380E0,-6.776807785E0,6.652555466E0,9.587686300E0
3.317893750E-1,1.260037899E0,-6.829477787E0,7.282202721E0,1.006279975E1
3.341946880E-1,1.305525780E0,-6.798354626E0,6.959000111E0,9.815788594E0
3.365999480E-1,1.293555260E0,-6.810325146E0,6.875206470E0,9.763312850E0
3.390051560E-1,1.295949459E0,-6.810325146E0,7.389937401E0,1.013267923E1
3.414108330E-1,1.322284460E0,-6.798354626E0,6.654949188E0,9.604915955E0
3.438165110E-1,1.288766980E0,-6.824689865E0,7.354025841E0,1.011528587E1
3.462225000E-1,1.343831301E0,-6.810325146E0,6.954211235E0,9.825856963E0
3.486278650E-1,1.343831301E0,-6.827084064E0,6.954211235E0,9.837480027E0
3.510329170E-1,1.346225381E0,-6.848630905E0,7.354025841E0,1.013892322E1
3.534390630E-1,1.379742742E0,-6.824689865E0,6.662131310E0,9.636600820E0
3.558449480E-1,1.355801821E0,-6.829477787E0,7.404302597E0,1.016384093E1
3.582504170E-1,1.406077862E0,-6.819901943E0,6.906329155E0,9.807420653E0
3.606562500E-1,1.367772341E0,-6.846236706E0,7.064340591E0,9.932102809E0
3.630619270E-1,1.398895621E0,-6.831872463E0,7.361208439E0,1.013995957E1
3.654677610E-1,1.420442581E0,-6.822295666E0,6.772259712E0,9.717246363E0
3.678732810E-1,1.386925220E0,-6.836660385E0,7.521612644E0,1.025856440E1
3.702785940E-1,1.410866141E0,-6.805536747E0,6.927876472E0,9.813324926E0
3.726847400E-1,1.367772341E0,-6.841448307E0,7.219956398E0,1.004011885E1
3.750903130E-1,1.382136941E0,-6.848630905E0,7.394725800E0,1.017329924E1
3.774954690E-1,1.384531021E0,-6.836660385E0,6.844082832E0,9.772324247E0
3.799010940E-1,1.382136941E0,-6.862995148E0,7.564706802E0,1.030707495E1
3.823067190E-1,1.370166421E0,-6.834266186E0,6.896753311E0,9.805598225E0
3.847130730E-1,1.353407741E0,-6.867783546E0,7.296567917E0,1.011128413E1
3.871192190E-1,1.353407741E0,-6.827084064E0,7.337267399E0,1.011317370E1
3.895248440E-1,1.322284460E0,-6.848630905E0,6.896753311E0,9.809046218E0
3.919309900E-1,1.315102220E0,-6.855813026E0,7.581465244E0,1.030583725E1
3.943363540E-1,1.336649060E0,-6.831872463E0,6.875206470E0,9.784149226E0
3.967414060E-1,1.298343420E0,-6.851024628E0,7.351631641E0,1.013255752E1
3.991471360E-1,1.322284460E0,-6.822295666E0,7.258262157E0,1.004860806E1
4.015527610E-1,1.317496300E0,-6.848630905E0,6.923088551E0,9.826937308E0
4.039582810E-1,1.281584740E0,-6.848630905E0,7.538372040E0,1.026514772E1
4.063633860E-1,1.283978939E0,-6.841448307E0,6.800989151E0,9.731776317E0
4.087682810E-1,1.248067379E0,-6.874965668E0,7.356420517E0,1.014592272E1
4.111741670E-1,1.269614339E0,-6.870177746E0,7.124192238E0,9.978245230E0
4.135795830E-1,1.236096859E0,-6.846236706E0,6.908723831E0,9.804557994E0
4.159845830E-1,1.226520538E0,-6.874965668E0,7.473731041E0,1.022869304E1
4.183898960E-1,1.245673299E0,-6.843842983E0,6.721983910E0,9.673414931E0
4.207950000E-1,1.183426738E0,-6.879754066E0,7.356420517E0,1.014142188E1
4.232005730E-1,1.209761739E0,-6.870177746E0,7.002093315E0,9.883935275E0
4.256056770E-1,1.169062138E0,-6.877359867E0,6.887176991E0,9.802958325E0
4.280102080E-1,1.202579498E0,-6.858207226E0,7.363602161E0,1.013429033E1
4.304155210E-1,1.209761739E0,-6.839054108E0,6.635796547E0,9.605726436E0
4.328203650E-1,1.171456337E0,-6.877359867E0,7.322902679E0,1.011411352E1
4.352247920E-1,1.216944218E0,-6.836660385E0,6.894359112E0,9.785349560E0
4.376297920E-1,1.181032658E0,-6.848630905E0,6.891964912E0,9.787633206E0
4.400352080E-1,1.188214898E0,-6.858207226E0,7.282202721E0,1.007359605E1
4.424411980E-1,1.209761739E0,-6.836660385E0,6.599884987E0,9.579244778E0
4.448467190E-1,1.161879778E0,-6.846236706E0,7.330084801E0,1.009708200E1
4.472519270E-1,1.238491058E0,-6.810325146E0,6.805777550E0,9.707368168E0
4.496576560E-1,1.212155938E0,-6.841448307E0,6.968576431E0,9.840517996E0
4.520629170E-1,1.224126458E0,-6.810325146E0,7.270232201E0,1.003669719E1
4.544678650E-1,1.250461578E0,-6.810325146E0,6.664525986E0,9.610415671E0
4.568732290E-1,1.214550018E0,-6.819901943E0,7.373178959E0,1.011681581E1
4.592785940E-1,1.252855539E0,-6.779201984E0,6.789019108E0,9.675639875E0
4.616841670E-1,1.238491058E0,-6.807931423E0,7.066734314E0,9.890425887E0
4.640893750E-1,1.252855539E0,-6.810325146E0,7.217562199E0,1.000216875E1
4.664941670E-1,1.267220140E0,-6.781595707E0,6.681284428E0,9.603928822E0
4.688998440E-1,1.279190660E0,-6.805536747E0,7.421061039E0,1.015006434E1
4.713050520E-1,1.315102220E0,-6.769625187E0,6.791412830E0,9.678874276E0
4.737093750E-1,1.288766980E0,-6.800748825E0,7.155315876E0,9.955382976E0
4.761141670E-1,1.310313940E0,-6.774414062E0,7.222351074E0,9.988591670E0
4.785195830E-1,1.312708020E0,-6.764837265E0,6.779442310E0,9.666802140E0
4.809254170E-1,1.315102220E0,-6.795960903E0,7.500065804E0,1.020615332E1
4.833305730E-1,1.324678540E0,-6.743290424E0,6.808171272E0,9.673568889E0
4.857354690E-1,1.312708020E0,-6.795960903E0,7.270232201E0,1.003815537E1
4.881413020E-1,1.353407741E0,-6.745684147E0,7.241503239E0,9.988760498E0
4.905465630E-1,1.365378261E0,-6.748078823E0,6.894359112E0,9.743357386E0
4.929513540E-1,1.360589981E0,-6.755260944E0,7.531189442E0,1.020801498E1
4.953565110E-1,1.379742742E0,-6.736108303E0,6.829718590E0,9.691434420E0
4.977616670E-1,1.346225381E0,-6.748078823E0,7.382755280E0,1.009227259E1
5.001673440E-1,1.389319181E0,-6.733713627E0,7.210380554E0,9.963066533E0
5.025726560E-1,1.384531021E0,-6.757654667E0,6.947029591E0,9.789997083E0
5.049778130E-1,1.372560501E0,-6.752866745E0,7.547947884E0,1.022040356E1
5.073836980E-1,1.408472061E0,-6.707378864E0,6.815353870E0,9.665493943E0
5.097891150E-1,1.367772341E0,-6.760049343E0,7.454578400E0,1.015577705E1
5.121941150E-1,1.422836661E0,-6.721743107E0,7.140951157E0,9.909564974E0
5.145994790E-1,1.382136941E0,-6.719349384E0,7.009275913E0,9.807645360E0
5.170047920E-1,1.377348781E0,-6.726531982E0,7.538372040E0,1.019658645E1
5.194103650E-1,1.403683782E0,-6.716955185E0,6.815353870E0,9.671445781E0
5.218155730E-1,1.334254861E0,-6.731319904E0,7.502460480E0,1.016748823E1
5.242202610E-1,1.351013660E0,-6.693014145E0,7.069128513E0,9.828237593E0
5.266258860E-1,1.355801821E0,-6.724137783E0,7.057157993E0,9.841529680E0
5.290312500E-1,1.353407741E0,-6.719349384E0,7.440213680E0,1.011623192E1
5.314358860E-1,1.322284460E0,-6.693014145E0,6.757895470E0,9.602813427E0
5.338408860E-1,1.283978939E0,-6.721743107E0,7.464154243E0,1.012640266E1
5.362460420E-1,1.329466820E0,-6.700196743E0,6.947029591E0,9.742758262E0
5.386514060E-1,1.288766980E0,-6.719349384E0,7.035610676E0,9.813785919E0
5.410564580E-1,1.300737500E0,-6.719349384E0,7.375572681E0,1.006184111E1
5.434609900E-1,1.310313940E0,-6.693014145E0,6.733954430E0,9.584336348E0
5.458663020E-1,1.288766980E0,-6.707378864E0,7.452184200E0,1.010865475E1
5.482715110E-1,1.329466820E0,-6.673861504E0,6.870418549E0,9.670085854E0
5.506765110E-1,1.298343420E0,-6.690620422E0,7.128981113E0,9.862680619E0
5.530820310E-1,1.274402499E0,-6.685832024E0,7.332479477E0,1.000448434E1
5.554873960E-1,1.305525780E0,-6.642738342E0,6.796200752E0,9.592638579E0
5.578929690E-1,1.281584740E0,-6.695408344E0,7.535977364E0,1.016178661E1
5.602984380E-1,1.305525780E0,-6.664285183E0,6.879994392E0,9.667027330E0
5.627034900E-1,1.283978939E0,-6.681043625E0,7.222351074E0,9.922061322E0
5.651090110E-1,1.312708020E0,-6.659496784E0,7.296567917E0,9.965540785E0
5.675140110E-1,1.329466820E0,-6.669073105E0,6.798595428E0,9.615868026E0
5.699188540E-1,1.322284460E0,-6.690620422E0,7.495277882E0,1.013370753E1
5.723243750E-1,1.382136941E0,-6.676255703E0,6.784230232E0,9.618132489E0
5.747296880E-1,1.327072620E0,-6.704984665E0,7.219956398E0,9.942118058E0
5.771353130E-1,1.348619580E0,-6.681043625E0,7.188833237E0,9.906282956E0
5.795406250E-1,1.322284460E0,-6.702590942E0,6.793807030E0,9.634779473E0
5.819457290E-1,1.317496300E0,-6.721743107E0,7.485701561E0,1.014659326E1
5.843516670E-1,1.307919860E0,-6.688226223E0,6.745924950E0,9.589083783E0
5.867573960E-1,1.274402499E0,-6.750473022E0,7.279808998E0,1.000942590E1
5.891626560E-1,1.288766980E0,-6.736108303E0,7.133769035E0,9.895793856E0
5.915677080E-1,1.257643819E0,-6.745684147E0,6.868023872E0,9.708536166E0
5.939727080E-1,1.233702779E0,-6.740896225E0,7.468942642E0,1.013641005E1
5.963782810E-1,1.245673299E0,-6.745684147E0,6.726772308E0,9.607571091E0
5.987837500E-1,1.219338179E0,-6.781595707E0,7.354025841E0,1.007762482E1
6.011890630E-1,1.226520538E0,-6.750473022E0,7.064340591E0,9.847748304E0
6.035951040E-1,1.250461578E0,-6.748078823E0,6.930270195E0,9.753402839E0
6.060007810E-1,1.216944218E0,-6.769625187E0,7.447395802E0,1.013767639E1
6.084058860E-1,1.260037899E0,-6.750473022E0,6.690860748E0,9.587710837E0
6.108113020E-1,1.238491058E0,-6.779201984E0,7.354025841E0,1.007834985E1
6.132169270E-1,1.276796579E0,-6.769625187E0,6.954211235E0,9.788722520E0
6.156231250E-1,1.262431979E0,-6.767231464E0,6.954211235E0,9.785203631E0
6.180286460E-1,1.274402499E0,-6.783990383E0,7.380361557E0,1.010526417E1
6.204335940E-1,1.286373019E0,-6.757654667E0,6.710013390E0,9.609627039E0
6.228391670E-1,1.269614339E0,-6.795960903E0,7.421061039E0,1.014244310E1
6.252440630E-1,1.303131700E0,-6.772019863E0,6.932664871E0,9.778560603E0
6.276489060E-1,1.288766980E0,-6.772019863E0,7.045187473E0,9.856766198E0
6.300543750E-1,1.291161180E0,-6.752866745E0,7.361208439E0,1.007252184E1
6.324598440E-1,1.303131700E0,-6.762443542E0,6.700437069E0,9.608571788E0
6.348658330E-1,1.281584740E0,-6.800748825E0,7.471336842E0,1.018398342E1
6.372714060E-1,1.319890380E0,-6.762443542E0,6.872812271E0,9.731819038E0
6.396764060E-1,1.281584740E0,-6.783990383E0,7.133769035E0,9.927519610E0
6.420823960E-1,1.291161180E0,-6.781595707E0,7.310932159E0,1.005519103E1
6.444881250E-1,1.295949459E0,-6.781595707E0,6.755501270E0,9.659519799E0
6.468929690E-1,1.276796579E0,-6.786384106E0,7.473731041E0,1.017555278E1
6.492982290E-1,1.300737500E0,-6.767231464E0,6.834506989E0,9.705556425E0
6.517035940E-1,1.288766980E0,-6.812719345E0,7.157710075E0,9.965283675E0
6.541096360E-1,1.286373019E0,-6.786384106E0,7.239109516E0,1.000572193E1
6.565153130E-1,1.310313940E0,-6.779201984E0,6.774654388E0,9.673181702E0
6.589204170E-1,1.310313940E0,-6.815113544E0,7.445002079E0,1.017795418E1
6.613263020E-1,1.334254861E0,-6.779201984E0,6.762683868E0,9.668076783E0
6.637317190E-1,1.293555260E0,-6.805536747E0,7.200803757E0,9.992006323E0
6.661367190E-1,1.317496300E0,-6.805536747E0,7.160103798E0,9.965852363E0
6.685421360E-1,1.315102220E0,-6.805536747E0,6.784230232E0,9.699000160E0
6.709473960E-1,1.312708020E0,-6.831872463E0,7.454578400E0,1.019649071E1
6.733528130E-1,1.341437340E0,-6.776807785E0,6.721983910E0,9.638964964E0
6.757580210E-1,1.310313940E0,-6.836660385E0,7.248685837E0,1.004989026E1
6.781630210E-1,1.310313940E0,-6.805536747E0,7.073916435E0,9.903158424E0
6.805687500E-1,1.341437340E0,-6.807931423E0,6.815353870E0,9.726069750E0
6.829739580E-1,1.351013660E0,-6.831872463E0,7.411484241E0,1.017004513E1
6.853789060E-1,1.374954700E0,-6.817507267E0,6.690860748E0,9.650726569E0
6.877844270E-1,1.336649060E0,-6.829477787E0,7.303750038E0,1.008826854E1
6.901898960E-1,1.382136941E0,-6.810325146E0,7.026034355E0,9.882104527E0
6.925955730E-1,1.391713262E0,-6.815113544E0,6.879994392E0,9.783504549E0
6.950010940E-1,1.396501541E0,-6.822295666E0,7.404302597E0,1.016452811E1
6.974063540E-1,1.394107461E0,-6.793566227E0,6.762683868E0,9.686587159E0
6.998125000E-1,1.415654302E0,-6.831872463E0,7.196015358E0,1.002303325E1
7.022185420E-1,1.406077862E0,-6.815113544E0,7.073916435E0,9.922858525E0
7.046239580E-1,1.396501541E0,-6.807931423E0,7.040399551E0,9.892692892E0
7.070297920E-1,1.432412982E0,-6.807931423E0,7.085886955E0,9.930233187E0
7.094357290E-1,1.437201142E0,-6.791172504E0,7.054763794E0,9.897235134E0
7.118421880E-1,1.439595342E0,-6.795960903E0,7.083492756E0,9.921360238E0
7.142482290E-1,1.465930462E0,-6.793566227E0,7.078704834E0,9.920159088E0
7.166536460E-1,1.475506783E0,-6.781595707E0,7.090675354E0,9.921937189E0
7.190597920E-1,1.453959942E0,-6.779201984E0,7.076310158E0,9.906853411E0
7.214655210E-1,1.477900863E0,-6.772019863E0,7.090675354E0,9.915751155E0
7.238708330E-1,1.463536263E0,-6.767231464E0,7.097857475E0,9.915489944E0
7.262765630E-1,1.430018902E0,-6.769625187E0,7.073916435E0,9.895103484E0
7.286823440E-1,1.446777582E0,-6.764837265E0,7.097857475E0,9.911395933E0
7.310883330E-1,1.451565742E0,-6.764837265E0,7.100251198E0,9.913810236E0
7.334936460E-1,1.458747983E0,-6.767231464E0,7.076310158E0,9.899370324E0
7.358985940E-1,1.468324542E0,-6.767231464E0,7.095463276E0,9.914484240E0
7.383044790E-1,1.470718503E0,-6.783990383E0,7.088280678E0,9.921152221E0
7.407097920E-1,1.473112702E0,-6.762443542E0,7.085886955E0,9.905074338E0
7.431148960E-1,1.465930462E0,-6.764837265E0,7.083492756E0,9.903930783E0
7.455205730E-1,1.473112702E0,-6.762443542E0,7.081099033E0,9.901649722E0
7.479259380E-1,1.461142182E0,-6.764837265E0,7.069128513E0,9.892953939E0
7.503314060E-1,1.475506783E0,-6.752866745E0,7.076310158E0,9.892042003E0
7.527366150E-1,1.475506783E0,-6.755260944E0,7.083492756E0,9.898815096E0
7.551417190E-1,1.470718503E0,-6.757654667E0,7.078704834E0,9.896311012E0
7.575475000E-1,1.468324542E0,-6.752866745E0,7.100251198E0,9.908115528E0
7.599526560E-1,1.461142182E0,-6.774414062E0,7.076310158E0,9.904634663E0
7.623575000E-1,1.453959942E0,-6.750473022E0,7.093069553E0,9.899218213E0
7.647630210E-1,1.449171662E0,-6.779201984E0,7.088280678E0,9.914706300E0
7.671686460E-1,1.439595342E0,-6.755260944E0,7.097857475E0,9.903815725E0
7.695745310E-1,1.449171662E0,-6.774414062E0,7.109827995E0,9.926854412E0
7.719799480E-1,1.458747983E0,-6.762443542E0,7.090675354E0,9.906374984E0
7.743851560E-1,1.444383502E0,-6.793566227E0,7.071522236E0,9.911872301E0
7.767910940E-1,1.446777582E0,-6.764837265E0,7.093069553E0,9.907967717E0
7.791967190E-1,1.437201142E0,-6.755260944E0,7.093069553E0,9.900037032E0
7.816019790E-1,1.444383502E0,-6.755260944E0,7.059551716E0,9.877097983E0
7.840075000E-1,1.441989422E0,-6.764837265E0,7.054763794E0,9.879881017E0
7.864131770E-1,1.430018902E0,-6.750473022E0,7.073916435E0,9.882010616E0
7.888193750E-1,1.444383502E0,-6.760049343E0,7.066734314E0,9.885506800E0
7.912253650E-1,1.439595342E0,-6.767231464E0,7.061945915E0,9.886300448E0
7.936309900E-1,1.432412982E0,-6.752866745E0,7.066734314E0,9.878853683E0
7.960373440E-1,1.420442581E0,-6.745684147E0,7.071522236E0,9.875643699E0
7.984432810E-1,1.427624822E0,-6.745684147E0,7.073916435E0,9.878393643E0
8.008481770E-1,1.430018902E0,-6.740896225E0,7.073916435E0,9.875471113E0
8.032535420E-1,1.418048382E0,-6.736108303E0,7.090675354E0,9.882494283E0
8.056590110E-1,1.401289701E0,-6.745684147E0,7.117010593E0,9.905539219E0
8.080650000E-1,1.403683782E0,-6.724137783E0,7.143345356E0,9.910183649E0
8.104704170E-1,1.408472061E0,-6.721743107E0,7.107433796E0,9.883381967E0
8.128751040E-1,1.413260102E0,-6.707378864E0,7.124192238E0,9.886371953E0
8.152808330E-1,1.415654302E0,-6.700196743E0,7.117010593E0,9.876667114E0
8.176864580E-1,1.401289701E0,-6.702590942E0,7.114616394E0,9.874517943E0
8.200917710E-1,1.413260102E0,-6.700196743E0,7.119404316E0,9.878049318E0
8.224972920E-1,1.413260102E0,-6.728925705E0,7.126586914E0,9.902726206E0
8.249026560E-1,1.401289701E0,-6.728925705E0,7.128981113E0,9.902748391E0
8.273085420E-1,1.418048382E0,-6.716955185E0,7.138557434E0,9.903905816E0
8.297140630E-1,1.420442581E0,-6.709773064E0,7.138557434E0,9.899379472E0
8.321190630E-1,1.406077862E0,-6.702590942E0,7.143345356E0,9.895916490E0
8.345246360E-1,1.406077862E0,-6.702590942E0,7.114616394E0,9.875198567E0
8.369297920E-1,1.415654302E0,-6.700196743E0,7.128981113E0,9.885296415E0
8.393346880E-1,1.386925220E0,-6.709773064E0,7.131374836E0,9.889445039E0
8.417402610E-1,1.403683782E0,-6.707378864E0,7.117010593E0,9.879832953E0
8.441457810E-1,1.410866141E0,-6.693014145E0,7.150527954E0,9.895303514E0
8.465513020E-1,1.386925220E0,-6.697802544E0,7.128981113E0,9.879599799E0
8.489564060E-1,1.398895621E0,-6.688226223E0,7.148133278E0,9.888634300E0
8.513612500E-1,1.377348781E0,-6.709773064E0,7.150527954E0,9.901928815E0
8.537671360E-1,1.365378261E0,-6.678649902E0,7.162498474E0,9.887871697E0
8.561728130E-1,1.351013660E0,-6.681043625E0,7.143345356E0,9.873650019E0
8.585777610E-1,1.362984180E0,-6.688226223E0,7.114616394E0,9.859404765E0
8.609827610E-1,1.343831301E0,-6.695408344E0,7.117010593E0,9.863377477E0
8.633881770E-1,1.343831301E0,-6.695408344E0,7.102645874E0,9.853017501E0
8.657940630E-1,1.336649060E0,-6.690620422E0,7.117010593E0,9.859151694E0
8.681996360E-1,1.339043140E0,-6.702590942E0,7.090675354E0,9.848626242E0
8.706050000E-1,1.324678540E0,-6.714561462E0,7.095463276E0,9.858281187E0
8.730110940E-1,1.331860900E0,-6.724137783E0,7.085886955E0,9.858888189E0
8.754170830E-1,1.322284460E0,-6.728925705E0,7.093069553E0,9.866028229E0
8.778228130E-1,1.319890380E0,-6.712167263E0,7.076310158E0,9.842228682E0
8.802285940E-1,1.312708020E0,-6.733713627E0,7.064340591E0,9.847385925E0
8.826343230E-1,1.307919860E0,-6.726531982E0,7.064340591E0,9.841838998E0
8.850404170E-1,1.329466820E0,-6.745684147E0,7.078704834E0,9.868120326E0
8.874460940E-1,1.293555260E0,-6.743290424E0,7.064340591E0,9.851403908E0
8.898515630E-1,1.288766980E0,-6.733713627E0,7.073916435E0,9.851097059E0
8.922576560E-1,1.319890380E0,-6.745684147E0,7.061945915E0,9.854818382E0
8.946633330E-1,1.312708020E0,-6.736108303E0,7.052370071E0,9.840441100E0
8.970688020E-1,1.317496300E0,-6.743290424E0,7.054763794E0,9.847713158E0
8.994745310E-1,1.307919860E0,-6.733713627E0,7.066734314E0,9.848466248E0
9.018803130E-1,1.291161180E0,-6.726531982E0,7.069128513E0,9.843063936E0
9.042866670E-1,1.307919860E0,-6.748078823E0,7.088280678E0,9.873750307E0
9.066921880E-1,1.300737500E0,-6.733713627E0,7.076310158E0,9.854389007E0
9.090971880E-1,1.305525780E0,-6.738502502E0,7.085886955E0,9.865171437E0
9.115030210E-1,1.303131700E0,-6.755260944E0,7.083492756E0,9.874592259E0
9.139083330E-1,1.303131700E0,-6.733713627E0,7.107433796E0,9.877077837E0
9.163134380E-1,1.310313940E0,-6.733713627E0,7.117010593E0,9.884920921E0
9.187191150E-1,1.334254861E0,-6.724137783E0,7.102645874E0,9.871263514E0
9.211246360E-1,1.322284460E0,-6.755260944E0,7.119404316E0,9.902924035E0
9.235306250E-1,1.329466820E0,-6.743290424E0,7.100251198E0,9.881953999E0
9.259362500E-1,1.327072620E0,-6.736108303E0,7.105040073E0,9.880175669E0
9.283409900E-1,1.343831301E0,-6.719349384E0,7.119404316E0,9.881369163E0
9.307464060E-1,1.367772341E0,-6.731319904E0,7.112221718E0,9.887626945E0
9.331516150E-1,1.353407741E0,-6.721743107E0,7.131374836E0,9.892929291E0
9.355568750E-1,1.367772341E0,-6.738502502E0,7.114616394E0,9.894239920E0
9.379623960E-1,1.355801821E0,-6.728925705E0,7.133769035E0,9.899863654E0
9.403677610E-1,1.362984180E0,-6.745684147E0,7.145739555E0,9.920865601E0
9.427736460E-1,1.386925220E0,-6.752866745E0,7.136162758E0,9.922176664E0
9.451789580E-1,1.377348781E0,-6.740896225E0,7.150527954E0,9.923044976E0
9.475838020E-1,1.382136941E0,-6.716955185E0,7.138557434E0,9.898827795E0
9.499892710E-1,1.377348781E0,-6.721743107E0,7.155315876E0,9.913499147E0
9.523945310E-1,1.358195901E0,-6.724137783E0,7.138557434E0,9.900390258E0
9.547996360E-1,1.365378261E0,-6.709773064E0,7.150527954E0,9.900270824E0
9.572051560E-1,1.374954700E0,-6.712167263E0,7.150527954E0,9.903218659E0
9.596105730E-1,1.346225381E0,-6.724137783E0,7.140951157E0,9.900481560E0
9.620159900E-1,1.367772341E0,-6.724137783E0,7.152921677E0,9.912069341E0
9.644209900E-1,1.367772341E0,-6.726531982E0,7.157710075E0,9.917149147E0
9.668258860E-1,1.353407741E0,-6.702590942E0,7.140951157E0,9.886840814E0
9.692318750E-1,1.379742742E0,-6.719349384E0,7.136162758E0,9.898392046E0
9.716376040E-1,1.360589981E0,-6.704984665E0,7.128981113E0,9.880809490E0
9.740426560E-1,1.355801821E0,-6.728925705E0,7.119404316E0,9.889517558E0
9.764478650E-1,1.351013660E0,-6.733713627E0,7.117010593E0,9.890398218E0
9.788530730E-1,1.339043140E0,-6.712167263E0,7.095463276E0,9.858591431E0
9.812587500E-1,1.341437340E0,-6.728925705E0,7.107433796E0,9.878942780E0
9.836642190E-1,1.336649060E0,-6.728925705E0,7.083492756E0,9.861082166E0
9.860692710E-1,1.331860900E0,-6.736108303E0,7.083492756E0,9.865337204E0
9.884749480E-1,1.331860900E0,-6.731319904E0,7.095463276E0,9.870669694E0
9.908800000E-1,1.327072620E0,-6.733713627E0,7.071522236E0,9.854463338E0
9.932847920E-1,1.336649060E0,-6.731319904E0,7.078704834E0,9.859277889E0
9.956901040E-1,1.348619580E0,-6.738502502E0,7.083492756E0,9.869248217E0
9.980954690E-1,1.331860900E0,-6.726531982E0,7.102645874E0,9.872571315E0
1.000501094E0,1.343831301E0,-6.716955185E0,7.097857475E0,9.864225781E0
1.002906511E0,1.343831301E0,-6.726531982E0,7.093069553E0,9.867307169E0
1.005311823E0,1.360589981E0,-6.724137783E0,7.107433796E0,9.878301938E0
1.007717865E0,1.336649060E0,-6.721743107E0,7.105040073E0,9.871679470E0
1.010123542E0,1.355801821E0,-6.736108303E0,7.088280678E0,9.872035080E0
1.012528750E0,1.351013660E0,-6.738502502E0,7.114616394E0,9.891937137E0
1.014934167E0,1.351013660E0,-6.755260944E0,7.102645874E0,9.894764613E0
1.017339479E0,1.353407741E0,-6.750473022E0,7.102645874E0,9.891823742E0
1.019745000E0,1.355801821E0,-6.755260944E0,7.083492756E0,9.881680962E0
1.022150208E0,1.343831301E0,-6.760049343E0,7.085886955E0,9.885036349E0
1.024555208E0,1.329466820E0,-6.748078823E0,7.083492756E0,9.873191959E0
1.026960990E0,1.358195901E0,-6.776807785E0,7.064340591E0,9.883052557E0
1.029366511E0,1.355801821E0,-6.769625187E0,7.057157993E0,9.872664417E0
1.031771667E0,1.310313940E0,-6.791172504E0,7.054763794E0,9.879607219E0
1.034177031E0,1.351013660E0,-6.788778305E0,7.066734314E0,9.891990833E0
1.036582656E0,1.360589981E0,-6.752866745E0,7.073916435E0,9.873839583E0
1.038988333E0,1.353407741E0,-6.769625187E0,7.100251198E0,9.903186596E0
1.041393386E0,1.365378261E0,-6.781595707E0,7.076310158E0,9.895881142E0
1.043798177E0,1.367772341E0,-6.776807785E0,7.095463276E0,9.906640401E0
1.046203594E0,1.370166421E0,-6.772019863E0,7.097857475E0,9.905412146E0
1.048608698E0,1.353407741E0,-6.786384106E0,7.090675354E0,9.907794846E0
1.051013906E0,1.360589981E0,-6.774414062E0,7.081099033E0,9.893728039E0
1.053419375E0,1.360589981E0,-6.769625187E0,7.097857475E0,9.902454797E0
1.055824583E0,1.372560501E0,-6.776807785E0,7.107433796E0,9.915879247E0
1.058230729E0,1.358195901E0,-6.767231464E0,7.107433796E0,9.907357517E0
1.060636875E0,1.370166421E0,-6.781595707E0,7.097857475E0,9.911961314E0
1.063042604E0,1.355801821E0,-6.779201984E0,7.102645874E0,9.911778677E0
1.065449115E0,1.372560501E0,-6.748078823E0,7.114616394E0,9.901426996E0
1.067854844E0,1.355801821E0,-6.767231464E0,7.140951157E0,9.931102844E0
1.070260104E0,1.351013660E0,-6.781595707E0,7.107433796E0,9.916193494E0
1.072665886E0,1.353407741E0,-6.762443542E0,7.097857475E0,9.896561823E0
1.075071823E0,1.341437340E0,-6.769625187E0,7.109827995E0,9.908427394E0
1.077477969E0,1.351013660E0,-6.760049343E0,7.112221718E0,9.904908016E0
1.079883333E0,1.346225381E0,-6.783990383E0,7.126586914E0,9.930915836E0
1.082288125E0,1.351013660E0,-6.772019863E0,7.102645874E0,9.906213674E0
1.084693854E0,1.343831301E0,-6.745684147E0,7.095463276E0,9.882091695E0
1.087099427E0,1.346225381E0,-6.757654667E0,7.100251198E0,9.894027817E0
1.089504636E0,1.339043140E0,-6.745684147E0,7.078704834E0,9.869415042E0
1.091910104E0,1.358195901E0,-6.745684147E0,7.081099033E0,9.873748743E0
1.094315417E0,1.360589981E0,-6.750473022E0,7.071522236E0,9.870487215E0
1.096720938E0,1.358195901E0,-6.738502502E0,7.071522236E0,9.861974387E0
1.099126250E0,1.360589981E0,-6.743290424E0,7.100251198E0,9.886189251E0
1.101531406E0,1.360589981E0,-6.743290424E0,7.061945915E0,9.858714468E0
1.103937448E0,1.355801821E0,-6.726531982E0,7.083492756E0,9.862063715E0
1.106342917E0,1.351013660E0,-6.733713627E0,7.081099033E0,9.864588214E0
1.108747865E0,1.358195901E0,-6.745684147E0,7.097857475E0,9.885774196E0
1.111153125E0,1.336649060E0,-6.736108303E0,7.081099033E0,9.864266283E0
1.113557865E0,1.341437340E0,-6.736108303E0,7.090675354E0,9.871792450E0
1.115962969E0,1.362984180E0,-6.743290424E0,7.100251198E0,9.886519038E0
1.118368021E0,1.377348781E0,-6.731319904E0,7.078704834E0,9.864878076E0
1.120772708E0,1.370166421E0,-6.704984665E0,7.097857475E0,9.859703653E0
1.123177865E0,1.374954700E0,-6.721743107E0,7.081099033E0,9.859730947E0
1.125582656E0,1.374954700E0,-6.724137783E0,7.088280678E0,9.866521794E0
1.127987136E0,1.382136941E0,-6.740896225E0,7.100251198E0,9.887545272E0
1.130392031E0,1.377348781E0,-6.733713627E0,7.100251198E0,9.881981377E0
1.132797188E0,1.382136941E0,-6.731319904E0,7.095463276E0,9.877579120E0
1.135202969E0,1.384531021E0,-6.724137783E0,7.097857475E0,9.874742316E0
1.137608125E0,1.370166421E0,-6.740896225E0,7.119404316E0,9.899644223E0
1.140012656E0,1.401289701E0,-6.752866745E0,7.128981113E0,9.919031899E0
1.142418021E0,1.389319181E0,-6.743290424E0,7.131374836E0,9.912551669E0
1.144823177E0,1.377348781E0,-6.736108303E0,7.112221718E0,9.892216258E0
1.147228177E0,1.355801821E0,-6.736108303E0,7.112221718E0,9.889239173E0
1.149633490E0,1.372560501E0,-6.740896225E0,7.138557434E0,9.913758444E0
1.152038281E0,1.382136941E0,-6.726531982E0,7.121798515E0,9.893257761E0
1.154443542E0,1.391713262E0,-6.745684147E0,7.131374836E0,9.914515997E0
1.156848646E0,1.362984180E0,-6.740896225E0,7.131374836E0,9.907265760E0
1.159253542E0,1.365378261E0,-6.731319904E0,7.157710075E0,9.920067488E0
1.161659271E0,1.372560501E0,-6.736108303E0,7.126586914E0,9.901884590E0
1.164064636E0,1.379742742E0,-6.726531982E0,7.136162758E0,9.903269230E0
1.166469740E0,1.370166421E0,-6.740896225E0,7.143345356E0,9.916875557E0
1.168875000E0,1.386925220E0,-6.728925705E0,7.136162758E0,9.905898325E0
1.171280261E0,1.353407741E0,-6.731319904E0,7.121798515E0,9.892542356E0
1.173685521E0,1.370166421E0,-6.716955185E0,7.150527954E0,9.905800977E0
1.176090365E0,1.355801821E0,-6.726531982E0,7.150527954E0,9.910321948E0
1.178494948E0,1.360589981E0,-6.707378864E0,7.150527954E0,9.897989005E0
1.180900156E0,1.362984180E0,-6.719349384E0,7.138557434E0,9.897796940E0
1.183305208E0,1.358195901E0,-6.731319904E0,7.030822754E0,9.827910885E0
1.185709792E0,1.351013660E0,-6.721743107E0,7.440213680E0,1.011750206E1
1.188114688E0,1.343831301E0,-6.704984665E0,6.786624908E0,9.634364513E0
1.190519688E0,1.322284460E0,-6.712167263E0,7.552736282E0,1.019045882E1
1.192925000E0,1.386925220E0,-6.695408344E0,6.930270195E0,9.735537964E0
1.195330052E0,1.319890380E0,-6.745684147E0,7.136162758E0,9.908137268E0
1.197734844E0,1.362984180E0,-6.724137783E0,7.375572681E0,1.007327291E1
1.200140417E0,1.343831301E0,-6.719349384E0,6.789019108E0,9.646051999E0
1.202545365E0,1.331860900E0,-6.724137783E0,7.480913162E0,1.014652375E1
1.204949896E0,1.343831301E0,-6.709773064E0,6.906329155E0,9.722361829E0
1.207355156E0,1.327072620E0,-6.733713627E0,7.181651115E0,9.933787480E0
1.209760417E0,1.355801821E0,-6.721743107E0,7.325296879E0,1.003394256E1
1.212166042E0,1.339043140E0,-6.733713627E0,6.836900711E0,9.689125196E0
1.214571302E0,1.324678540E0,-6.731319904E0,7.497672081E0,1.016270277E1
1.216976042E0,1.351013660E0,-6.721743107E0,6.832112312E0,9.679092259E0
1.219381615E0,1.327072620E0,-6.726531982E0,7.212774277E0,9.951455523E0
1.221786979E0,1.339043140E0,-6.709773064E0,7.229532719E0,9.953905486E0
1.224191927E0,1.348619580E0,-6.707378864E0,6.824930191E0,9.663714509E0
1.226597240E0,1.300737500E0,-6.707378864E0,7.476124763E0,1.012784729E1
1.229002500E0,1.336649060E0,-6.695408344E0,6.803383350E0,9.638524193E0
1.231408229E0,1.307919860E0,-6.733713627E0,7.253473759E0,9.983307825E0
1.233813646E0,1.351013660E0,-6.712167263E0,7.162498474E0,9.908572635E0
1.236218646E0,1.319890380E0,-6.712167263E0,6.834506989E0,9.669838973E0
1.238624531E0,1.312708020E0,-6.700196743E0,7.454578400E0,1.010873770E1
1.241030104E0,1.329466820E0,-6.690620422E0,6.755501270E0,9.600452129E0
1.243435052E0,1.293555260E0,-6.728925705E0,7.308538437E0,1.001830627E1
1.245840365E0,1.324678540E0,-6.695408344E0,7.097857475E0,9.846971457E0
1.248245469E0,1.324678540E0,-6.697802544E0,6.877600193E0,9.691063748E0
1.250651042E0,1.322284460E0,-6.724137783E0,7.435425282E0,1.011177602E1
1.253056563E0,1.355801821E0,-6.704984665E0,6.702831268E0,9.577210708E0
1.255461511E0,1.288766980E0,-6.740896225E0,7.339661598E0,1.004844439E1
1.257866979E0,1.351013660E0,-6.724137783E0,7.028429031E0,9.820289277E0
1.260272188E0,1.319890380E0,-6.743290424E0,6.918299675E0,9.750740831E0
1.262677292E0,1.303131700E0,-6.728925705E0,7.397119999E0,1.008434319E1
1.265082708E0,1.312708020E0,-6.745684147E0,6.700437069E0,9.598089074E0
1.267488021E0,1.281584740E0,-6.774414062E0,7.361208439E0,1.008575902E1
1.269893802E0,1.329466820E0,-6.733713627E0,6.942240715E0,9.762432452E0
1.272299063E0,1.295949459E0,-6.764837265E0,6.968576431E0,9.798140931E0
1.274703802E0,1.293555260E0,-6.757654667E0,7.344449997E0,1.006380284E1
1.277109688E0,1.322284460E0,-6.740896225E0,6.690860748E0,9.589355331E0
1.279515365E0,1.300737500E0,-6.772019863E0,7.389937401E0,1.010758853E1
1.281920521E0,1.334254861E0,-6.748078823E0,6.891964912E0,9.737349957E0
1.284325781E0,1.315102220E0,-6.755260944E0,6.856053352E0,9.714345672E0
1.286730990E0,1.317496300E0,-6.748078823E0,7.286991596E0,1.001861322E1
1.289136563E0,1.339043140E0,-6.736108303E0,7.128981113E0,9.899018301E0
1.291541563E0,1.324678540E0,-6.757654667E0,7.076310158E0,9.873947300E0
1.293946198E0,1.334254861E0,-6.760049343E0,7.105040073E0,9.897479356E0
1.296351563E0,1.327072620E0,-6.757654667E0,7.052370071E0,9.857126456E0
1.298756458E0,1.341437340E0,-6.757654667E0,7.078704834E0,9.877925534E0
1.301161094E0,1.353407741E0,-6.769625187E0,7.076310158E0,9.886035764E0
1.303566198E0,1.365378261E0,-6.769625187E0,7.069128513E0,9.882543241E0
1.305971354E0,1.341437340E0,-6.762443542E0,7.095463276E0,9.893214639E0
1.308377031E0,1.365378261E0,-6.762443542E0,7.102645874E0,9.901640211E0
1.310782396E0,1.351013660E0,-6.774414062E0,7.100251198E0,9.906134002E0
1.313187448E0,1.372560501E0,-6.786384106E0,7.100251198E0,9.917282825E0
1.315593333E0,1.351013660E0,-6.760049343E0,7.107433796E0,9.901470608E0
1.317998646E0,1.360589981E0,-6.762443542E0,7.109827995E0,9.906134558E0
1.320403594E0,1.370166421E0,-6.774414062E0,7.112221718E0,9.917345395E0
1.322809271E0,1.355801821E0,-6.772019863E0,7.100251198E0,9.905151118E0
1.325215104E0,1.362984180E0,-6.760049343E0,7.097857475E0,9.896240384E0
1.327621250E0,1.384531021E0,-6.760049343E0,7.107433796E0,9.906099557E0
1.330027083E0,1.367772341E0,-6.767231464E0,7.088280678E0,9.894945469E0
1.332432344E0,1.372560501E0,-6.762443542E0,7.112221718E0,9.909503659E0
1.334838386E0,1.372560501E0,-6.750473022E0,7.105040073E0,9.896181223E0
1.337244063E0,1.384531021E0,-6.764837265E0,7.095463276E0,9.900785245E0
1.339649375E0,1.379742742E0,-6.752866745E0,7.102645874E0,9.897094408E0
1.342055208E0,1.343831301E0,-6.757654667E0,7.093069553E0,9.888549684E0
1.344460938E0,1.353407741E0,-6.757654667E0,7.083492756E0,9.882989362E0
1.346867136E0,1.367772341E0,-6.752866745E0,7.081099033E0,9.879978440E0
1.349273021E0,1.353407741E0,-6.728925705E0,7.076310158E0,9.858210746E0
1.351678438E0,1.367772341E0,-6.733713627E0,7.078704834E0,9.865179294E0
1.354084479E0,1.351013660E0,-6.750473022E0,7.081099033E0,9.876036019E0
1.356490208E0,1.370166421E0,-6.731319904E0,7.081099033E0,9.865596140E0
1.358895573E0,1.358195901E0,-6.738502502E0,7.076310158E0,9.865408128E0
1.361300990E0,1.367772341E0,-6.748078823E0,7.078704834E0,9.874990183E0
1.363706458E0,1.351013660E0,-6.728925705E0,7.085886955E0,9.864759145E0
1.366112344E0,1.343831301E0,-6.728925705E0,7.105040073E0,9.877546160E0
1.368517552E0,1.331860900E0,-6.731319904E0,7.069128513E0,9.851756140E0
1.370922448E0,1.343831301E0,-6.728925705E0,7.085886955E0,9.863778062E0
1.373328229E0,1.360589981E0,-6.738502502E0,7.097857475E0,9.881204472E0
1.375733854E0,1.346225381E0,-6.738502502E0,7.095463276E0,9.877516786E0
1.378138958E0,1.353407741E0,-6.750473022E0,7.105040073E0,9.893542994E0
1.380544427E0,1.358195901E0,-6.731319904E0,7.107433796E0,9.882862891E0
1.382950104E0,1.343831301E0,-6.745684147E0,7.095463276E0,9.882091695E0
1.385355938E0,1.362984180E0,-6.740896225E0,7.093069553E0,9.879728917E0
1.387761094E0,1.346225381E0,-6.738502502E0,7.102645874E0,9.882677631E0
1.390165990E0,1.339043140E0,-6.733713627E0,7.112221718E0,9.885324148E0
1.392571771E0,1.355801821E0,-6.750473022E0,7.112221718E0,9.899029365E0
1.394977083E0,1.355801821E0,-6.748078823E0,7.102645874E0,9.890517923E0
1.397382136E0,1.346225381E0,-6.743290424E0,7.112221718E0,9.892824990E0
1.399787656E0,1.339043140E0,-6.736108303E0,7.117010593E0,9.890400972E0
1.402192865E0,1.348619580E0,-6.728925705E0,7.121798515E0,9.890259350E0
1.404598802E0,1.348619580E0,-6.740896225E0,7.102645874E0,9.884636316E0
1.407004531E0,1.355801821E0,-6.738502502E0,7.117010593E0,9.894314243E0
1.409409583E0,1.360589981E0,-6.740896225E0,7.131374836E0,9.906936664E0
1.411815521E0,1.355801821E0,-6.731319904E0,7.095463276E0,9.873928566E0
1.414221198E0,1.353407741E0,-6.724137783E0,7.126586914E0,9.891106231E0
1.416626458E0,1.339043140E0,-6.719349384E0,7.097857475E0,9.865205189E0
1.419032083E0,1.334254861E0,-6.745684147E0,7.097857475E0,9.882513414E0
1.421437761E0,1.341437340E0,-6.731319904E0,7.131374836E0,9.897809295E0
1.423843958E0,1.348619580E0,-6.733713627E0,7.136162758E0,9.903862524E0
1.426249948E0,1.336649060E0,-6.716955185E0,7.119404316E0,9.878766901E0
1.428655365E0,1.322284460E0,-6.719349384E0,7.117010593E0,9.876736917E0
1.431061302E0,1.310313940E0,-6.721743107E0,7.131374836E0,9.887125976E0
1.433467031E0,1.317496300E0,-6.745684147E0,7.143345356E0,9.912993190E0
1.435872604E0,1.336649060E0,-6.733713627E0,7.143345356E0,9.907417060E0
1.438278125E0,1.307919860E0,-6.721743107E0,7.119404316E0,9.878178100E0
1.440683542E0,1.307919860E0,-6.719349384E0,7.131374836E0,9.885181716E0
1.443089479E0,1.315102220E0,-6.740896225E0,7.143345356E0,9.909417674E0
1.445494844E0,1.324678540E0,-6.728925705E0,7.128981113E0,9.892198244E0
1.447900000E0,1.317496300E0,-6.728925705E0,7.117010593E0,9.882614908E0
1.450306250E0,1.307919860E0,-6.716955185E0,7.133769035E0,9.885282088E0
1.452711875E0,1.305525780E0,-6.721743107E0,7.121798515E0,9.879587140E0
1.455116823E0,1.315102220E0,-6.738502502E0,7.124192238E0,9.893989330E0
1.457522292E0,1.324678540E0,-6.733713627E0,7.109827995E0,9.881666184E0
1.459927813E0,1.329466820E0,-6.752866745E0,7.100251198E0,9.888491208E0
1.462333438E0,1.303131700E0,-6.724137783E0,7.102645874E0,9.867104923E0
1.464738386E0,1.298343420E0,-6.743290424E0,7.112221718E0,9.886422970E0
1.467143177E0,1.307919860E0,-6.745684147E0,7.095463276E0,9.877272299E0
1.469548750E0,1.300737500E0,-6.733713627E0,7.090675354E0,9.864709536E0
1.471953906E0,1.300737500E0,-6.740896225E0,7.088280678E0,9.867893541E0
1.474358906E0,1.322284460E0,-6.733713627E0,7.088280678E0,9.865853150E0
1.476764375E0,1.305525780E0,-6.731319904E0,7.090675354E0,9.863708339E0
1.479169688E0,1.307919860E0,-6.724137783E0,7.083492756E0,9.853961280E0
1.481575313E0,1.336649060E0,-6.709773064E0,7.090675354E0,9.853190461E0
1.483980573E0,1.351013660E0,-6.712167263E0,7.107433796E0,9.868842001E0
1.486385469E0,1.334254861E0,-6.704984665E0,7.093069553E0,9.851329407E0
1.488791146E0,1.348619580E0,-6.702590942E0,7.100251198E0,9.856828455E0
1.491196354E0,1.339043140E0,-6.712167263E0,7.102645874E0,9.863762178E0
1.493601250E0,1.346225381E0,-6.709773064E0,7.124192238E0,9.878638185E0
1.496006511E0,1.351013660E0,-6.693014145E0,7.107433796E0,9.855825253E0
1.498411719E0,1.360589981E0,-6.683437824E0,7.105040073E0,9.848915711E0
1.500817448E0,1.374954700E0,-6.690620422E0,7.117010593E0,9.864417968E0
1.503222761E0,1.367772341E0,-6.676255703E0,7.131374836E0,9.864060951E0
1.505627761E0,1.362984180E0,-6.676255703E0,7.131374836E0,9.863398154E0
1.508033646E0,1.384531021E0,-6.659496784E0,7.121798515E0,9.848138792E0
1.510439271E0,1.362984180E0,-6.676255703E0,7.133769035E0,9.865129332E0
1.512844948E0,1.365378261E0,-6.669073105E0,7.128981113E0,9.857137799E0
1.515250938E0,1.362984180E0,-6.683437824E0,7.136162758E0,9.871721528E0
1.517656719E0,1.346225381E0,-6.683437824E0,7.119404316E0,9.857311081E0
1.520062865E0,1.362984180E0,-6.685832024E0,7.124192238E0,9.864694155E0
1.522468386E0,1.360589981E0,-6.685832024E0,7.128981113E0,9.867822792E0
1.524873333E0,1.365378261E0,-6.693014145E0,7.095463276E0,9.849177389E0
1.527278958E0,1.334254861E0,-6.690620422E0,7.109827995E0,9.853643580E0
1.529684271E0,1.341437340E0,-6.702590942E0,7.107433796E0,9.861024016E0
1.532089219E0,1.331860900E0,-6.695408344E0,7.093069553E0,9.844489933E0
1.534494531E0,1.322284460E0,-6.700196743E0,7.124192238E0,9.868900021E0
1.536899896E0,1.324678540E0,-6.728925705E0,7.128981113E0,9.892198244E0
1.539305521E0,1.322284460E0,-6.714561462E0,7.114616394E0,9.871754568E0
1.541710729E0,1.317496300E0,-6.740896225E0,7.119404316E0,9.892491912E0
1.544115573E0,1.334254861E0,-6.731319904E0,7.117010593E0,9.886492982E0
1.546521198E0,1.331860900E0,-6.733713627E0,7.112221718E0,9.884353819E0
1.548926615E0,1.339043140E0,-6.738502502E0,7.117010593E0,9.892031758E0
1.551331771E0,1.329466820E0,-6.733713627E0,7.131374836E0,9.897822401E0
1.553737083E0,1.341437340E0,-6.757654667E0,7.140951157E0,9.922627382E0
1.556142604E0,1.339043140E0,-6.740896225E0,7.138557434E0,9.909173562E0
1.558548802E0,1.355801821E0,-6.740896225E0,7.169680595E0,9.933891500E0
1.560954375E0,1.351013660E0,-6.724137783E0,7.143345356E0,9.902860683E0
1.563359583E0,1.360589981E0,-6.736108303E0,7.128981113E0,9.901955962E0
1.565765573E0,1.348619580E0,-6.736108303E0,7.148133278E0,9.914118176E0
1.568171146E0,1.343831301E0,-6.733713627E0,7.164892197E0,9.923933795E0
1.570576302E0,1.372560501E0,-6.724137783E0,7.162498474E0,9.919643927E0
1.572981667E0,1.362984180E0,-6.697802544E0,7.150527954E0,9.891831722E0
1.575387136E0,1.358195901E0,-6.707378864E0,7.172074318E0,9.913237481E0
1.577793229E0,1.346225381E0,-6.707378864E0,7.169680595E0,9.909872544E0
1.580198698E0,1.341437340E0,-6.721743107E0,7.188833237E0,9.932804631E0
1.582603698E0,1.336649060E0,-6.731319904E0,7.157710075E0,9.916154088E0
1.585009583E0,1.319890380E0,-6.712167263E0,7.186439514E0,9.921704131E0
1.587415156E0,1.310313940E0,-6.704984665E0,7.186439514E0,9.915576376E0
1.589820261E0,1.310313940E0,-6.724137783E0,7.155315876E0,9.906033355E0
1.592225677E0,1.315102220E0,-6.700196743E0,7.160103798E0,9.893897950E0
1.594631302E0,1.329466820E0,-6.693014145E0,7.128981113E0,9.868449325E0
1.597037188E0,1.319890380E0,-6.719349384E0,7.133769035E0,9.888499755E0
1.599442604E0,1.315102220E0,-6.716955185E0,7.138557434E0,9.889690746E0
1.601847552E0,1.329466820E0,-6.716955185E0,7.140951157E0,9.893338789E0
1.604253125E0,1.329466820E0,-6.719349384E0,7.124192238E0,9.882876768E0
1.606658073E0,1.331860900E0,-6.704984665E0,7.133769035E0,9.880350878E0
1.609062761E0,1.319890380E0,-6.716955185E0,7.150527954E0,9.898972047E0
1.611468177E0,1.341437340E0,-6.719349384E0,7.155315876E0,9.906949862E0
1.613873646E0,1.315102220E0,-6.724137783E0,7.138557434E0,9.894570481E0
1.616279375E0,1.329466820E0,-6.697802544E0,7.133769035E0,9.875155775E0
1.618685052E0,1.336649060E0,-6.702590942E0,7.140951157E0,9.884560662E0
1.621090469E0,1.322284460E0,-6.707378864E0,7.133769035E0,9.880689656E0
1.623496563E0,1.315102220E0,-6.704984665E0,7.126586914E0,9.872920249E0
1.625902448E0,1.341437340E0,-6.702590942E0,7.143345356E0,9.886938978E0
1.628307969E0,1.322284460E0,-6.695408344E0,7.150527954E0,9.884684067E0
1.630713594E0,1.310313940E0,-6.693014145E0,7.117010593E0,9.857241031E0
1.633119063E0,1.343831301E0,-6.690620422E0,7.097857475E0,9.846312251E0
1.635524792E0,1.331860900E0,-6.695408344E0,7.107433796E0,9.854844571E0
1.637930313E0,1.324678540E0,-6.681043625E0,7.095463276E0,9.835482512E0
1.640335677E0,1.315102220E0,-6.678649902E0,7.073916435E0,9.817033773E0
1.642741771E0,1.317496300E0,-6.673861504E0,7.085886955E0,9.822729652E0
1.645147500E0,1.329466820E0,-6.678649902E0,7.085886955E0,9.827595865E0
1.647552917E0,1.319890380E0,-6.681043625E0,7.085886955E0,9.827932055E0
1.649958438E0,1.295949459E0,-6.666679382E0,7.081099033E0,9.811527022E0
1.652363802E0,1.322284460E0,-6.702590942E0,7.071522236E0,9.832577905E0
1.654769479E0,1.319890380E0,-6.678649902E0,7.069128513E0,9.814227075E0
1.657175000E0,1.351013660E0,-6.671467304E0,7.045187473E0,9.796345259E0
1.659580208E0,1.319890380E0,-6.673861504E0,7.033216953E0,9.785125380E0
1.661985886E0,1.327072620E0,-6.669073105E0,7.040399551E0,9.787996918E0
1.664390990E0,1.343831301E0,-6.676255703E0,7.030822754E0,9.788296142E0
1.666795573E0,1.339043140E0,-6.688226223E0,7.035610676E0,9.799246100E0
1.669200729E0,1.331860900E0,-6.693014145E0,7.061945915E0,9.820456808E0
1.671605833E0,1.317496300E0,-6.707378864E0,7.023640156E0,9.800828984E0
1.674011354E0,1.331860900E0,-6.690620422E0,7.052370071E0,9.811940619E0
1.676416719E0,1.327072620E0,-6.714561462E0,7.069128513E0,9.839666423E0
1.678821667E0,1.322284460E0,-6.719349384E0,7.057157993E0,9.833695708E0
1.681227500E0,1.324678540E0,-6.716955185E0,7.047581196E0,9.825510720E0
1.683633021E0,1.319890380E0,-6.712167263E0,7.066734314E0,9.835346148E0
1.686037969E0,1.298343420E0,-6.719349384E0,7.073916435E0,9.842542635E0
1.688443386E0,1.329466820E0,-6.743290424E0,7.059551716E0,9.852751809E0
1.690848750E0,1.322284460E0,-6.716955185E0,7.066734314E0,9.838935766E0
1.693254427E0,1.329466820E0,-6.719349384E0,7.090675354E0,9.858743082E0
1.695659636E0,1.339043140E0,-6.743290424E0,7.090675354E0,9.876369741E0
1.698064583E0,1.327072620E0,-6.738502502E0,7.076310158E0,9.861171490E0
1.700470261E0,1.343831301E0,-6.762443542E0,7.097857475E0,9.895256741E0
1.702875365E0,1.322284460E0,-6.764837265E0,7.088280678E0,9.887122048E0
1.705280313E0,1.341437340E0,-6.762443542E0,7.078704834E0,9.881202302E0
1.707685677E0,1.372560501E0,-6.764837265E0,7.109827995E0,9.909419745E0
1.710091094E0,1.362984180E0,-6.760049343E0,7.117010593E0,9.909986518E0
1.712496979E0,1.336649060E0,-6.762443542E0,7.117010593E0,9.908032759E0
1.714902136E0,1.341437340E0,-6.774414062E0,7.148133278E0,9.939212715E0
1.717306823E0,1.370166421E0,-6.795960903E0,7.138557434E0,9.950951857E0
1.719712552E0,1.358195901E0,-6.783990383E0,7.126586914E0,9.932545629E0
1.722117813E0,1.358195901E0,-6.791172504E0,7.136162758E0,9.944321948E0
1.724522604E0,1.382136941E0,-6.783990383E0,7.167286396E0,9.965080146E0
1.726927813E0,1.384531021E0,-6.781595707E0,7.157710075E0,9.956896103E0
1.729333281E0,1.374954700E0,-6.783990383E0,7.162498474E0,9.960643069E0
1.731739479E0,1.372560501E0,-6.769625187E0,7.167286396E0,9.953981203E0
1.734144896E0,1.391713262E0,-6.781595707E0,7.157710075E0,9.957897351E0
1.736549792E0,1.389319181E0,-6.769625187E0,7.160103798E0,9.951136586E0
1.738955365E0,1.391713262E0,-6.779201984E0,7.155315876E0,9.954546229E0
1.741360469E0,1.384531021E0,-6.786384106E0,7.184044838E0,9.979099940E0
1.743765313E0,1.401289701E0,-6.786384106E0,7.188833237E0,9.984885846E0
1.746170469E0,1.394107461E0,-6.772019863E0,7.193621159E0,9.977573553E0
1.748575469E0,1.386925220E0,-6.767231464E0,7.169680595E0,9.956068657E0
1.750980938E0,1.420442581E0,-6.767231464E0,7.160103798E0,9.953902010E0
1.753385886E0,1.410866141E0,-6.748078823E0,7.152921677E0,9.934354513E0
1.755790573E0,1.403683782E0,-6.728925705E0,7.152921677E0,9.920335570E0
1.758196146E0,1.396501541E0,-6.736108303E0,7.155315876E0,9.925921464E0
1.760601511E0,1.386925220E0,-6.728925705E0,7.162498474E0,9.924887259E0
1.763006458E0,1.406077862E0,-6.716955185E0,7.157710075E0,9.916015098E0
1.765411511E0,1.389319181E0,-6.702590942E0,7.145739555E0,9.895278011E0
1.767816771E0,1.374954700E0,-6.719349384E0,7.143345356E0,9.902905607E0
1.770222604E0,1.386925220E0,-6.736108303E0,7.155315876E0,9.924578677E0
1.772627813E0,1.360589981E0,-6.719349384E0,7.131374836E0,9.892288325E0
1.775032344E0,1.379742742E0,-6.716955185E0,7.128981113E0,9.891589797E0
1.777437813E0,1.370166421E0,-6.721743107E0,7.126586914E0,9.891785858E0
1.779843386E0,1.362984180E0,-6.726531982E0,7.109827995E0,9.881984239E0
1.782248646E0,1.374954700E0,-6.707378864E0,7.112221718E0,9.872341638E0
1.784654271E0,1.372560501E0,-6.716955185E0,7.100251198E0,9.869902551E0
1.787059948E0,1.358195901E0,-6.714561462E0,7.102645874E0,9.868009432E0
1.789465729E0,1.391713262E0,-6.693014145E0,7.088280678E0,9.847691461E0
1.791871094E0,1.362984180E0,-6.702590942E0,7.114616394E0,9.869154860E0
1.794275938E0,1.358195901E0,-6.697802544E0,7.090675354E0,9.847991267E0
1.796681406E0,1.360589981E0,-6.676255703E0,7.095463276E0,9.837133445E0
1.799086667E0,1.355801821E0,-6.702590942E0,7.114616394E0,9.868165501E0
1.801491667E0,1.341437340E0,-6.714561462E0,7.126586914E0,9.882966701E0
1.803897031E0,1.336649060E0,-6.693014145E0,7.124192238E0,9.865960881E0
1.806302188E0,1.358195901E0,-6.690620422E0,7.119404316E0,9.863823577E0
1.808707656E0,1.365378261E0,-6.721743107E0,7.133769035E0,9.896299755E0
1.811113073E0,1.331860900E0,-6.707378864E0,7.136162758E0,9.883703941E0
1.813518438E0,1.346225381E0,-6.697802544E0,7.155315876E0,9.892998887E0
1.815924688E0,1.346225381E0,-6.702590942E0,7.155315876E0,9.896241378E0
1.818330469E0,1.327072620E0,-6.693014145E0,7.138557434E0,9.875047459E0
1.820735781E0,1.343831301E0,-6.693014145E0,7.145739555E0,9.882505487E0
1.823141458E0,1.365378261E0,-6.664285183E0,7.157710075E0,9.874703455E0
1.825547136E0,1.374954700E0,-6.657103062E0,7.148133278E0,9.864245078E0
1.827953229E0,1.389319181E0,-6.664285183E0,7.131374836E0,9.858976206E0
1.830358906E0,1.367772341E0,-6.659496784E0,7.138557434E0,9.857925788E0
1.832764167E0,1.362984180E0,-6.654708862E0,7.128981113E0,9.847093360E0
1.835170104E0,1.358195901E0,-6.654708862E0,7.148133278E0,9.860307070E0
1.837575469E0,1.370166421E0,-6.645132542E0,7.119404316E0,9.834686590E0
1.839980365E0,1.372560501E0,-6.657103062E0,7.114616394E0,9.839649889E0
1.842385886E0,1.370166421E0,-6.652314663E0,7.117010593E0,9.837809013E0
1.844791563E0,1.367772341E0,-6.633162022E0,7.114616394E0,9.822800314E0
1.847197500E0,1.374954700E0,-6.645132542E0,7.119404316E0,9.835354835E0
1.849602708E0,1.353407741E0,-6.633162022E0,7.117010593E0,9.822545022E0
1.852007552E0,1.372560501E0,-6.611614704E0,7.117010593E0,9.810668230E0
1.854413386E0,1.353407741E0,-6.628373623E0,7.114616394E0,9.817576882E0
1.856818854E0,1.362984180E0,-6.623585224E0,7.119404316E0,9.819140742E0
1.859223854E0,1.370166421E0,-6.621191502E0,7.124192238E0,9.821998166E0
1.861629583E0,1.353407741E0,-6.621191502E0,7.136162758E0,9.828362443E0
1.864035156E0,1.341437340E0,-6.621191502E0,7.121798515E0,9.816294878E0
1.866441042E0,1.360589981E0,-6.633162022E0,7.124192238E0,9.828741453E0
1.868846771E0,1.346225381E0,-6.606826782E0,7.095463276E0,9.788160297E0
1.871252083E0,1.358195901E0,-6.616403103E0,7.102645874E0,9.801482772E0
1.873658386E0,1.355801821E0,-6.616403103E0,7.097857475E0,9.797681835E0
1.876064323E0,1.353407741E0,-6.625979900E0,7.097857475E0,9.803820831E0
1.878469636E0,1.353407741E0,-6.614009380E0,7.126586914E0,9.816571379E0
1.880875208E0,1.355801821E0,-6.614009380E0,7.100251198E0,9.797800046E0
1.883280729E0,1.353407741E0,-6.616403103E0,7.114616394E0,9.809498915E0
1.885686771E0,1.339043140E0,-6.611614704E0,7.109827995E0,9.800823417E0
1.888092448E0,1.336649060E0,-6.623585224E0,7.112221718E0,9.810311396E0
1.890497656E0,1.355801821E0,-6.618797302E0,7.076310158E0,9.783702865E0
1.892903698E0,1.331860900E0,-6.625979900E0,7.071522236E0,9.781814240E0
1.895309271E0,1.362984180E0,-6.623585224E0,7.078704834E0,9.789671559E0
1.897714479E0,1.382136941E0,-6.621191502E0,7.076310158E0,9.789006327E0
1.900120104E0,1.379742742E0,-6.616403103E0,7.109827995E0,9.809695927E0
1.902525886E0,1.386925220E0,-6.616403103E0,7.107433796E0,9.808973787E0
1.904931719E0,1.398895621E0,-6.616403103E0,7.140951157E0,9.834982583E0
1.907336875E0,1.396501541E0,-6.625979900E0,7.140951157E0,9.841087827E0
1.909741719E0,1.410866141E0,-6.652314663E0,7.126586914E0,9.850486013E0
1.912147552E0,1.386925220E0,-6.642738342E0,7.131374836E0,9.844086616E0
1.914553073E0,1.394107461E0,-6.647526264E0,7.126586914E0,9.844865773E0
1.916957813E0,1.389319181E0,-6.666679382E0,7.140951157E0,9.867522749E0
1.919362917E0,1.391713262E0,-6.652314663E0,7.148133278E0,9.863364818E0
1.921768386E0,1.406077862E0,-6.671467304E0,7.150527954E0,9.880059765E0
1.924174167E0,1.394107461E0,-6.673861504E0,7.138557434E0,9.871320338E0
1.926579375E0,1.389319181E0,-6.697802544E0,7.140951157E0,9.888576749E0
1.928983958E0,1.394107461E0,-6.693014145E0,7.162498474E0,9.901583628E0
1.931389427E0,1.420442581E0,-6.714561462E0,7.152921677E0,9.912985487E0
1.933794636E0,1.406077862E0,-6.693014145E0,7.133769035E0,9.882517592E0
1.936199688E0,1.406077862E0,-6.702590942E0,7.157710075E0,9.906290618E0
1.938605052E0,1.439595342E0,-6.724137783E0,7.124192238E0,9.901544259E0
1.941010000E0,1.415654302E0,-6.712167263E0,7.131374836E0,9.895138883E0
1.943415469E0,1.446777582E0,-6.721743107E0,7.152921677E0,9.921657335E0
1.945820677E0,1.413260102E0,-6.728925705E0,7.150527954E0,9.919969520E0
1.948225365E0,1.449171662E0,-6.724137783E0,7.152921677E0,9.923629172E0
1.950630938E0,1.441989422E0,-6.736108303E0,7.196015358E0,9.961783254E0
1.953036146E0,1.451565742E0,-6.721743107E0,7.186439514E0,9.946546455E0
1.955441146E0,1.439595342E0,-6.738502502E0,7.172074318E0,9.945778036E0
1.957846615E0,1.453959942E0,-6.736108303E0,7.169680595E0,9.944519819E0
1.960252240E0,1.477900863E0,-6.738502502E0,7.184044838E0,9.960025460E0
1.962658021E0,1.468324542E0,-6.736108303E0,7.198410034E0,9.967358680E0
1.965063229E0,1.453959942E0,-6.745684147E0,7.215168476E0,9.983832444E0
1.967468333E0,1.480295062E0,-6.745684147E0,7.198410034E0,9.975601992E0
1.969874271E0,1.492265463E0,-6.750473022E0,7.215168476E0,9.992717267E0
1.972279583E0,1.487477303E0,-6.743290424E0,7.207985878E0,9.981964481E0
1.974684636E0,1.489871383E0,-6.752866745E0,7.207985878E0,9.988793042E0
1.977090208E0,1.499447823E0,-6.738502502E0,7.191227436E0,9.968425743E0
1.979495677E0,1.489871383E0,-6.748078823E0,7.181651115E0,9.966563966E0
1.981901563E0,1.480295062E0,-6.738502502E0,7.198410034E0,9.970747037E0
1.984306927E0,1.473112702E0,-6.740896225E0,7.196015358E0,9.969572708E0
1.986711511E0,1.477900863E0,-6.740896225E0,7.205591679E0,9.977195213E0
1.989117031E0,1.489871383E0,-6.721743107E0,7.174468994E0,9.943568398E0
1.991522031E0,1.499447823E0,-6.750473022E0,7.169680595E0,9.961001438E0
1.993926511E0,1.446777582E0,-6.731319904E0,7.181651115E0,9.948866557E0
1.996331458E0,1.461142182E0,-6.719349384E0,7.184044838E0,9.944601192E0
1.998736458E0,1.475506783E0,-6.740896225E0,7.164892197E0,9.947486234E0
2.001141927E0,1.456354022E0,-6.748078823E0,7.162498474E0,9.947809771E0
2.003546979E0,1.451565742E0,-6.724137783E0,7.138557434E0,9.913630731E0
2.005951615E0,1.453959942E0,-6.728925705E0,7.162498474E0,9.934476586E0
2.008356979E0,1.434807062E0,-6.743290424E0,7.176862717E0,9.951783534E0
2.010762083E0,1.453959942E0,-6.736108303E0,7.157710075E0,9.935892919E0
2.013167136E0,1.437201142E0,-6.731319904E0,7.152921677E0,9.926756937E0
2.015572865E0,1.446777582E0,-6.731319904E0,7.145739555E0,9.922974696E0
2.017978542E0,1.406077862E0,-6.726531982E0,7.157710075E0,9.922504774E0
2.020384219E0,1.432412982E0,-6.738502502E0,7.150527954E0,9.929213108E0
2.022789375E0,1.425230622E0,-6.719349384E0,7.143345356E0,9.910011168E0
2.025194115E0,1.415654302E0,-6.731319904E0,7.143345356E0,9.916759936E0
2.027599479E0,1.425230622E0,-6.728925705E0,7.119404316E0,9.899274786E0
2.030004167E0,1.420442581E0,-6.709773064E0,7.160103798E0,9.914928043E0
2.032408386E0,1.422836661E0,-6.721743107E0,7.124192238E0,9.897495118E0
2.034813386E0,1.403683782E0,-6.709773064E0,7.121798515E0,9.884907527E0
2.037218698E0,1.420442581E0,-6.702590942E0,7.143345356E0,9.897967738E0
2.039624115E0,1.418048382E0,-6.702590942E0,7.143345356E0,9.897624434E0
2.042028854E0,1.427624822E0,-6.714561462E0,7.143345356E0,9.907110131E0
2.044433333E0,1.401289701E0,-6.695408344E0,7.157710075E0,9.900753469E0
2.046838906E0,1.413260102E0,-6.678649902E0,7.117010593E0,9.861719344E0
2.049244375E0,1.418048382E0,-6.681043625E0,7.119404316E0,9.865755062E0
2.051649427E0,1.415654302E0,-6.693014145E0,7.121798515E0,9.875248328E0
2.054055261E0,1.418048382E0,-6.695408344E0,7.124192238E0,9.878940690E0
2.056461302E0,1.418048382E0,-6.688226223E0,7.143345356E0,9.887902411E0
2.058867188E0,1.413260102E0,-6.664285183E0,7.117010593E0,9.851996798E0
2.061272604E0,1.430018902E0,-6.659496784E0,7.121798515E0,9.854636755E0
2.063677865E0,1.430018902E0,-6.657103062E0,7.105040073E0,9.840913051E0
2.066083906E0,1.441989422E0,-6.633162022E0,7.112221718E0,9.831676849E0
2.068489479E0,1.437201142E0,-6.645132542E0,7.097857475E0,9.828678159E0
2.070894531E0,1.439595342E0,-6.647526264E0,7.119404316E0,9.846215415E0
2.073299948E0,1.446777582E0,-6.659496784E0,7.112221718E0,9.850165509E0
2.075705365E0,1.430018902E0,-6.657103062E0,7.119404316E0,9.851288903E0
2.078110990E0,1.446777582E0,-6.649920940E0,7.100251198E0,9.835048600E0
2.080516250E0,1.422836661E0,-6.647526264E0,7.126586914E0,9.848975106E0
2.082921146E0,1.449171662E0,-6.637950420E0,7.133769035E0,9.851555458E0
2.085326771E0,1.463536263E0,-6.640344143E0,7.112221718E0,9.839705610E0
2.087732083E0,1.451565742E0,-6.628373623E0,7.117010593E0,9.833321910E0
2.090136979E0,1.463536263E0,-6.623585224E0,7.112221718E0,9.828403603E0
2.092542136E0,1.470718503E0,-6.637950420E0,7.117010593E0,9.842623557E0
2.094946979E0,1.463536263E0,-6.635555744E0,7.107433796E0,9.833013454E0
2.097352240E0,1.489871383E0,-6.614009380E0,7.105040073E0,9.820714397E0
2.099757396E0,1.468324542E0,-6.618797302E0,7.114616394E0,9.827625406E0
2.102162396E0,1.473112702E0,-6.614009380E0,7.131374836E0,9.837260196E0
2.104568177E0,1.465930462E0,-6.616403103E0,7.138557434E0,9.843004845E0
2.106973073E0,1.485083103E0,-6.630767822E0,7.128981113E0,9.848600177E0
2.109377656E0,1.470718503E0,-6.630767822E0,7.157710075E0,9.867264482E0
2.111782917E0,1.477900863E0,-6.645132542E0,7.143345356E0,9.867591415E0
2.114188177E0,1.480295062E0,-6.618797302E0,7.148133278E0,9.853707960E0
2.116593906E0,1.480295062E0,-6.621191502E0,7.162498474E0,9.865740457E0
2.118999219E0,1.497053623E0,-6.630767822E0,7.179256916E0,9.886859022E0
2.121404323E0,1.482689023E0,-6.623585224E0,7.152921677E0,9.860757399E0
2.123810261E0,1.480295062E0,-6.633162022E0,7.176862717E0,9.884203070E0
2.126215573E0,1.482689023E0,-6.630767822E0,7.162498474E0,9.872529212E0
2.128620521E0,1.494659543E0,-6.645132542E0,7.188833237E0,9.903086234E0
2.131025886E0,1.489871383E0,-6.630767822E0,7.152921677E0,9.866665453E0
2.133431094E0,1.487477303E0,-6.630767822E0,7.164892197E0,9.874986118E0
2.135836615E0,1.473112702E0,-6.645132542E0,7.181651115E0,9.894643009E0
2.138241563E0,1.475506783E0,-6.654708862E0,7.150527954E0,9.878882545E0
2.140646094E0,1.499447823E0,-6.657103062E0,7.145739555E0,9.880635543E0
2.143051458E0,1.465930462E0,-6.657103062E0,7.179256916E0,9.899883997E0
2.145456615E0,1.480295062E0,-6.657103062E0,7.164892197E0,9.891611337E0
2.147861511E0,1.458747983E0,-6.664285183E0,7.150527954E0,9.882848410E0
2.150266823E0,1.473112702E0,-6.666679382E0,7.169680595E0,9.900454275E0
2.152672188E0,1.468324542E0,-6.671467304E0,7.174468994E0,9.906435196E0
2.155078021E0,1.477900863E0,-6.669073105E0,7.133769035E0,9.876810603E0
2.157483594E0,1.465930462E0,-6.685832024E0,7.140951157E0,9.891536048E0
2.159888802E0,1.437201142E0,-6.659496784E0,7.145739555E0,9.872995408E0
2.162294948E0,1.475506783E0,-6.678649902E0,7.105040073E0,9.862204583E0
2.164700521E0,1.468324542E0,-6.671467304E0,7.121798515E0,9.868356856E0
2.167105417E0,1.463536263E0,-6.664285183E0,7.140951157E0,9.876629932E0
2.169510833E0,1.465930462E0,-6.671467304E0,7.131374836E0,9.874914438E0
2.171916406E0,1.465930462E0,-6.657103062E0,7.155315876E0,9.882536040E0
2.174322396E0,1.482689023E0,-6.659496784E0,7.136162758E0,9.872795099E0
2.176727761E0,1.492265463E0,-6.645132542E0,7.136162758E0,9.864555825E0
2.179132656E0,1.480295062E0,-6.676255703E0,7.140951157E0,9.887206233E0
2.181538281E0,1.465930462E0,-6.661890984E0,7.128981113E0,9.866717555E0
2.183943438E0,1.506630063E0,-6.642738342E0,7.105040073E0,9.842636907E0
2.186348021E0,1.475506783E0,-6.647526264E0,7.198410034E0,9.908775541E0
2.188752969E0,1.499447823E0,-6.645132542E0,7.294173241E0,9.980535734E0
2.191158229E0,1.523388743E0,-6.633162022E0,6.796200752E0,9.618102533E0
2.193564063E0,1.470718503E0,-6.652314663E0,7.545553684E0,1.016620301E1
2.195969583E0,1.506630063E0,-6.630767822E0,6.865629673E0,9.663016448E0
2.198374792E0,1.480295062E0,-6.671467304E0,7.258262157E0,9.969058080E0
2.200780625E0,1.480295062E0,-6.640344143E0,7.284597397E0,9.967487298E0
2.203185625E0,1.494659543E0,-6.637950420E0,6.868023872E0,9.667789036E0
2.205590052E0,1.463536263E0,-6.676255703E0,7.557524204E0,1.018972525E1
2.207995156E0,1.511418343E0,-6.645132542E0,6.879994392E0,9.683826451E0
2.210400156E0,1.477900863E0,-6.681043625E0,7.320508957E0,1.002049830E1
2.212805625E0,1.504235864E0,-6.683437824E0,7.234321594E0,9.963256276E0
2.215211042E0,1.475506783E0,-6.659496784E0,6.908723831E0,9.708577788E0
2.217615990E0,1.470718503E0,-6.697802544E0,7.535977364E0,1.018894139E1
2.220021458E0,1.482689023E0,-6.673861504E0,6.832112312E0,9.665223885E0
2.222426458E0,1.461142182E0,-6.700196743E0,7.346843719E0,1.005005898E1
2.224831250E0,1.463536263E0,-6.673861504E0,7.174468994E0,9.907339255E0
2.227236354E0,1.441989422E0,-6.681043625E0,6.947029591E0,9.745609142E0
2.229641250E0,1.456354022E0,-6.726531982E0,7.516824722E0,1.019165607E1
2.232046719E0,1.482689023E0,-6.690620422E0,6.791412830E0,9.648111557E0
2.234451719E0,1.456354022E0,-6.707378864E0,7.389937401E0,1.008568654E1
2.236856250E0,1.482689023E0,-6.707378864E0,7.117010593E0,9.891366829E0
2.239261771E0,1.465930462E0,-6.707378864E0,6.982940674E0,9.792821034E0
2.241667083E0,1.470718503E0,-6.712167263E0,7.502460480E0,1.017364809E1
2.244071875E0,1.504235864E0,-6.685832024E0,6.808171272E0,9.659931234E0
2.246476927E0,1.477900863E0,-6.724137783E0,7.456972599E0,1.014912116E1
2.248882083E0,1.499447823E0,-6.702590942E0,7.081099033E0,9.864838196E0
2.251287396E0,1.485083103E0,-6.704984665E0,7.038004875E0,9.833402453E0
2.253692344E0,1.499447823E0,-6.731319904E0,7.466548920E0,1.016407223E1
2.256096979E0,1.511418343E0,-6.688226223E0,6.812959671E0,9.666083741E0
2.258502292E0,1.520994663E0,-6.702590942E0,7.504854202E0,1.017649187E1
2.260907188E0,1.540147424E0,-6.683437824E0,7.014063835E0,9.810070679E0
2.263311719E0,1.523388743E0,-6.688226223E0,7.114616394E0,9.882856354E0
2.265716719E0,1.537753344E0,-6.681043625E0,7.440213680E0,1.011720361E1
2.268121979E0,1.540147424E0,-6.681043625E0,6.815353870E0,9.667339157E0
2.270527813E0,1.532965183E0,-6.693014145E0,7.528795242E0,1.018966037E1
2.272933125E0,1.554512024E0,-6.664285183E0,6.997305393E0,9.787312573E0
2.275337969E0,1.532965183E0,-6.688226223E0,7.205591679E0,9.950020287E0
2.277743594E0,1.547329783E0,-6.693014145E0,7.413878441E0,1.010723807E1
2.280148750E0,1.571270823E0,-6.671467304E0,6.868023872E0,9.702943878E0
2.282553594E0,1.561694264E0,-6.683437824E0,7.526401520E0,1.018596829E1
2.284958646E0,1.559300303E0,-6.654708862E0,7.260656357E0,9.971644709E0
2.287363542E0,1.552117944E0,-6.661890984E0,7.040399551E0,9.816164599E0
2.289768906E0,1.568876624E0,-6.676255703E0,7.241503239E0,9.973621871E0
2.292174063E0,1.568876624E0,-6.671467304E0,7.219956398E0,9.954778764E0
2.294578958E0,1.566482544E0,-6.697802544E0,7.265444279E0,1.000505407E1
2.296984688E0,1.556906104E0,-6.683437824E0,7.251080036E0,9.983509376E0
2.299390261E0,1.552117944E0,-6.678649902E0,7.258262157E0,9.984778624E0
2.301795625E0,1.547329783E0,-6.676255703E0,7.253473759E0,9.978952913E0
2.304201198E0,1.547329783E0,-6.683437824E0,7.248685837E0,9.980281407E0
2.306606667E0,1.537753344E0,-6.683437824E0,7.210380554E0,9.951010714E0
2.309012708E0,1.540147424E0,-6.654708862E0,7.196015358E0,9.921685399E0
2.311418386E0,1.535359263E0,-6.669073105E0,7.210380554E0,9.940998535E0
2.313823594E0,1.523388743E0,-6.678649902E0,7.179256916E0,9.923044273E0
2.316229636E0,1.520994663E0,-6.661890984E0,7.179256916E0,9.911404850E0
2.318635156E0,1.504235864E0,-6.649920940E0,7.167286396E0,9.892126583E0
2.321040156E0,1.535359263E0,-6.649920940E0,7.157710075E0,9.889974222E0
2.323445521E0,1.520994663E0,-6.604433060E0,7.128981113E0,9.836378018E0
2.325850990E0,1.528176904E0,-6.609220982E0,7.133769035E0,9.844175297E0
2.328256823E0,1.552117944E0,-6.599644184E0,7.109827995E0,9.824155312E0
2.330662188E0,1.530570984E0,-6.578097820E0,7.102645874E0,9.801101820E0
2.333067031E0,1.537753344E0,-6.561338902E0,7.124192238E0,9.806628808E0
2.335472917E0,1.559300303E0,-6.563732624E0,7.107433796E0,9.799470320E0
2.337878698E0,1.535359263E0,-6.554156780E0,7.117010593E0,9.796230854E0
2.340284011E0,1.552117944E0,-6.539792061E0,7.100251198E0,9.777091458E0
2.342689531E0,1.542541504E0,-6.551762104E0,7.107433796E0,9.788801567E0
2.345094948E0,1.523388743E0,-6.554156780E0,7.124192238E0,9.799581593E0
2.347500573E0,1.525782943E0,-6.566127300E0,7.131374836E0,9.813182377E0
2.349906146E0,1.504235864E0,-6.546974182E0,7.136162758E0,9.800531383E0
2.352311823E0,1.497053623E0,-6.570915222E0,7.160103798E0,9.832862391E0
2.354718177E0,1.489871383E0,-6.575703144E0,7.157710075E0,9.833229485E0
2.357124011E0,1.458747983E0,-6.582885742E0,7.152921677E0,9.829883971E0
2.359529479E0,1.482689023E0,-6.582885742E0,7.164892197E0,9.842176163E0
2.361935104E0,1.456354022E0,-6.592462540E0,7.160103798E0,9.841169431E0
2.364340938E0,1.465930462E0,-6.594856262E0,7.150527954E0,9.837231890E0
2.366747188E0,1.480295062E0,-6.611614704E0,7.167286396E0,9.862794571E0
2.369152500E0,1.461142182E0,-6.592462540E0,7.157710075E0,9.840137821E0
2.371557448E0,1.470718503E0,-6.599644184E0,7.167286396E0,9.853340071E0
2.373963281E0,1.487477303E0,-6.585279942E0,7.164892197E0,9.844500029E0
2.376368490E0,1.492265463E0,-6.590068340E0,7.155315876E0,9.841463419E0
2.378773490E0,1.475506783E0,-6.599644184E0,7.160103798E0,9.848832927E0
2.381179115E0,1.485083103E0,-6.616403103E0,7.169680595E0,9.868463998E0
2.383584636E0,1.480295062E0,-6.609220982E0,7.172074318E0,9.864670571E0
2.385990677E0,1.485083103E0,-6.604433060E0,7.152921677E0,9.848263622E0
2.388396406E0,1.465930462E0,-6.604433060E0,7.179256916E0,9.864543478E0
2.390801354E0,1.468324542E0,-6.609220982E0,7.179256916E0,9.868105634E0
2.393206823E0,1.473112702E0,-6.611614704E0,7.172074318E0,9.865199443E0
2.395611927E0,1.461142182E0,-6.599644184E0,7.174468994E0,9.857141836E0
2.398016511E0,1.487477303E0,-6.623585224E0,7.181651115E0,9.882336904E0
2.400421406E0,1.487477303E0,-6.599644184E0,7.181651115E0,9.866306544E0
2.402826615E0,1.477900863E0,-6.578097820E0,7.200803757E0,9.864437979E0
2.405232292E0,1.499447823E0,-6.594856262E0,7.212774277E0,9.887597568E0
2.407637656E0,1.497053623E0,-6.597250462E0,7.210380554E0,9.887086069E0
2.410042552E0,1.509024143E0,-6.602038860E0,7.222351074E0,9.900829562E0
2.412448073E0,1.520994663E0,-6.594856262E0,7.217562199E0,9.894380121E0
2.414853073E0,1.494659543E0,-6.594856262E0,7.248685837E0,9.913101565E0
2.417257865E0,1.499447823E0,-6.585279942E0,7.203197956E0,9.874224854E0
2.419662917E0,1.499447823E0,-6.611614704E0,7.188833237E0,9.881351936E0
2.422068021E0,1.489871383E0,-6.625979900E0,7.215168476E0,9.908682179E0
2.424473594E0,1.494659543E0,-6.621191502E0,7.212774277E0,9.904458431E0
2.426878646E0,1.501841903E0,-6.611614704E0,7.198410034E0,9.888684701E0
2.429283281E0,1.477900863E0,-6.594856262E0,7.193621159E0,9.870385274E0
2.431688958E0,1.501841903E0,-6.633162022E0,7.162498474E0,9.877031533E0
2.434094219E0,1.509024143E0,-6.625979900E0,7.191227436E0,9.894165732E0
2.436498958E0,1.537753344E0,-6.604433060E0,7.160103798E0,9.861557067E0
2.438904219E0,1.547329783E0,-6.611614704E0,7.136162758E0,9.850507467E0
2.441309479E0,1.559300303E0,-6.611614704E0,7.143345356E0,9.857598557E0
2.443714948E0,1.585635304E0,-6.611614704E0,7.117010593E0,9.842739868E0
2.446120104E0,1.588029385E0,-6.621191502E0,7.126586914E0,9.856482906E0
2.448525000E0,1.585635304E0,-6.625979900E0,7.172074318E0,9.892244385E0
2.450930469E0,1.554512024E0,-6.616403103E0,7.172074318E0,9.880888000E0
2.453335417E0,1.573664784E0,-6.625979900E0,7.152921677E0,9.876452754E0
2.455740000E0,1.588029385E0,-6.647526264E0,7.188833237E0,9.919211968E0
2.458145365E0,1.559300303E0,-6.642738342E0,7.205591679E0,9.923605270E0
2.460550833E0,1.537753344E0,-6.633162022E0,7.210380554E0,9.917313723E0
2.462956406E0,1.530570984E0,-6.630767822E0,7.207985878E0,9.912859823E0
2.465361458E0,1.530570984E0,-6.637950420E0,7.196015358E0,9.908969187E0
2.467766406E0,1.520994663E0,-6.635555744E0,7.181651115E0,9.895460451E0
2.470171979E0,1.520994663E0,-6.642738342E0,7.198410034E0,9.912441902E0
2.472576823E0,1.532965183E0,-6.647526264E0,7.196015358E0,9.915756387E0
2.474981302E0,1.525782943E0,-6.637950420E0,7.203197956E0,9.913448450E0
2.477386615E0,1.530570984E0,-6.618797302E0,7.179256916E0,9.883969604E0
2.479792240E0,1.525782943E0,-6.649920940E0,7.174468994E0,9.900629649E0
2.482198021E0,1.532965183E0,-6.649920940E0,7.186439514E0,9.910415917E0
2.484603386E0,1.523388743E0,-6.652314663E0,7.164892197E0,9.894932230E0
2.487008333E0,1.516206384E0,-6.649920940E0,7.172074318E0,9.897422914E0
2.489413906E0,1.499447823E0,-6.657103062E0,7.174468994E0,9.901432739E0
2.491819427E0,1.509024143E0,-6.664285183E0,7.167286396E0,9.902517112E0
2.494224792E0,1.497053623E0,-6.657103062E0,7.188833237E0,9.911483947E0
2.496630469E0,1.489871383E0,-6.664285183E0,7.196015358E0,9.920436017E0
2.499035938E0,1.487477303E0,-6.664285183E0,7.193621159E0,9.918340138E0
2.501442083E0,1.499447823E0,-6.664285183E0,7.162498474E0,9.897596939E0
2.503848073E0,1.492265463E0,-6.671467304E0,7.176862717E0,9.911745086E0
2.506253177E0,1.489871383E0,-6.664285183E0,7.176862717E0,9.906551983E0
2.508658958E0,1.487477303E0,-6.676255703E0,7.176862717E0,9.914249210E0
2.511064271E0,1.501841903E0,-6.678649902E0,7.172074318E0,9.914562201E0
2.513469323E0,1.475506783E0,-6.661890984E0,7.172074318E0,9.899321278E0
2.515874896E0,1.497053623E0,-6.669073105E0,7.184044838E0,9.916057980E0
2.518280313E0,1.499447823E0,-6.669073105E0,7.155315876E0,9.895626566E0
2.520686042E0,1.499447823E0,-6.659496784E0,7.155315876E0,9.889175217E0
2.523091615E0,1.494659543E0,-6.664285183E0,7.152921677E0,9.889944017E0
2.525496927E0,1.499447823E0,-6.661890984E0,7.157710075E0,9.892519839E0
2.527902552E0,1.509024143E0,-6.657103062E0,7.169680595E0,9.899418916E0
2.530307500E0,1.497053623E0,-6.661890984E0,7.162498474E0,9.895622538E0
2.532712136E0,1.518600583E0,-6.678649902E0,7.184044838E0,9.925775158E0
2.535117188E0,1.513812423E0,-6.657103062E0,7.198410034E0,9.920975569E0
2.537522136E0,1.499447823E0,-6.640344143E0,7.196015358E0,9.905814007E0
2.539927448E0,1.509024143E0,-6.659496784E0,7.203197956E0,9.925326800E0
2.542332344E0,1.499447823E0,-6.669073105E0,7.203197956E0,9.930304157E0
2.544736927E0,1.501841903E0,-6.669073105E0,7.205591679E0,9.932402359E0
2.547142344E0,1.501841903E0,-6.681043625E0,7.196015358E0,9.933504419E0
2.549547292E0,1.497053623E0,-6.666679382E0,7.191227436E0,9.919654005E0
2.551952031E0,1.509024143E0,-6.659496784E0,7.186439514E0,9.913171247E0
2.554357083E0,1.516206384E0,-6.659496784E0,7.181651115E0,9.910796737E0
2.556762188E0,1.504235864E0,-6.666679382E0,7.179256916E0,9.912066857E0
2.559167761E0,1.513812423E0,-6.657103062E0,7.205591679E0,9.926187620E0
2.561572917E0,1.497053623E0,-6.647526264E0,7.167286396E0,9.889427146E0
2.563977344E0,1.506630063E0,-6.659496784E0,7.164892197E0,9.897197167E0
2.566382604E0,1.528176904E0,-6.661890984E0,7.179256916E0,9.912509571E0
2.568787813E0,1.494659543E0,-6.647526264E0,7.188833237E0,9.904692620E0
2.571192708E0,1.506630063E0,-6.642738342E0,7.143345356E0,9.870323688E0
2.573598125E0,1.513812423E0,-6.635555744E0,7.150527954E0,9.871792041E0
2.576003386E0,1.516206384E0,-6.633162022E0,7.157710075E0,9.875754843E0
2.578408854E0,1.516206384E0,-6.640344143E0,7.136162758E0,9.864982060E0
2.580813698E0,1.513812423E0,-6.618797302E0,7.152921677E0,9.862271254E0
2.583218281E0,1.513812423E0,-6.637950420E0,7.160103798E0,9.880339075E0
2.585624219E0,1.523388743E0,-6.630767822E0,7.145739555E0,9.866579396E0
2.588029740E0,1.518600583E0,-6.635555744E0,7.152921677E0,9.874261303E0
2.590434844E0,1.509024143E0,-6.625979900E0,7.131374836E0,9.850749746E0
2.592840156E0,1.509024143E0,-6.630767822E0,7.119404316E0,9.845311249E0
2.595245052E0,1.509024143E0,-6.633162022E0,7.117010593E0,9.845193348E0
2.597650313E0,1.520994663E0,-6.645132542E0,7.095463276E0,9.839553362E0
2.600055208E0,1.520994663E0,-6.633162022E0,7.093069553E0,9.829745615E0
2.602459844E0,1.537753344E0,-6.635555744E0,7.069128513E0,9.816713468E0
2.604865521E0,1.537753344E0,-6.652314663E0,7.088280678E0,9.841834112E0
2.607270781E0,1.561694264E0,-6.661890984E0,7.081099033E0,9.846910377E0
2.609675833E0,1.561694264E0,-6.681043625E0,7.071522236E0,9.853002569E0
2.612081354E0,1.590423584E0,-6.685832024E0,7.073916435E0,9.862560051E0
2.614486719E0,1.580847144E0,-6.707378864E0,7.071522236E0,9.873927063E0
2.616892500E0,1.588029385E0,-6.707378864E0,7.105040073E0,9.899109202E0
2.619298073E0,1.580847144E0,-6.755260944E0,7.121798515E0,9.942466606E0
2.621703177E0,1.583241105E0,-6.760049343E0,7.131374836E0,9.952960694E0
2.624108698E0,1.564088464E0,-6.783990383E0,7.133769035E0,9.967926509E0
2.626513854E0,1.585635304E0,-6.805536747E0,7.155315876E0,1.000140565E1
2.628918646E0,1.571270823E0,-6.791172504E0,7.126586914E0,9.968809208E0
2.631323698E0,1.604788184E0,-6.805536747E0,7.162498474E0,1.000959839E1
2.633729115E0,1.609576344E0,-6.791172504E0,7.145739555E0,9.988611204E0
2.636134896E0,1.619152665E0,-6.793566227E0,7.133769035E0,9.983228841E0
2.638540261E0,1.614364505E0,-6.805536747E0,7.136162758E0,9.992313149E0
2.640945469E0,1.616758704E0,-6.762443542E0,7.138557434E0,9.965116839E0
2.643351406E0,1.638305545E0,-6.762443542E0,7.162498474E0,9.985793515E0
2.645756615E0,1.623940945E0,-6.745684147E0,7.145739555E0,9.960071917E0
2.648161354E0,1.669428825E0,-6.750473022E0,7.162498474E0,9.982848442E0
2.650566823E0,1.650276065E0,-6.709773064E0,7.145739555E0,9.940123714E0
2.652972552E0,1.667034626E0,-6.707378864E0,7.181651115E0,9.967148460E0
2.655378594E0,1.676611066E0,-6.712167263E0,7.196015358E0,9.982326936E0
2.657783854E0,1.647881866E0,-6.700196743E0,7.172074318E0,9.952225935E0
2.660188490E0,1.645487785E0,-6.685832024E0,7.188833237E0,9.954260555E0
2.662593750E0,1.645487785E0,-6.661890984E0,7.198410034E0,9.945125869E0
2.664998854E0,1.631123185E0,-6.652314663E0,7.203197956E0,9.939814587E0
2.667403958E0,1.628728986E0,-6.652314663E0,7.222351074E0,9.953311184E0
2.669809375E0,1.614364505E0,-6.635555744E0,7.222351074E0,9.939775039E0
2.672214896E0,1.580847144E0,-6.635555744E0,7.239109516E0,9.946576512E0
2.674621146E0,1.561694264E0,-6.633162022E0,7.241503239E0,9.943696322E0
2.677026927E0,1.532965183E0,-6.652314663E0,7.210380554E0,9.929393756E0
2.679432136E0,1.518600583E0,-6.657103062E0,7.215168476E0,9.933872611E0
2.681837917E0,1.465930462E0,-6.666679382E0,7.241503239E0,9.951529293E0
2.684242865E0,1.465930462E0,-6.685832024E0,7.260656357E0,9.978298086E0
2.686647656E0,1.444383502E0,-6.678649902E0,7.267838478E0,9.975574388E0
2.689053073E0,1.413260102E0,-6.673861504E0,7.284597397E0,9.980134805E0
2.691458438E0,1.418048382E0,-6.676255703E0,7.275021076E0,9.975428967E0
2.693864375E0,1.384531021E0,-6.700196743E0,7.248685837E0,9.967597951E0
2.696270052E0,1.398895621E0,-6.712167263E0,7.267838478E0,9.991575175E0
2.698675052E0,1.362984180E0,-6.704984665E0,7.263050556E0,9.978298884E0
2.701080781E0,1.334254861E0,-6.702590942E0,7.265444279E0,9.974549711E0
2.703486563E0,1.377348781E0,-6.721743107E0,7.227138996E0,9.965463267E0
2.705891979E0,1.367772341E0,-6.702590942E0,7.236715317E0,9.958191357E0
2.708297604E0,1.362984180E0,-6.714561462E0,7.253473759E0,9.977772451E0
2.710702969E0,1.346225381E0,-6.721743107E0,7.270232201E0,9.992518673E0
2.713108542E0,1.355801821E0,-6.681043625E0,7.306143761E0,9.992711301E0
2.715513906E0,1.358195901E0,-6.688226223E0,7.342055321E0,1.002411305E1
2.717918906E0,1.379742742E0,-6.695408344E0,7.375572681E0,1.005640370E1
2.720324688E0,1.403683782E0,-6.697802544E0,7.416272640E0,1.009118362E1
2.722730156E0,1.384531021E0,-6.688226223E0,7.418666840E0,1.008394337E1
2.725135000E0,1.413260102E0,-6.685832024E0,7.440213680E0,1.010219944E1
2.727540365E0,1.444383502E0,-6.709773064E0,7.485701561E0,1.015593551E1
2.729945677E0,1.449171662E0,-6.728925705E0,7.535977364E0,1.020634579E1
2.732351458E0,1.489871383E0,-6.719349384E0,7.567101002E0,1.022889977E1
2.734756771E0,1.540147424E0,-6.721743107E0,7.535977364E0,1.021493217E1
2.737161615E0,1.530570984E0,-6.769625187E0,7.569494724E0,1.026974796E1
2.739567708E0,1.597605824E0,-6.786384106E0,7.614983082E0,1.032450100E1
2.741973125E0,1.655064106E0,-6.800748825E0,7.643712044E0,1.036415725E1
2.744377917E0,1.693369746E0,-6.817507267E0,7.667653084E0,1.039898121E1
2.746783021E0,1.741251826E0,-6.855813026E0,7.662864685E0,1.042850063E1
2.749188073E0,1.779557228E0,-6.896512985E0,7.622165203E0,1.043197573E1
2.751593594E0,1.815468788E0,-6.932424545E0,7.607800484E0,1.045146235E1
2.753998802E0,1.841803908E0,-6.961153507E0,7.614983082E0,1.048035625E1
2.756403906E0,1.872927070E0,-7.016217709E0,7.626953602E0,1.053117220E1
2.758810104E0,1.877715468E0,-7.095222950E0,7.650894165E0,1.060208402E1
2.761215729E0,1.884897590E0,-7.174228191E0,7.705958366E0,1.069598913E1
2.763620886E0,1.904050469E0,-7.219716549E0,7.741869926E0,1.075575498E1
2.766026406E0,1.899262309E0,-7.262809753E0,7.789752007E0,1.081831037E1
2.768431823E0,1.923203349E0,-7.322662354E0,7.830451965E0,1.089201878E1
2.770837552E0,1.920809150E0,-7.363361835E0,7.902275085E0,1.097062245E1
2.773243073E0,1.906444430E0,-7.411243916E0,7.935791969E0,1.102442112E1
2.775648333E0,1.896868110E0,-7.423214436E0,7.933398247E0,1.102909919E1
2.778054427E0,1.904050469E0,-7.442367554E0,7.945368767E0,1.105183821E1
2.780460104E0,1.880109429E0,-7.447155476E0,7.866363525E0,1.099429903E1
2.782865521E0,1.846592069E0,-7.444761276E0,7.811298847E0,1.094763730E1
2.785271250E0,1.827439308E0,-7.466308117E0,7.751446247E0,1.091651090E1
2.787676771E0,1.789133668E0,-7.490249157E0,7.693987846E0,1.088587528E1
2.790082656E0,1.729281306E0,-7.468702316E0,7.595829964E0,1.079206009E1
2.792488281E0,1.688581586E0,-7.495037556E0,7.571888924E0,1.078704768E1
2.794893386E0,1.623940945E0,-7.507007599E0,7.571888924E0,1.078544617E1
2.797299115E0,1.537753344E0,-7.516584396E0,7.559918404E0,1.077107667E1
2.799704479E0,1.451565742E0,-7.523766994E0,7.552736282E0,1.075908631E1
2.802109636E0,1.343831301E0,-7.540525436E0,7.581465244E0,1.077701358E1
2.804514948E0,1.231308699E0,-7.566860199E0,7.636529922E0,1.082081714E1
2.806920052E0,1.130756497E0,-7.593195438E0,7.701170444E0,1.087397137E1
2.809325833E0,9.942928553E-1,-7.614742279E0,7.772993565E0,1.092668052E1
2.811731146E0,8.697997332E-1,-7.645865917E0,7.861574650E0,1.100091692E1
2.814135990E0,7.668534517E-1,-7.679382801E0,7.942974091E0,1.107482830E1
2.816541719E0,6.256016493E-1,-7.705718517E0,8.024374008E0,1.114271302E1
2.818947136E0,5.298377275E-1,-7.744023800E0,8.096197128E0,1.121601714E1
2.821352136E0,4.484383762E-1,-7.765570641E0,8.189566612E0,1.129487431E1
2.823757604E0,4.029504955E-1,-7.818240643E0,8.223083496E0,1.135369359E1
2.826163438E0,3.574626148E-1,-7.830211163E0,8.220689774E0,1.135868508E1
2.828569636E0,3.454921544E-1,-7.866122723E0,8.089014053E0,1.128837455E1
2.830975417E0,3.430980146E-1,-7.887670040E0,7.911850929E0,1.117722864E1
2.833380833E0,3.359157741E-1,-7.897245884E0,7.725111485E0,1.105245128E1
2.835786719E0,3.550685346E-1,-7.925975323E0,7.574283600E0,1.096890744E1
2.838192136E0,3.790095150E-1,-7.897245884E0,7.385149479E0,1.081899134E1
2.840597136E0,3.981623352E-1,-7.906822205E0,7.186439514E0,1.069211315E1
2.843002344E0,4.053446352E-1,-7.894851685E0,7.026034355E0,1.057630116E1
2.845407761E0,4.268915355E-1,-7.866122723E0,6.884782791E0,1.046223481E1
2.847813698E0,4.412560761E-1,-7.849363804E0,6.793807030E0,1.039052612E1
2.850219271E0,4.795617163E-1,-7.815846920E0,6.690860748E0,1.029976019E1
2.852624271E0,4.604088962E-1,-7.791905880E0,6.645372868E0,1.025118306E1
2.855030104E0,4.771675766E-1,-7.772752762E0,6.587914467E0,1.020019566E1
2.857435521E0,4.699852765E-1,-7.736841202E0,6.587914467E0,1.017252255E1
2.859840625E0,4.747734368E-1,-7.667412281E0,6.542426586E0,1.009048891E1
2.862246042E0,5.082908869E-1,-7.617136478E0,6.566367149E0,1.006957324E1
2.864651406E0,5.226554871E-1,-7.554889679E0,6.609461308E0,1.005159219E1
2.867057240E0,5.729315281E-1,-7.454338074E0,6.638190269E0,9.998048645E0
2.869462865E0,6.303899288E-1,-7.380120754E0,6.693254948E0,9.983147580E0
2.871868490E0,6.806659698E-1,-7.296327114E0,6.784230232E0,9.986264335E0
2.874275000E0,7.309420109E-1,-7.210139751E0,6.848871231E0,9.971330332E0
2.876680781E0,7.692476511E-1,-7.128740311E0,6.954211235E0,9.988580193E0
2.879086042E0,8.027650118E-1,-7.071281910E0,7.052370071E0,1.001915082E1
2.881491667E0,8.769820929E-1,-6.953971386E0,7.150527954E0,1.001283505E1
2.883896979E0,9.559873343E-1,-6.891724110E0,7.253473759E0,1.005100266E1
2.886302865E0,1.027810335E0,-6.803143024E0,7.322902679E0,1.004808702E1
2.888708750E0,1.113997936E0,-6.721743107E0,7.354025841E0,1.002519416E1
2.891114115E0,1.216944218E0,-6.630767822E0,7.421061039E0,1.002597537E1
2.893520208E0,1.324678540E0,-6.573309422E0,7.466548920E0,1.003556290E1
2.895925781E0,1.444383502E0,-6.508668900E0,7.495277882E0,1.003136108E1
2.898330833E0,1.561694264E0,-6.475151539E0,7.665258884E0,1.015493329E1
2.900736406E0,1.671822906E0,-6.436845779E0,7.749052525E0,1.021155181E1
2.903141771E0,1.798710108E0,-6.434452057E0,7.758628845E0,1.023884041E1
2.905547552E0,1.918414950E0,-6.434452057E0,7.887909889E0,1.035864912E1
2.907953229E0,2.018967152E0,-6.479939461E0,7.995644569E0,1.048790617E1
2.910358386E0,2.131489754E0,-6.525427341E0,8.103379250E0,1.062022626E1
2.912764583E0,2.172189474E0,-6.582885742E0,8.151261330E0,1.070027350E1
2.915170156E0,2.220071316E0,-6.625979900E0,8.189566612E0,1.076574789E1
2.917575208E0,2.258376837E0,-6.666679382E0,8.247024536E0,1.084243025E1
2.919980886E0,2.236830235E0,-6.690620422E0,8.280542374E0,1.087819806E1
2.922386458E0,2.196130514E0,-6.760049343E0,8.302088737E0,1.092913234E1
2.924792917E0,2.208101034E0,-6.786384106E0,8.357153893E0,1.098966517E1
2.927199115E0,2.145854473E0,-6.812719345E0,8.405035973E0,1.103007099E1
2.929604636E0,2.129095554E0,-6.836660385E0,8.409823418E0,1.104527514E1
2.932010781E0,2.100366354E0,-6.829477787E0,8.431370735E0,1.105175634E1
2.934416302E0,2.093184233E0,-6.824689865E0,8.428977013E0,1.104560842E1
2.936821146E0,2.090790033E0,-6.781595707E0,8.395459175E0,1.099296039E1
2.939226511E0,2.078819513E0,-6.760049343E0,8.409823418E0,1.098839786E1
2.941631927E0,2.066849232E0,-6.709773064E0,8.424187660E0,1.096630558E1
2.944037656E0,2.090790033E0,-6.657103062E0,8.457705498E0,1.096454315E1
2.946443177E0,2.102760315E0,-6.618797302E0,8.534317017E0,1.100293804E1
2.948848333E0,2.107548714E0,-6.558944702E0,8.579804420E0,1.100338862E1
2.951254271E0,2.105154753E0,-6.511062622E0,8.634868622E0,1.101755731E1
2.953660000E0,2.157824993E0,-6.441633701E0,8.723450661E0,1.105664709E1
2.956065156E0,2.176977634E0,-6.410511017E0,8.831185341E0,1.112761060E1
2.958470573E0,2.232041836E0,-6.331505299E0,8.965254784E0,1.120025729E1
2.960876198E0,2.306258917E0,-6.286017418E0,9.080170631E0,1.128194770E1
2.963282188E0,2.385264158E0,-6.221376896E0,9.190299988E0,1.135150340E1
2.965687865E0,2.435540199E0,-6.190253735E0,9.288457870E0,1.142482153E1
2.968093281E0,2.548062801E0,-6.142371655E0,9.317187309E0,1.144689185E1
2.970499323E0,2.651009083E0,-6.094490051E0,9.369856834E0,1.148759658E1
2.972904792E0,2.746773243E0,-6.070549011E0,9.379433632E0,1.150522072E1
2.975310000E0,2.859295607E0,-6.032243252E0,9.353098869E0,1.149103949E1
2.977715469E0,2.959847927E0,-5.984361172E0,9.331551552E0,1.147393275E1
2.980120833E0,3.031670809E0,-5.946055412E0,9.348309517E0,1.148640473E1
2.982526771E0,3.110676050E0,-5.919720173E0,9.333946228E0,1.148224475E1
2.984932344E0,3.189681530E0,-5.902961731E0,9.319581032E0,1.148362382E1
2.987337552E0,3.244745731E0,-5.907749653E0,9.326764107E0,1.150731982E1
2.989743281E0,3.297415972E0,-5.883808613E0,9.326764107E0,1.151002539E1
2.992148646E0,3.338115454E0,-5.852685928E0,9.293246269E0,1.147873571E1
2.994553698E0,3.328539133E0,-5.835927010E0,9.252547264E0,1.143445878E1
2.996959271E0,3.335721493E0,-5.800015450E0,9.228606224E0,1.139887670E1
2.999365000E0,3.342903614E0,-5.790439129E0,9.171147346E0,1.134963143E1
3.001771094E0,3.326144934E0,-5.749739170E0,9.163965225E0,1.131817120E1
3.004176771E0,3.302203894E0,-5.704251289E0,9.149600029E0,1.127644510E1
3.006581927E0,3.263898373E0,-5.709039688E0,9.125658989E0,1.124828070E1
3.008987761E0,3.256716251E0,-5.663551807E0,9.111294746E0,1.121149909E1
3.011393177E0,3.232775211E0,-5.644399166E0,9.144811630E0,1.122219485E1
3.013798281E0,3.199257612E0,-5.598911285E0,9.144811630E0,1.118975588E1
3.016203854E0,3.172922611E0,-5.531876564E0,9.142417908E0,1.114687855E1
3.018609375E0,3.151375771E0,-5.507935524E0,9.118476868E0,1.110923685E1
3.021015313E0,3.122646570E0,-5.450477123E0,9.092142105E0,1.105104839E1
3.023421042E0,3.074764729E0,-5.404989243E0,9.063412666E0,1.099152110E1
3.025826094E0,3.055611849E0,-5.357107162E0,9.056229591E0,1.095676300E1
3.028231719E0,3.010123968E0,-5.304437160E0,9.058625221E0,1.092046660E1
3.030637136E0,3.007730007E0,-5.254160881E0,9.094535828E0,1.092534797E1
3.033042448E0,2.962241888E0,-5.203884602E0,9.135235786E0,1.092281213E1
3.035447969E0,2.938300848E0,-5.156002998E0,9.149600029E0,1.090564805E1
3.037853542E0,2.940695286E0,-5.112909317E0,9.190299988E0,1.092021723E1
3.040259740E0,2.940695286E0,-5.067421436E0,9.209452629E0,1.091514849E1
3.042665261E0,2.919148207E0,-5.026721954E0,9.226210594E0,1.090469265E1
3.045070573E0,2.899995327E0,-4.978839874E0,9.226210594E0,1.087758159E1
3.047476563E0,2.919148207E0,-4.930957794E0,9.252547264E0,1.088326247E1
3.049881771E0,2.921542406E0,-4.897440434E0,9.319581032E0,1.092588319E1
3.052286615E0,2.935906887E0,-4.851952553E0,9.355492592E0,1.094012040E1
3.054692240E0,2.947877407E0,-4.813646793E0,9.427315712E0,1.098796879E1
3.057097604E0,2.971818447E0,-4.768158913E0,9.417738914E0,1.096635083E1
3.059503229E0,3.036458969E0,-4.722671509E0,9.479986191E0,1.101788761E1
3.061908698E0,3.074764729E0,-4.684365273E0,9.470408440E0,1.100391258E1
3.064313906E0,3.122646570E0,-4.643665791E0,9.448863029E0,1.098160126E1
3.066719896E0,3.172922611E0,-4.602966309E0,9.405769348E0,1.094181127E1
3.069125261E0,3.225592852E0,-4.559872150E0,9.355492592E0,1.089596829E1
3.071530208E0,3.256716251E0,-4.526354790E0,9.350705147E0,1.088713806E1
3.073935625E0,3.304598093E0,-4.492837906E0,9.321974754E0,1.086301866E1
3.076341042E0,3.330933094E0,-4.456926346E0,9.345915794E0,1.087683087E1
3.078746875E0,3.371632814E0,-4.425802708E0,9.353098869E0,1.088283492E1
3.081152448E0,3.376421213E0,-4.399467945E0,9.369856834E0,1.088805563E1
3.083557761E0,3.371632814E0,-4.363556385E0,9.389009476E0,1.088861934E1
3.085963854E0,3.412332773E0,-4.318068504E0,9.381828308E0,1.087696800E1
3.088369479E0,3.414726734E0,-4.282156944E0,9.374646187E0,1.085731172E1
3.090774636E0,3.431485415E0,-4.236669064E0,9.355492592E0,1.082818999E1
3.093180261E0,3.443455935E0,-4.207939625E0,9.360280991E0,1.082492517E1
3.095585886E0,3.457820415E0,-4.164845943E0,9.367463112E0,1.081904935E1
3.097991823E0,3.508096457E0,-4.131328583E0,9.372250557E0,1.082652747E1
3.100397396E0,3.546402216E0,-4.097811222E0,9.412950516E0,1.086152213E1
3.102802552E0,3.582313776E0,-4.040352821E0,9.444073677E0,1.087878442E1
3.105208229E0,3.623013258E0,-4.016412258E0,9.453650475E0,1.089170785E1
3.107613698E0,3.627801418E0,-3.956559896E0,9.403374672E0,1.082768510E1
3.110018802E0,3.646954060E0,-3.935012817E0,9.357887268E0,1.078678144E1
3.112424427E0,3.694836140E0,-3.896707296E0,9.312398911E0,1.074974024E1
3.114830156E0,3.709200621E0,-3.834460735E0,9.295639992E0,1.071775075E1
3.117236198E0,3.740324259E0,-3.834460735E0,9.286064148E0,1.072026595E1
3.119641719E0,3.723565340E0,-3.784184456E0,9.247757912E0,1.066330236E1
3.122046875E0,3.740324259E0,-3.760243654E0,9.281275749E0,1.068978659E1
3.124452761E0,3.730747700E0,-3.733908653E0,9.283669472E0,1.067928233E1
3.126858073E0,3.718777180E0,-3.705179214E0,9.333946228E0,1.070888458E1
3.129262969E0,3.716383219E0,-3.678844213E0,9.348309517E0,1.071150269E1
3.131668438E0,3.737929821E0,-3.652508974E0,9.369856834E0,1.072880041E1
3.134073854E0,3.730747700E0,-3.609415293E0,9.343522072E0,1.068867447E1
3.136479740E0,3.723565340E0,-3.604627371E0,9.290851593E0,1.063852436E1
3.138885104E0,3.745112181E0,-3.578292131E0,9.264516830E0,1.061420331E1
3.141289896E0,3.749900341E0,-3.556745291E0,9.178328514E0,1.053346590E1
3.143695886E0,3.742718220E0,-3.513651609E0,9.123265266E0,1.046841232E1
3.146101406E0,3.704412699E0,-3.504075050E0,9.010743141E0,1.035348769E1
3.148506250E0,3.706806660E0,-3.480134010E0,8.965254784E0,1.030667462E1
3.150911771E0,3.687654018E0,-3.441828489E0,8.926948547E0,1.025355479E1
3.153317500E0,3.632589579E0,-3.398734808E0,8.922161102E0,1.021528580E1
3.155723542E0,3.601466417E0,-3.374793768E0,8.984406471E0,1.025082206E1
3.158128906E0,3.579919338E0,-3.336488008E0,9.005953789E0,1.024964284E1
3.160533906E0,3.548796177E0,-3.279029846E0,9.084959984E0,1.028992172E1
3.162939948E0,3.534431696E0,-3.238330126E0,9.118476868E0,1.030172849E1
3.165345521E0,3.505702496E0,-3.190448046E0,9.147206306E0,1.030244107E1
3.167750625E0,3.503308535E0,-3.130595684E0,9.142417908E0,1.027898853E1
3.170156042E0,3.498520136E0,-3.070743322E0,9.137629509E0,1.025501734E1
3.172561250E0,3.512884617E0,-3.008496523E0,9.092142105E0,1.020090475E1
3.174966719E0,3.536825657E0,-2.977373362E0,9.058625221E0,1.017018086E1
3.177371875E0,3.563160658E0,-2.919914961E0,9.053835869E0,1.015844285E1
3.179776875E0,3.613436937E0,-2.857668400E0,9.005953789E0,1.011584889E1
3.182182604E0,3.654136419E0,-2.802603960E0,8.931736946E0,1.004904109E1
3.184588021E0,3.697230339E0,-2.725993156E0,9.197482109E0,1.028076982E1
3.186992813E0,3.778629780E0,-2.651775837E0,8.519951820E0,9.690177353E0
3.189398125E0,3.797782421E0,-2.608682156E0,8.967648506E0,1.008201833E1
3.191803490E0,3.867211580E0,-2.544041634E0,8.828790665E0,9.968701914E0
3.194209063E0,3.924669504E0,-2.503341913E0,8.369123459E0,9.576637141E0
3.196614427E0,3.943822622E0,-2.424336672E0,8.941313744E0,1.006867601E1
3.199019479E0,3.996492624E0,-2.374060631E0,8.141684532E0,9.375241021E0
3.201425104E0,3.977339983E0,-2.347725391E0,8.603745461E0,9.765013252E0
3.203830469E0,4.025222301E0,-2.266326189E0,8.414611816E0,9.599184392E0
3.206235521E0,3.991704226E0,-2.251961231E0,8.194355011E0,9.388955536E0
3.208641042E0,3.979733706E0,-2.201685429E0,8.792880058E0,9.899517100E0
3.211046927E0,3.994098425E0,-2.134650469E0,8.139290810E0,9.314376508E0
3.213453073E0,3.958187342E0,-2.120285988E0,8.802455902E0,9.881603595E0
3.215858750E0,3.955793142E0,-2.062827587E0,8.541499138E0,9.636429036E0
3.218264219E0,3.958187342E0,-2.019733667E0,8.409823418E0,9.511661318E0
3.220670521E0,3.946216822E0,-1.983822227E0,8.905402184E0,9.940541529E0
3.223076250E0,3.994098425E0,-1.928757906E0,8.268571854E0,9.383081039E0
3.225481406E0,3.967763186E0,-1.916787505E0,8.958071709E0,9.983199275E0
3.227886979E0,4.022828102E0,-1.871299624E0,8.651627541E0,9.722940261E0
3.230292761E0,4.025222301E0,-1.864117384E0,8.706691742E0,9.771582742E0
3.232699063E0,4.073104382E0,-1.847358584E0,9.137629509E0,1.017345497E1
3.235104844E0,4.120985985E0,-1.816235304E0,8.543892860E0,9.658123077E0
3.237509948E0,4.144927025E0,-1.840176344E0,9.240575790E0,1.029344014E1
3.239915833E0,4.250267029E0,-1.782717943E0,8.725845337E0,9.868294175E0
3.242321250E0,4.274208069E0,-1.804264784E0,8.821608543E0,9.967196362E0
3.244726146E0,4.338849068E0,-1.792294383E0,9.027501106E0,1.017515143E1
3.247131875E0,4.381942749E0,-1.782717943E0,8.366729736E0,9.611538483E0
3.249537865E0,4.396306992E0,-1.806658983E0,9.044260025E0,1.021715084E1
3.251944063E0,4.444189072E0,-1.821023583E0,8.450522423E0,9.719993447E0
3.254349792E0,4.408277512E0,-1.828205824E0,8.699509621E0,9.922535704E0
3.256754948E0,4.413066387E0,-1.818629503E0,8.845549583E0,1.005118479E1
3.259160833E0,4.398701668E0,-1.816235304E0,8.290119171E0,9.558941516E0
3.261566354E0,4.353213787E0,-1.840176344E0,8.953284264E0,1.012413050E1
3.263971198E0,4.365184307E0,-1.801870704E0,8.316453934E0,9.563732436E0
3.266376406E0,4.300543785E0,-1.806658983E0,8.656415939E0,9.833220756E0
3.268781875E0,4.317302227E0,-1.777929664E0,8.637263298E0,9.818474917E0
3.271187708E0,4.274208069E0,-1.765959263E0,8.191961288E0,9.407215129E0
3.273593229E0,4.250267029E0,-1.753988862E0,8.809638023E0,9.937352205E0
3.275998386E0,4.264632225E0,-1.698924422E0,8.093802452E0,9.305002436E0
3.278404063E0,4.228720665E0,-1.686953902E0,8.505587578E0,9.647430330E0
3.280809271E0,4.240691185E0,-1.639072061E0,8.395459175E0,9.547447497E0
3.283214583E0,4.178444386E0,-1.598372340E0,8.124925613E0,9.275160799E0
3.285620313E0,4.204779625E0,-1.560066819E0,8.326029778E0,9.457100614E0
3.288025625E0,4.207173824E0,-1.507396579E0,8.208719254E0,9.346423263E0
3.290431458E0,4.221538067E0,-1.476273298E0,8.191961288E0,9.333220037E0
3.292836875E0,4.255055428E0,-1.409238577E0,8.225478172E0,9.367493860E0
3.295241823E0,4.281390667E0,-1.361356616E0,8.201537132E0,9.351406804E0
3.297647917E0,4.283784866E0,-1.306292295E0,8.213507652E0,9.355154745E0
3.300053854E0,4.307725430E0,-1.277563095E0,8.201537132E0,9.351677773E0
3.302459323E0,4.348425388E0,-1.224892974E0,8.261389732E0,9.415929400E0
3.304865052E0,4.343636990E0,-1.198557854E0,8.304482460E0,9.448182479E0
3.307270625E0,4.360395432E0,-1.141099453E0,8.352364540E0,9.490898255E0
3.309676511E0,4.365184307E0,-1.126734972E0,8.378700256E0,9.514566922E0
3.312082188E0,4.381942749E0,-1.102793932E0,8.417005539E0,9.553196269E0
3.314487344E0,4.365184307E0,-1.076458812E0,8.424187660E0,9.548849949E0
3.316893281E0,4.398701668E0,-1.052517891E0,8.405035973E0,9.544684383E0
3.319298906E0,4.389125347E0,-1.054911971E0,8.395459175E0,9.532103406E0
3.321704115E0,4.360395432E0,-1.023788691E0,8.364336014E0,9.488061370E0
3.324109792E0,4.334060669E0,-1.023788691E0,8.381094933E0,9.490783816E0
3.326515677E0,4.283784866E0,-1.007030010E0,8.369123459E0,9.455535400E0
3.328921875E0,4.269420147E0,-1.004635930E0,8.366729736E0,9.446661221E0
3.331327344E0,4.223932266E0,-9.950594902E-1,8.349970818E0,9.410300730E0
3.333732604E0,4.192809105E0,-9.759067893E-1,8.361942291E0,9.405005111E0
3.336138594E0,4.123380184E0,-9.878771901E-1,8.345182419E0,9.360568097E0
3.338544219E0,4.092256546E0,-9.519657493E-1,8.364336014E0,9.360284150E0
3.340949583E0,4.061133862E0,-9.447834492E-1,8.364336014E0,9.345990635E0
3.343355104E0,4.030010223E0,-9.256306291E-1,8.395459175E0,9.358499304E0
3.345760521E0,3.982128382E0,-9.304189086E-1,8.419400215E0,9.359985351E0
3.348166563E0,3.946216822E0,-8.801427484E-1,8.445734978E0,9.363638063E0
3.350572292E0,3.917487383E0,-8.585959077E-1,8.474463463E0,9.375522669E0
3.352977292E0,3.871999502E0,-8.490195274E-1,8.517558098E0,9.394786334E0
3.355383125E0,3.874393702E0,-8.059257269E-1,8.507982254E0,9.383293924E0
3.357788386E0,3.855241060E0,-7.748024464E-1,8.460100174E0,9.329335315E0
3.360193125E0,3.845664263E0,-7.580437660E-1,8.371518135E0,9.243704877E0
3.362598386E0,3.857634783E0,-6.981912851E-1,8.282936096E0,9.163833672E0
3.365003698E0,3.867211580E0,-6.479151845E-1,8.160837173E0,9.053970558E0
3.367409323E0,3.924669504E0,-6.048214436E-1,8.055497169E0,8.981084252E0
3.369814375E0,3.919881582E0,-5.521512628E-1,7.940580368E0,8.872607239E0
3.372219011E0,3.927063704E0,-5.162397623E-1,7.880727768E0,8.820102209E0
3.374624740E0,3.943822622E0,-4.635695815E-1,7.840027809E0,8.788325761E0
3.377030365E0,3.946216822E0,-3.989289403E-1,7.794540405E0,8.745663590E0
3.379435417E0,3.967763186E0,-3.486528397E-1,7.772993565E0,8.734078798E0
3.381841042E0,3.967763186E0,-3.079531789E-1,7.737082005E0,8.700598704E0
3.384246719E0,3.962975264E0,-2.600712180E-1,7.717928886E0,8.679817756E0
3.386652656E0,3.972551584E0,-2.097951323E-1,7.672441483E0,8.642426649E0
3.389058386E0,3.991704226E0,-1.595190465E-1,7.679623604E0,8.656544787E0
3.391463906E0,4.003674984E0,-9.487838298E-2,7.624559402E0,8.612335419E0
3.393870104E0,4.008463383E0,-6.375509501E-2,7.600618362E0,8.593092743E0
3.396275625E0,4.061133862E0,-3.902629018E-3,7.591042042E0,8.609108128E0
3.398680677E0,4.104227066E0,6.313212961E-2,7.576677322E0,8.617116961E0
3.401086250E0,4.140138626E0,1.134082079E-1,7.591042042E0,8.647400103E0
3.403492031E0,4.178444386E0,1.636842787E-1,7.581465244E0,8.658221831E0
3.405898021E0,4.255055428E0,2.115662545E-1,7.600618362E0,8.713188651E0
3.408303490E0,4.302937508E0,2.762069106E-1,7.595829964E0,8.734311323E0
3.410708698E0,4.367578030E0,3.240889311E-1,7.583859444E0,8.757607866E0
3.413114740E0,4.446583748E0,3.576062918E-1,7.571888924E0,8.788258710E0
3.415520781E0,4.523194790E0,4.030941725E-1,7.524006844E0,8.788199759E0
3.417926302E0,4.599805832E0,4.390056133E-1,7.528795242E0,8.833668401E0
3.420331719E0,4.640505791E0,4.725229740E-1,7.516824722E0,8.846480987E0
3.422737136E0,4.709934235E0,4.916757941E-1,7.497672081E0,8.867937315E0
3.425142969E0,4.784151077E0,4.868876338E-1,7.504854202E0,8.913360629E0
3.427548229E0,4.815274715E0,5.108286142E-1,7.485701561E0,8.915354413E0
3.429953125E0,4.863156796E0,5.156167746E-1,7.468942642E0,8.927556153E0
3.432358750E0,4.872733116E0,5.467400551E-1,7.504854202E0,8.964668946E0
3.434764011E0,4.918220520E0,5.467400551E-1,7.500065804E0,8.985477440E0
3.437168958E0,4.932585716E0,5.634987354E-1,7.519218922E0,9.010359919E0
3.439574375E0,4.946949959E0,5.778633356E-1,7.543159962E0,9.039109588E0
3.441979792E0,4.968497276E0,6.018043756E-1,7.543159962E0,9.052480097E0
3.444385677E0,4.980467796E0,6.065925360E-1,7.550342560E0,9.065356405E0
3.446791094E0,4.968497276E0,5.946220756E-1,7.535977364E0,9.046020972E0
3.449196042E0,4.987649441E0,6.233512163E-1,7.583859444E0,9.098359069E0
3.451601927E0,4.958920479E0,6.281394362E-1,7.624559402E0,9.116981822E0
3.454007656E0,4.937373638E0,6.568686366E-1,7.682017326E0,9.155464218E0
3.456413021E0,4.932585716E0,6.760213971E-1,7.744264603E0,9.206575966E0
3.458818854E0,4.913432598E0,6.808096170E-1,7.777781487E0,9.224923115E0
3.461224740E0,4.925403118E0,7.286915183E-1,7.820875168E0,9.271282306E0
3.463630677E0,4.925403118E0,7.358738780E-1,7.844816208E0,9.292052926E0
3.466035886E0,4.934979439E0,7.837558389E-1,7.909457207E0,9.355629780E0
3.468440625E0,4.942161560E0,8.388200998E-1,7.969309807E0,9.414801052E0
3.470846198E0,4.985255718E0,8.627611399E-1,7.990856171E0,9.457849317E0
3.473251771E0,5.013984680E0,9.010666609E-1,8.002826691E0,9.486685330E0
3.475656979E0,5.059472561E0,9.465546012E-1,7.971703529E0,9.489061353E0
3.478062656E0,5.090596199E0,9.872542024E-1,7.950157166E0,9.491777467E0
3.480468438E0,5.171995163E0,1.027953863E0,7.863968849E0,9.468274878E0
3.482874479E0,5.227059841E0,1.085412264E0,7.813693047E0,9.463301400E0
3.485280000E0,5.277335644E0,1.104565144E0,7.703564167E0,9.402937654E0
3.487685052E0,5.322823524E0,1.152447224E0,7.619771004E0,9.365975391E0
3.490090729E0,5.394646645E0,1.169205785E0,7.550342560E0,9.352910101E0
3.492496198E0,5.430558205E0,1.207511425E0,7.524006844E0,9.357335371E0
3.494901406E0,5.425769806E0,1.214693666E0,7.492883682E0,9.330475045E0
3.497306979E0,5.435346127E0,1.248211026E0,7.492883682E0,9.340467020E0
3.499712761E0,5.425769806E0,1.272152066E0,7.480913162E0,9.328526711E0
3.502119115E0,5.413799286E0,1.262575626E0,7.473731041E0,9.314503508E0
3.504525104E0,5.404222965E0,1.288910747E0,7.476124763E0,9.314470369E0
3.506930521E0,5.397040844E0,1.288910747E0,7.497672081E0,9.327616385E0
3.509336302E0,5.392252445E0,1.315245748E0,7.480913162E0,9.315058752E0
3.511741667E0,5.401828766E0,1.348763227E0,7.466548920E0,9.313875081E0
3.514146927E0,5.413799286E0,1.360733628E0,7.377966881E0,9.251768156E0
3.516552552E0,5.452105045E0,1.389462948E0,7.198410034E0,9.136364908E0
3.518957917E0,5.499986649E0,1.425374389E0,6.975758553E0,8.996819030E0
3.521363490E0,5.595750809E0,1.485226750E0,6.769865990E0,8.907828643E0
3.523768854E0,5.689120770E0,1.518744111E0,6.619038105E0,8.859139024E0
3.526173750E0,5.811219692E0,1.597749472E0,6.482574463E0,8.851375563E0
3.528579531E0,5.962048054E0,1.643237352E0,6.401175022E0,8.900634115E0
3.530985104E0,6.074570656E0,1.671966553E0,6.346110344E0,8.942538639E0
3.533390261E0,6.146393776E0,1.731819034E0,6.276681900E0,8.953998508E0
3.535795781E0,6.234975338E0,1.765336394E0,6.149794579E0,8.933717222E0
3.538200938E0,6.328345299E0,1.815612435E0,6.049242496E0,8.940790654E0
3.540606250E0,6.390591621E0,1.846735835E0,6.034877777E0,8.981639288E0
3.543011198E0,6.483961582E0,1.882647157E0,6.066000938E0,9.076479797E0
3.545416042E0,6.536631584E0,1.899405956E0,6.159370899E0,9.180040595E0
3.547822031E0,6.560572624E0,1.911376476E0,6.300622940E0,9.294747045E0
3.550227448E0,6.546208382E0,1.940105557E0,6.504120827E0,9.429763596E0
3.552632292E0,6.541419506E0,1.961652637E0,6.712407589E0,9.575733176E0
3.555037656E0,6.510296822E0,1.964046597E0,6.932664871E0,9.710987898E0
3.557443177E0,6.512690544E0,1.990381598E0,7.105040073E0,9.841664060E0
3.559848958E0,6.469596863E0,1.985593438E0,7.258262157E0,9.923740949E0
3.562254323E0,6.467202663E0,2.014322519E0,7.433031559E0,1.005644886E1
3.564659479E0,6.460020542E0,2.026293039E0,7.502460480E0,1.010567376E1
3.567065208E0,6.443261623E0,2.057416439E0,7.535977364E0,1.012618080E1
3.569470573E0,6.450444221E0,2.076569080E0,7.540765762E0,1.013822066E1
3.571875990E0,6.409744740E0,2.114874601E0,7.516824722E0,1.010248366E1
3.574281979E0,6.419320583E0,2.155574322E0,7.473731041E0,1.008517888E1
3.576687917E0,6.397774220E0,2.189091682E0,7.466548920E0,1.007338027E1
3.579094167E0,6.376227379E0,2.220214844E0,7.492883682E0,1.008607631E1
3.581500313E0,6.357074261E0,2.256126404E0,7.512036324E0,1.009619677E1
3.583905781E0,6.325951099E0,2.282461643E0,7.555130482E0,1.011470638E1
3.586311719E0,6.311586380E0,2.323161125E0,7.605406284E0,1.015260582E1
3.588717396E0,6.302010059E0,2.375831366E0,7.619771004E0,1.016960253E1
3.591122552E0,6.309192181E0,2.416531086E0,7.638923645E0,1.019797445E1
3.593527761E0,6.316374779E0,2.476383686E0,7.574283600E0,1.016852195E1
3.595933021E0,6.359467983E0,2.512295246E0,7.514431000E0,1.015978020E1
3.598338698E0,6.390591621E0,2.569753408E0,7.387543201E0,1.010044991E1
3.600743958E0,6.431291103E0,2.615241528E0,7.191227436E0,9.995736368E0
3.603149063E0,6.483961582E0,2.653546810E0,7.030822754E0,9.925499336E0
3.605554740E0,6.515084743E0,2.684670210E0,6.872812271E0,9.843237875E0
3.607959948E0,6.560572624E0,2.739734411E0,6.748318672E0,9.802400864E0
3.610364948E0,6.553390026E0,2.770857573E0,6.719589710E0,9.786595853E0
3.612770573E0,6.572543144E0,2.792404652E0,6.686072350E0,9.782607555E0
3.615176406E0,6.613242626E0,2.842680693E0,6.695648670E0,9.830947191E0
3.617582500E0,6.661124706E0,2.864227772E0,6.729166508E0,9.892222448E0
3.619988333E0,6.720977306E0,2.909715414E0,6.738742828E0,9.952318054E0
3.622394063E0,6.771253109E0,2.955203533E0,6.741137028E0,1.000130117E1
3.624800625E0,6.835894108E0,2.962385654E0,6.757895470E0,1.005854503E1
3.627206458E0,6.862229347E0,2.979144335E0,6.760289192E0,1.008300563E1
3.629611667E0,6.900534630E0,3.005479336E0,6.777048588E0,1.012811294E1
3.632017344E0,6.924475670E0,3.015055895E0,6.796200752E0,1.016008219E1
3.634423386E0,6.965175152E0,3.036602736E0,6.853659153E0,1.023265678E1
3.636829844E0,6.974751472E0,3.027026415E0,6.879994392E0,1.025399287E1
3.639235833E0,7.025027752E0,3.050967216E0,6.882388592E0,1.029692617E1
3.641641406E0,7.063333035E0,3.072514057E0,6.875206470E0,1.032470243E1
3.644047865E0,7.111215115E0,3.079696417E0,6.824930191E0,1.032635379E1
3.646453906E0,7.149521351E0,3.101243496E0,6.765078068E0,1.031986667E1
3.648859271E0,7.195008755E0,3.137154818E0,6.674101830E0,1.030308335E1
3.651264896E0,7.218949795E0,3.151519537E0,6.669313908E0,1.032109779E1
3.653670677E0,7.199797153E0,3.163489819E0,6.642978668E0,1.029436314E1
3.656076823E0,7.230920315E0,3.187430859E0,6.566367149E0,1.027439057E1
3.658482500E0,7.202191353E0,3.213765860E0,6.523273945E0,1.023488907E1
3.660887604E0,7.233314037E0,3.235312939E0,6.501727104E0,1.024990425E1
3.663293386E0,7.223738194E0,3.273618460E0,6.465815544E0,1.023258237E1
3.665699011E0,7.226132393E0,3.307135820E0,6.415539265E0,1.021338733E1
3.668104167E0,7.250072956E0,3.352623701E0,6.389204502E0,1.022866451E1
3.670509583E0,7.276408195E0,3.398111582E0,6.358080864E0,1.024297178E1
3.672915365E0,7.295561314E0,3.422052622E0,6.286257744E0,1.022021015E1
3.675321563E0,7.307531834E0,3.465146542E0,6.221617222E0,1.020371417E1
3.677727344E0,7.300349236E0,3.510634184E0,6.202464581E0,1.020246138E1
3.680132865E0,7.305137157E0,3.556122065E0,6.197676182E0,1.021871925E1
3.682539427E0,7.314713478E0,3.596822023E0,6.202464581E0,1.024269148E1
3.684945573E0,7.283590794E0,3.604004145E0,6.233587742E0,1.024193131E1
3.687351250E0,7.262043476E0,3.668644667E0,6.281469822E0,1.027876901E1
3.689757396E0,7.250072956E0,3.694979906E0,6.324563503E0,1.030614079E1
3.692163386E0,7.276408195E0,3.730891466E0,6.396386147E0,1.038168691E1
3.694569583E0,7.252467155E0,3.790743828E0,6.441874504E0,1.041468990E1
3.696975313E0,7.271620274E0,3.821867228E0,6.446662903E0,1.044234615E1
3.699380469E0,7.288378716E0,3.862566710E0,6.441874504E0,1.046602279E1
3.701786302E0,7.336260796E0,3.893690109E0,6.413145542E0,1.049333030E1
3.704191719E0,7.369778156E0,3.920025110E0,6.360475063E0,1.049456383E1
3.706596771E0,7.388930798E0,3.960725069E0,6.274287224E0,1.047140495E1
3.709002500E0,7.379354477E0,3.982271910E0,6.224011421E0,1.044278125E1
3.711408073E0,7.424842358E0,3.979877710E0,6.145006180E0,1.042731085E1
3.713813854E0,7.467936039E0,4.020577431E0,6.075577259E0,1.043301254E1
3.716219531E0,7.463147640E0,4.051701069E0,5.991784096E0,1.039309054E1
3.718624740E0,7.479906559E0,4.070853710E0,5.934325218E0,1.037964681E1
3.721030886E0,7.513423920E0,4.087612629E0,5.848137856E0,1.036150724E1
3.723436458E0,7.501453876E0,4.111553192E0,5.793073654E0,1.033133013E1
3.725841458E0,7.511029720E0,4.113947392E0,5.726038933E0,1.030182763E1
3.728246875E0,7.518212318E0,4.135494232E0,5.675762653E0,1.028786230E1
3.730652344E0,7.491877079E0,4.145070553E0,5.647033691E0,1.025664768E1
3.733058386E0,7.491877079E0,4.145070553E0,5.613516331E0,1.023823215E1
3.735464115E0,7.448782921E0,4.149858475E0,5.594363213E0,1.019816612E1
3.737869375E0,7.439206600E0,4.178588390E0,5.563240528E0,1.018587458E1
3.740275521E0,7.436812878E0,4.178588390E0,5.563240528E0,1.018412647E1
3.742681406E0,7.408083439E0,4.169011593E0,5.498599529E0,1.012397919E1
3.745086563E0,7.384142876E0,4.178588390E0,5.436352730E0,1.007671067E1
3.747491823E0,7.384142876E0,4.192952633E0,5.390864849E0,1.005822259E1
3.749897083E0,7.350625038E0,4.192952633E0,5.345377445E0,1.000927571E1
3.752302917E0,7.329078197E0,4.209711075E0,5.371712208E0,1.001460666E1
3.754708177E0,7.302742958E0,4.228864193E0,5.340589046E0,9.986753148E0
3.757112969E0,7.266831875E0,4.264775753E0,5.340589046E0,9.975823228E0
3.759518229E0,7.276408195E0,4.286322594E0,5.331012726E0,9.986910147E0
3.761922813E0,7.257255077E0,4.312657833E0,5.316648006E0,9.976648479E0
3.764327136E0,7.242890835E0,4.346175194E0,5.309465885E0,9.976930111E0
3.766731979E0,7.242890835E0,4.382086754E0,5.275948524E0,9.974857633E0
3.769136719E0,7.245284557E0,4.441938877E0,5.218489647E0,9.972843301E0
3.771541979E0,7.223738194E0,4.487426758E0,5.175396442E0,9.955105260E0
3.773947188E0,7.218949795E0,4.537702560E0,5.141879082E0,9.957052835E0
3.776352083E0,7.183038235E0,4.578402519E0,5.115543842E0,9.936125840E0
3.778757604E0,7.161491871E0,4.592767239E0,5.125120163E0,9.932136397E0
3.781162708E0,7.118397713E0,4.635860443E0,5.125120163E0,9.921171540E0
3.783567448E0,7.053757191E0,4.686137199E0,5.144272804E0,9.908527390E0
3.785972552E0,7.013057232E0,4.719654083E0,5.139484882E0,9.893048633E0
3.788377500E0,6.998692513E0,4.769930840E0,5.146667004E0,9.910707258E0
3.790782813E0,7.005875111E0,4.820206642E0,5.149061203E0,9.941303205E0
3.793187813E0,6.989116192E0,4.860906124E0,5.146667004E0,9.948081963E0
3.795592396E0,7.001086712E0,4.904000282E0,5.117938042E0,9.962817057E0
3.797997604E0,6.989116192E0,4.971034527E0,5.132302284E0,9.994971543E0
3.800402448E0,6.984328270E0,5.014128685E0,5.096390724E0,9.994774948E0
3.802807396E0,6.991510868E0,5.047645569E0,5.077238560E0,1.000691268E1
3.805213073E0,7.013057232E0,5.078769207E0,5.055691242E0,1.002680818E1
3.807618594E0,7.029816151E0,5.131439209E0,5.005415440E0,1.004012785E1
3.810024427E0,7.029816151E0,5.174533367E0,4.947957039E0,1.003376248E1
3.812430000E0,7.005875111E0,5.203262329E0,4.890498161E0,1.000365919E1
3.814835261E0,7.020239830E0,5.236779690E0,4.871345997E0,1.002185814E1
3.817241302E0,6.998692513E0,5.258326530E0,4.871345997E0,1.001806901E1
3.819646875E0,6.957993031E0,5.291844368E0,4.871345997E0,1.000736207E1
3.822052188E0,6.922081470E0,5.330149651E0,4.900074959E0,1.001680796E1
3.824457813E0,6.874199867E0,5.346908092E0,4.935986519E0,1.001039524E1
3.826863542E0,6.811953068E0,5.378031731E0,4.981474400E0,1.000704837E1
3.829269531E0,6.773647785E0,5.409154892E0,5.000627041E0,1.000737387E1
3.831674740E0,6.711400509E0,5.430701733E0,5.017385960E0,9.985468440E0
3.834079427E0,6.668307304E0,5.442672253E0,4.979079723E0,9.943854305E0
3.836485000E0,6.610848427E0,5.495342255E0,4.940774441E0,9.915309148E0
3.838890625E0,6.579725742E0,5.526465893E0,4.883316517E0,9.883389920E0
3.841296198E0,6.550996304E0,5.559983253E0,4.856980801E0,9.870117975E0
3.843702083E0,6.515084743E0,5.598288536E0,4.804310799E0,9.842182989E0
3.846107761E0,6.498326302E0,5.624623775E0,4.780369759E0,9.834458418E0
3.848513854E0,6.467202663E0,5.682082176E0,4.756428719E0,9.835363862E0
3.850919479E0,6.421715260E0,5.698840618E0,4.758822918E0,9.816394798E0
3.853324792E0,6.428897381E0,5.746722698E0,4.749247074E0,9.844332942E0
3.855730990E0,6.385803699E0,5.804181099E0,4.739670277E0,9.845378685E0
3.858136667E0,6.364256859E0,5.844880581E0,4.703758717E0,9.838279343E0
3.860542136E0,6.349892139E0,5.892762661E0,4.713335514E0,9.862115069E0
3.862947917E0,6.337921619E0,5.955008984E0,4.742064476E0,9.905481207E0
3.865353386E0,6.316374779E0,6.007679462E0,4.744458199E0,9.924650446E0
3.867759115E0,6.297221661E0,6.062743664E0,4.775581837E0,9.960825430E0
3.870164531E0,6.309192181E0,6.132172585E0,4.830646038E0,1.003716034E1
3.872569896E0,6.364256859E0,6.175266266E0,4.864163399E0,1.011423573E1
3.874975886E0,6.345103741E0,6.244695187E0,4.912045479E0,1.016782918E1
3.877381458E0,6.345103741E0,6.302153587E0,4.974291801E0,1.023333085E1
3.879786458E0,6.364256859E0,6.342853069E0,5.036538601E0,1.030059569E1
3.882191719E0,6.400167942E0,6.405099869E0,5.062873363E0,1.037401276E1
3.884597031E0,6.388197422E0,6.445799828E0,5.110755444E0,1.041523994E1
3.887002656E0,6.414532661E0,6.488893032E0,5.098784924E0,1.045225190E1
3.889408229E0,6.431291103E0,6.529592991E0,5.070055962E0,1.047389886E1
3.891813386E0,6.431291103E0,6.543957710E0,5.043720722E0,1.047014835E1
3.894219323E0,6.431291103E0,6.582262993E0,4.981474400E0,1.046435753E1
3.896625104E0,6.395379543E0,6.591839790E0,4.940774441E0,1.042902121E1
3.899030313E0,6.385803699E0,6.589445591E0,4.916833401E0,1.041030897E1
3.901435781E0,6.347497463E0,6.603810310E0,4.952744961E0,1.041300712E1
3.903841302E0,6.278069019E0,6.594233513E0,4.938380241E0,1.035787940E1
3.906247344E0,6.242157459E0,6.570292473E0,4.957533360E0,1.033007308E1
3.908652917E0,6.165545940E0,6.548745632E0,4.959927559E0,1.027136347E1
3.911058125E0,6.136816978E0,6.529592991E0,4.890498161E0,1.020848076E1
3.913464011E0,6.096117496E0,6.522410870E0,4.825858116E0,1.014856633E1
3.915869531E0,6.079358578E0,6.472134590E0,4.770793438E0,1.008005937E1
3.918274792E0,6.026688576E0,6.479317188E0,4.701364994E0,1.002024746E1
3.920680521E0,5.954865456E0,6.469740868E0,4.691788197E0,9.966486140E0
3.923086198E0,5.875860214E0,6.472134590E0,4.639117718E0,9.896245379E0
3.925492031E0,5.799249172E0,6.469740868E0,4.593630314E0,9.828035272E0
3.927897500E0,5.720243931E0,6.443405628E0,4.552930355E0,9.745144511E0
3.930302708E0,5.667573452E0,6.472134590E0,4.538566113E0,9.726689948E0
3.932708750E0,5.602932930E0,6.481711388E0,4.545748234E0,9.698931226E0
3.935114427E0,5.578992367E0,6.484105110E0,4.536171913E0,9.682232725E0
3.937519479E0,5.555051327E0,6.522410870E0,4.538566113E0,9.695309234E0
3.939925000E0,5.533504009E0,6.553534031E0,4.572083473E0,9.719692495E0
3.942330365E0,5.511957169E0,6.599021435E0,4.619965553E0,9.760780575E0
3.944735938E0,5.543080807E0,6.627751350E0,4.631936073E0,9.803451667E0
3.947141302E0,5.545474529E0,6.673239231E0,4.612782955E0,9.826605527E0
3.949546146E0,5.590962887E0,6.737879753E0,4.617571354E0,9.898477397E0
3.951951719E0,5.610115528E0,6.778579235E0,4.643906593E0,9.949291489E0
3.954356875E0,5.643632889E0,6.836037636E0,4.677423954E0,1.002298846E1
3.956761458E0,5.674756050E0,6.864766598E0,4.694182396E0,1.006793052E1
3.959166719E0,5.689120770E0,6.886313438E0,4.746852398E0,1.011533566E1
3.961572292E0,5.710667610E0,6.919831276E0,4.761217594E0,1.015701641E1
3.963978125E0,5.737002850E0,6.941378117E0,4.813887596E0,1.021124114E1
3.966383386E0,5.729820251E0,6.950953960E0,4.890498161E0,1.025005236E1
3.968788333E0,5.737002850E0,6.958136559E0,4.921621799E0,1.027381269E1
3.971194115E0,5.734608650E0,6.936589718E0,4.993444920E0,1.029254611E1
3.973599427E0,5.715455532E0,6.936589718E0,5.079632282E0,1.032401923E1
3.976004271E0,5.689120770E0,6.915042877E0,5.161031723E0,1.033538396E1
3.978409583E0,5.636450768E0,6.900678158E0,5.256795406E0,1.034518411E1
3.980814844E0,5.574203968E0,6.900678158E0,5.326224327E0,1.034696934E1
3.983220313E0,5.478440285E0,6.850402355E0,5.383682728E0,1.029200467E1
3.985625625E0,5.428164005E0,6.828855038E0,5.402835369E0,1.026103580E1
3.988030886E0,5.361129284E0,6.821673393E0,5.410017967E0,1.022473616E1
3.990436771E0,5.296488762E0,6.821673393E0,5.362135887E0,1.016565405E1
3.992842031E0,5.246212482E0,6.807308674E0,5.278342247E0,1.008578672E1
3.995246927E0,5.203118801E0,6.826461315E0,5.192154884E0,1.003152489E1
3.997652292E0,5.152842522E0,6.812096596E0,5.093997002E0,9.945111942E0
4.000057500E0,5.073837280E0,6.828855038E0,4.993444920E0,9.864663098E0
4.002463073E0,4.997226238E0,6.819279194E0,4.868951321E0,9.756101976E0
4.004868281E0,4.906250000E0,6.800126076E0,4.749247074E0,9.636822686E0
4.007273021E0,4.822457314E0,6.812096596E0,4.627147198E0,9.543125576E0
4.009678802E0,4.745845795E0,6.812096596E0,4.502654552E0,9.444660415E0
4.012084271E0,4.647687435E0,6.800126076E0,4.394919872E0,9.335846712E0
4.014489531E0,4.554317474E0,6.819279194E0,4.325491428E0,9.271151626E0
4.016895156E0,4.463342190E0,6.797732353E0,4.224938869E0,9.164098270E0
4.019300261E0,4.374760628E0,6.804913998E0,4.148327827E0,9.091425016E0
4.021705677E0,4.293361187E0,6.812096596E0,4.071716785E0,9.023108549E0
4.024110990E0,4.209567547E0,6.807308674E0,3.978346825E0,8.937961388E0
4.026515990E0,4.149714947E0,6.804913998E0,3.918494225E0,8.881530591E0
4.028921875E0,4.065921783E0,6.836037636E0,3.832306862E0,8.828913092E0
4.031327396E0,4.022828102E0,6.852796078E0,3.779636860E0,8.799409913E0
4.033732552E0,3.958187342E0,6.879131794E0,3.758090019E0,8.781397489E0
4.036138281E0,3.888757944E0,6.903072834E0,3.743725300E0,8.763009302E0
4.038544063E0,3.797782421E0,6.924619198E0,3.746119499E0,8.741104830E0
4.040950208E0,3.718777180E0,6.946166039E0,3.777242661E0,8.737624875E0
4.043355938E0,3.646954060E0,6.938983440E0,3.801183701E0,8.711989590E0
4.045760833E0,3.596678257E0,6.986865520E0,3.868218422E0,8.758738382E0
4.048166354E0,3.529643536E0,7.015594959E0,3.918494225E0,8.776762108E0
4.050571615E0,3.479367495E0,7.053900719E0,3.954405785E0,8.803456061E0
4.052976511E0,3.395573854E0,7.077841759E0,4.007076263E0,8.813763438E0
4.055382031E0,3.359662533E0,7.106570721E0,4.019046783E0,8.828556892E0
4.057787448E0,3.309386492E0,7.161635399E0,4.040593147E0,8.863828378E0
4.060193386E0,3.268686771E0,7.214305401E0,4.059746265E0,8.900115469E0
4.062599167E0,3.247139692E0,7.259793282E0,4.033411026E0,8.917225980E0
4.065004271E0,3.223198652E0,7.312463284E0,3.995105743E0,8.934315795E0
