"Time (s)","Acceleration x (m/s^2)","Acceleration y (m/s^2)","Acceleration z (m/s^2)","Absolute acceleration (m/s^2)"
2.273314700E-2,2.320623398E0,-6.992276669E0,6.530456066E0,9.845002915E0
2.513799100E-2,2.318229437E0,-6.989882946E0,6.542426586E0,9.850685101E0
2.754366800E-2,2.315835476E0,-6.963547230E0,6.513697147E0,9.812356216E0
2.994929300E-2,2.320623398E0,-6.985094547E0,6.516091347E0,9.830375640E0
3.235460600E-2,2.315835476E0,-6.994670868E0,6.520879745E0,9.839226959E0
3.476028300E-2,2.306258917E0,-6.980306149E0,6.516091347E0,9.823591530E0
3.716590800E-2,2.294288397E0,-6.977912426E0,6.494544983E0,9.804801661E0
3.957215800E-2,2.272741318E0,-6.985094547E0,6.496938705E0,9.806483135E0
4.197861600E-2,2.291894436E0,-6.975517750E0,6.489756584E0,9.799365720E0
4.438460600E-2,2.301470757E0,-6.980306149E0,6.496938705E0,9.809773398E0
4.679090800E-2,2.291894436E0,-6.985094547E0,6.487362385E0,9.804600790E0
4.919668900E-2,2.284711838E0,-6.987488270E0,6.499332905E0,9.812554647E0
5.160205400E-2,2.272741318E0,-6.982700348E0,6.504120827E0,9.809538469E0
5.400783500E-2,2.291894436E0,-6.968335629E0,6.506515026E0,9.805366863E0
5.641356400E-2,2.299076557E0,-6.973124027E0,6.513697147E0,9.815215853E0
5.881955400E-2,2.287106276E0,-6.982700348E0,6.549608707E0,9.843085567E0
6.122491800E-2,2.311047077E0,-6.977912426E0,6.549608707E0,9.845281847E0
6.362991800E-2,2.311047077E0,-6.989882946E0,6.547214985E0,9.852178757E0
6.603590800E-2,2.318229437E0,-7.013823986E0,6.547214985E0,9.870863118E0
6.844132400E-2,2.315835476E0,-7.001853466E0,6.552002907E0,9.864977851E0
7.084653300E-2,2.311047077E0,-7.009035110E0,6.566367149E0,9.878496308E0
7.325221000E-2,2.351746798E0,-6.992276669E0,6.568761826E0,9.877817468E0
7.565741800E-2,2.334988117E0,-7.001853466E0,6.575943947E0,9.885401371E0
7.806283500E-2,2.320623398E0,-6.999458790E0,6.580732346E0,9.883509220E0
8.046799100E-2,2.306258917E0,-7.006641388E0,6.609461308E0,9.904384509E0
8.287299100E-2,2.289500237E0,-6.989882946E0,6.580732346E0,9.869463670E0
8.527882400E-2,2.282317877E0,-7.001853466E0,6.561579227E0,9.863531255E0
8.768398100E-2,2.296682358E0,-6.994670868E0,6.585520267E0,9.877714695E0
9.008882400E-2,2.303864956E0,-7.004247189E0,6.566367149E0,9.873421390E0
9.249434500E-2,2.279923916E0,-6.970729828E0,6.580732346E0,9.853687919E0
9.490012600E-2,2.263165236E0,-6.970729828E0,6.583126545E0,9.851423568E0
9.730601200E-2,2.277529716E0,-6.965941906E0,6.571156025E0,9.843352059E0
9.971137600E-2,2.282317877E0,-6.946788788E0,6.556791306E0,9.821321784E0
1.021165330E-1,2.294288397E0,-6.958759308E0,6.566367149E0,9.838966810E0
1.045224180E-1,2.301470757E0,-6.953971386E0,6.556791306E0,9.830869641E0
1.069279390E-1,2.320623398E0,-6.953971386E0,6.580732346E0,9.851347583E0
1.093329910E-1,2.294288397E0,-6.975517750E0,6.571156025E0,9.854019415E0
1.117385640E-1,2.323017597E0,-6.944395065E0,6.575943947E0,9.841954703E0
1.141441370E-1,2.291894436E0,-6.939606190E0,6.540032387E0,9.807290033E0
1.165500740E-1,2.275135756E0,-6.944395065E0,6.575943947E0,9.830763161E0
1.189558560E-1,2.275135756E0,-6.946788788E0,6.590308189E0,9.842066815E0
1.213611680E-1,2.253588676E0,-6.937212467E0,6.561579227E0,9.811111084E0
1.237668970E-1,2.260771275E0,-6.958759308E0,6.585520267E0,9.844008079E0
1.261720010E-1,2.258376837E0,-6.922847748E0,6.621431828E0,9.842227711E0
1.285767930E-1,2.265559196E0,-6.949182987E0,6.611855507E0,9.855989849E0
1.309823140E-1,2.282317877E0,-6.934818268E0,6.626219749E0,9.859384741E0
1.333877830E-1,2.289500237E0,-6.934818268E0,6.621431828E0,9.857833189E0
1.357936680E-1,2.303864956E0,-6.939606190E0,6.619038105E0,9.862940395E0
1.381993450E-1,2.330199957E0,-6.927635670E0,6.571156025E0,9.828634662E0
1.406043450E-1,2.325411558E0,-6.910877228E0,6.616643906E0,9.846204322E0
1.430102830E-1,2.332593918E0,-6.942000866E0,6.954211235E0,1.009917939E1
1.454159600E-1,2.361323118E0,-6.910877228E0,6.353292942E0,9.679896804E0
1.478212200E-1,2.325411558E0,-6.922847748E0,6.894359112E0,1.004318413E1
1.502269490E-1,2.356534958E0,-6.920454025E0,6.585520267E0,9.839462288E0
1.526328350E-1,2.354140997E0,-6.918059826E0,6.573549747E0,9.829195688E0
1.550389810E-1,2.313441277E0,-6.918059826E0,6.903935432E0,1.004369886E1
1.574439290E-1,2.344564438E0,-6.932424545E0,6.403568745E0,9.724257563E0
1.598487720E-1,2.320623398E0,-6.953971386E0,6.939846992E0,1.009477525E1
1.622547620E-1,2.351746798E0,-6.913271427E0,6.549608707E0,9.809251197E0
1.646600740E-1,2.313441277E0,-6.930030346E0,6.621431828E0,9.860055303E0
1.670652310E-1,2.315835476E0,-6.937212467E0,6.879994392E0,1.004103250E1
1.694709600E-1,2.325411558E0,-6.930030346E0,6.360475063E0,9.689607966E0
1.718766890E-1,2.306258917E0,-6.956365108E0,6.925482273E0,1.008326090E1
1.742824700E-1,2.339776516E0,-6.944395065E0,6.461027145E0,9.769547008E0
1.766875740E-1,2.287106276E0,-6.975517750E0,6.602278709E0,9.873134616E0
1.790923660E-1,2.299076557E0,-6.982700348E0,6.791412830E0,1.000835378E1
1.814983040E-1,2.306258917E0,-6.970729828E0,6.353292942E0,9.709492043E0
1.839039810E-1,2.277529716E0,-7.004247189E0,6.925482273E0,1.010984298E1
1.863088760E-1,2.306258917E0,-6.977912426E0,6.420327187E0,9.758621480E0
1.887137720E-1,2.287106276E0,-6.997065067E0,6.657343388E0,9.925220182E0
1.911187720E-1,2.299076557E0,-6.982700348E0,6.724378109E0,9.962987409E0
1.935241890E-1,2.282317877E0,-6.989882946E0,6.350898743E0,9.716035886E0
1.959293970E-1,2.253588676E0,-7.001853466E0,6.882388592E0,1.007332550E1
1.983345010E-1,2.275135756E0,-6.989882946E0,6.324563503E0,9.697154728E0
2.007402830E-1,2.255982876E0,-6.992276669E0,6.645372868E0,9.906683214E0
2.031458040E-1,2.279923916E0,-6.985094547E0,6.635796547E0,9.900676477E0
2.055511160E-1,2.263165236E0,-6.975517750E0,6.338928223E0,9.693388250E0
2.079566890E-1,2.265559196E0,-6.997065067E0,6.848871231E0,1.004981170E1
2.103621580E-1,2.258376837E0,-6.992276669E0,6.307805061E0,9.684038602E0
2.127677830E-1,2.255982876E0,-7.016217709E0,6.698042870E0,9.958943114E0
2.151729910E-1,2.282317877E0,-6.992276669E0,6.599884987E0,9.882276546E0
2.175777310E-1,2.279923916E0,-7.023399830E0,6.391598225E0,9.766203259E0
2.199831990E-1,2.284711838E0,-7.013823986E0,6.879994392E0,1.008701928E1
2.223882510E-1,2.296682358E0,-6.989882946E0,6.334139824E0,9.708477778E0
2.247933040E-1,2.263165236E0,-7.028188229E0,6.779442310E0,1.002388072E1
2.271991370E-1,2.301470757E0,-7.018611908E0,6.568761826E0,9.884650357E0
2.296051790E-1,2.265559196E0,-7.042552948E0,6.420327187E0,9.795453623E0
2.320114290E-1,2.267953396E0,-7.037764549E0,6.822536469E0,1.006085217E1
2.344168970E-1,2.299076557E0,-7.040158749E0,6.255135059E0,9.694137550E0
2.368220540E-1,2.248800755E0,-7.054523468E0,6.767471790E0,1.003105581E1
2.392280950E-1,2.287106276E0,-7.044946671E0,6.489756584E0,9.847795146E0
2.416337200E-1,2.260771275E0,-7.064099789E0,6.451450825E0,9.830249759E0
2.440392410E-1,2.239224195E0,-7.056917191E0,6.796200752E0,1.005000248E1
2.464448140E-1,2.270347357E0,-7.032976151E0,6.252740860E0,9.680599099E0
2.488500740E-1,2.229647636E0,-7.066493988E0,6.796200752E0,1.005460146E1
2.512557510E-1,2.248800755E0,-7.042552948E0,6.405962944E0,9.782178597E0
2.536612200E-1,2.255982876E0,-7.047340870E0,6.472997665E0,9.831285310E0
2.560663240E-1,2.272741318E0,-7.037764549E0,6.755501270E0,1.001660024E1
2.584723140E-1,2.306258917E0,-7.009035110E0,6.264711380E0,9.679463417E0
2.608776260E-1,2.275135756E0,-7.040158749E0,6.841689110E0,1.007714185E1
2.632825740E-1,2.315835476E0,-6.992276669E0,6.405962944E0,9.761730799E0
2.656879910E-1,2.296682358E0,-7.037764549E0,6.556791306E0,9.889205829E0
2.680932510E-1,2.318229437E0,-7.037764549E0,6.748318672E0,1.002218152E1
2.704990850E-1,2.313441277E0,-7.009035110E0,6.295834541E0,9.701346107E0
2.729045540E-1,2.287106276E0,-7.040158749E0,6.891964912E0,1.011404324E1
2.753096580E-1,2.330199957E0,-6.999458790E0,6.377233982E0,9.751480321E0
2.777156470E-1,2.301470757E0,-7.030582428E0,6.650160789E0,9.947386363E0
2.801211160E-1,2.294288397E0,-7.035370350E0,6.712407589E0,9.990826335E0
2.825262720E-1,2.303864956E0,-7.030582428E0,6.329351902E0,9.736404804E0
2.849320010E-1,2.275135756E0,-7.061705112E0,6.896753311E0,1.012961638E1
2.873378350E-1,2.289500237E0,-7.032976151E0,6.353292942E0,9.750327998E0
2.897438760E-1,2.275135756E0,-7.056917191E0,6.707619190E0,9.998423783E0
2.921495010E-1,2.296682358E0,-7.052129269E0,6.671708107E0,9.975919313E0
2.945547100E-1,2.277529716E0,-7.037764549E0,6.334139824E0,9.738511117E0
2.969605430E-1,2.272741318E0,-7.073675632E0,6.877600193E0,1.012440736E1
2.993661160E-1,2.277529716E0,-7.049735069E0,6.281469822E0,9.713020605E0
3.017713240E-1,2.258376837E0,-7.068887711E0,6.717195988E0,1.000950355E1
3.041767410E-1,2.279923916E0,-7.054523468E0,6.561579227E0,9.900438191E0
3.065820010E-1,2.265559196E0,-7.059311390E0,6.355686665E0,9.765315599E0
3.089878870E-1,2.263165236E0,-7.073675632E0,6.834506989E0,1.009303174E1
3.113935120E-1,2.267953396E0,-7.035370350E0,6.247952461E0,9.678685785E0
3.137987720E-1,2.253588676E0,-7.085646152E0,6.743530750E0,1.003794054E1
3.162047100E-1,2.258376837E0,-7.049735069E0,6.520879745E0,9.865135738E0
3.186100220E-1,2.227253675E0,-7.073675632E0,6.401175022E0,9.796559986E0
3.210151260E-1,2.248800755E0,-7.071281910E0,6.817748070E0,1.007679619E1
3.234205950E-1,2.255982876E0,-7.042552948E0,6.231194019E0,9.670304528E0
3.258260120E-1,2.220071316E0,-7.068887711E0,6.767471790E0,1.003476779E1
3.282320540E-1,2.255982876E0,-7.040158749E0,6.463421345E0,9.819832454E0
3.306377310E-1,2.248800755E0,-7.049735069E0,6.441874504E0,9.810892748E0
3.330428870E-1,2.227253675E0,-7.042552948E0,6.793807030E0,1.003563774E1
3.354484600E-1,2.232041836E0,-7.021005630E0,6.274287224E0,9.676942233E0
3.378534600E-1,2.248800755E0,-7.025794506E0,6.832112312E0,1.005468308E1
3.402581470E-1,2.270347357E0,-7.001853466E0,6.446662903E0,9.784676370E0
3.426634600E-1,2.267953396E0,-7.011429310E0,6.518485546E0,9.838414882E0
3.450686680E-1,2.277529716E0,-6.999458790E0,6.798595428E0,1.002000323E1
3.474742410E-1,2.306258917E0,-6.963547230E0,6.286257744E0,9.660582624E0
3.498797100E-1,2.311047077E0,-7.004247189E0,6.851265430E0,1.006678972E1
3.522848140E-1,2.342170477E0,-6.975517750E0,6.377233982E0,9.737182533E0
3.546905430E-1,2.320623398E0,-6.977912426E0,6.563973427E0,9.857093990E0
3.570956990E-1,2.339776516E0,-6.970729828E0,6.733954430E0,9.970545158E0
3.595006470E-1,2.327805996E0,-6.965941906E0,6.269499302E0,9.656585778E0
3.619061160E-1,2.318229437E0,-6.980306149E0,6.832112312E0,1.003875591E1
3.643116370E-1,2.349352598E0,-6.961153507E0,6.324563503E0,9.694184818E0
3.667178350E-1,2.301470757E0,-6.987488270E0,6.599884987E0,9.883331513E0
3.691238760E-1,2.320623398E0,-6.958759308E0,6.645372868E0,9.898010134E0
3.715294490E-1,2.294288397E0,-6.951576710E0,6.274287224E0,9.641309982E0
3.739355430E-1,2.279923916E0,-6.980306149E0,6.832112312E0,1.002997934E1
3.763410640E-1,2.291894436E0,-6.975517750E0,6.279076099E0,9.661129574E0
3.787461680E-1,2.258376837E0,-6.994670868E0,6.659737587E0,9.918557920E0
3.811520010E-1,2.279923916E0,-7.009035110E0,6.621431828E0,9.907975862E0
3.835579910E-1,2.260771275E0,-6.977912426E0,6.312592983E0,9.677353913E0
3.859640850E-1,2.265559196E0,-7.009035110E0,6.841689110E0,1.005326024E1
3.883696580E-1,2.255982876E0,-6.975517750E0,6.288652420E0,9.658905522E0
3.907749180E-1,2.241618156E0,-7.001853466E0,6.714801788E0,9.956875362E0
3.931808560E-1,2.272741318E0,-6.970729828E0,6.571156025E0,9.845634512E0
3.955866890E-1,2.239224195E0,-6.987488270E0,6.360475063E0,9.710548921E0
3.979920540E-1,2.234436035E0,-7.006641388E0,6.863235950E0,1.005931089E1
4.003974700E-1,2.253588676E0,-6.970729828E0,6.288652420E0,9.654889203E0
4.028030430E-1,2.229647636E0,-7.001853466E0,6.824930191E0,1.002880614E1
4.052093970E-1,2.255982876E0,-6.968335629E0,6.573549747E0,9.841682603E0
4.076154390E-1,2.251194715E0,-6.975517750E0,6.516091347E0,9.807403936E0
4.100205430E-1,2.253588676E0,-6.980306149E0,6.925482273E0,1.008789575E1
4.124263760E-1,2.270347357E0,-6.956365108E0,6.370051384E0,9.701703318E0
4.148320540E-1,2.255982876E0,-6.965941906E0,6.920694351E0,1.007520797E1
4.172371580E-1,2.258376837E0,-6.958759308E0,6.587914467E0,9.845060389E0
4.196425740E-1,2.275135756E0,-6.953971386E0,6.578337669E0,9.839130411E0
4.220481470E-1,2.272741318E0,-6.956365108E0,6.918299675E0,1.007071194E1
4.244540850E-1,2.272741318E0,-6.934818268E0,6.377233982E0,9.691551515E0
4.268595540E-1,2.272741318E0,-6.958759308E0,6.942240715E0,1.008882502E1
4.292645010E-1,2.294288397E0,-6.951576710E0,6.513697147E0,9.798797300E0
4.316703350E-1,2.270347357E0,-6.942000866E0,6.628614426E0,9.863284562E0
4.340760120E-1,2.282317877E0,-6.927635670E0,6.865629673E0,1.001688483E1
4.364812200E-1,2.277529716E0,-6.932424545E0,6.384416103E0,9.695690830E0
4.388868970E-1,2.251194715E0,-6.961153507E0,6.925482273E0,1.007411736E1
4.412925220E-1,2.296682358E0,-6.942000866E0,6.463421345E0,9.759197782E0
4.436986160E-1,2.270347357E0,-6.968335629E0,6.657343388E0,9.901131225E0
4.461041370E-1,2.282317877E0,-6.965941906E0,6.812959671E0,1.000748425E1
4.485089810E-1,2.277529716E0,-6.944395065E0,6.403568745E0,9.716864571E0
4.509146580E-1,2.277529716E0,-6.980306149E0,6.959000111E0,1.011629864E1
4.533203350E-1,2.299076557E0,-6.963547230E0,6.429903984E0,9.752969203E0
4.557259080E-1,2.287106276E0,-6.982700348E0,6.726772308E0,9.961848471E0
4.581317410E-1,2.311047077E0,-6.980306149E0,6.767471790E0,9.993212044E0
4.605373140E-1,2.294288397E0,-6.987488270E0,6.425116062E0,9.765800939E0
4.629428870E-1,2.301470757E0,-7.004247189E0,6.939846992E0,1.012510358E1
4.653478350E-1,2.325411558E0,-6.989882946E0,6.377233982E0,9.743465286E0
4.677525740E-1,2.294288397E0,-6.992276669E0,6.733954430E0,9.975060627E0
4.701584600E-1,2.301470757E0,-6.987488270E0,6.671708107E0,9.931437410E0
4.725638240E-1,2.337382078E0,-6.982700348E0,6.420327187E0,9.769445241E0
4.749686160E-1,2.296682358E0,-7.009035110E0,6.935059071E0,1.012404896E1
4.773740330E-1,2.323017597E0,-6.968335629E0,6.343716145E0,9.705506000E0
4.797796580E-1,2.282317877E0,-6.997065067E0,6.750713348E0,9.986992799E0
4.821857510E-1,2.306258917E0,-6.994670868E0,6.585520267E0,9.879945746E0
4.845914810E-1,2.308652878E0,-6.999458790E0,6.413145542E0,9.769889314E0
4.869965330E-1,2.296682358E0,-7.004247189E0,6.834506989E0,1.005209999E1
4.894022620E-1,2.320623398E0,-6.980306149E0,6.250346184E0,9.652812766E0
4.918075220E-1,2.291894436E0,-6.999458790E0,6.736348152E0,9.981161750E0
4.942123660E-1,2.306258917E0,-6.994670868E0,6.475391865E0,9.806882815E0
4.966177310E-1,2.270347357E0,-7.001853466E0,6.401175022E0,9.754766565E0
4.990231990E-1,2.270347357E0,-7.009035110E0,6.800989151E0,1.002668957E1
5.014289290E-1,2.260771275E0,-6.994670868E0,6.228799820E0,9.635063804E0
5.038342410E-1,2.205706596E0,-7.032976151E0,6.789019108E0,1.002091191E1
5.062395010E-1,2.270347357E0,-6.997065067E0,6.458633423E0,9.789144108E0
5.086456470E-1,2.227253675E0,-7.018611908E0,6.487362385E0,9.813635553E0
5.110511160E-1,2.224859715E0,-7.018611908E0,6.815353870E0,1.003294385E1
5.134560640E-1,2.232041836E0,-6.982700348E0,6.288652420E0,9.658533231E0
5.158614290E-1,2.246406317E0,-7.025794506E0,6.844082832E0,1.006228600E1
5.182667930E-1,2.246406317E0,-7.009035110E0,6.446662903E0,9.784292366E0
5.206725740E-1,2.244012356E0,-7.025794506E0,6.530456066E0,9.851103305E0
5.230778870E-1,2.241618156E0,-7.016217709E0,6.793807030E0,1.002037808E1
5.254827830E-1,2.258376837E0,-6.997065067E0,6.300622940E0,9.682821641E0
5.278884600E-1,2.236830235E0,-7.032976151E0,6.870418549E0,1.008309546E1
5.302937200E-1,2.294288397E0,-6.994670868E0,6.379627705E0,9.741089746E0
5.326986680E-1,2.270347357E0,-7.013823986E0,6.604673386E0,9.897975276E0
5.351041370E-1,2.270347357E0,-7.013823986E0,6.750713348E0,9.996015943E0
5.375095010E-1,2.306258917E0,-7.016217709E0,6.326957703E0,9.725046781E0
5.399152310E-1,2.291894436E0,-7.044946671E0,6.889570713E0,1.011682946E1
5.423208560E-1,2.315835476E0,-7.001853466E0,6.379627705E0,9.751343270E0
5.447261680E-1,2.272741318E0,-7.037764549E0,6.717195988E0,9.990806018E0
5.471317410E-1,2.301470757E0,-7.030582428E0,6.710013390E0,9.987499017E0
5.495366890E-1,2.296682358E0,-7.021005630E0,6.350898743E0,9.741826562E0
5.519413240E-1,2.277529716E0,-7.054523468E0,6.882388592E0,1.011537027E1
5.543465330E-1,2.332593918E0,-7.021005630E0,6.314987183E0,9.727002496E0
5.567517930E-1,2.277529716E0,-7.059311390E0,6.664525986E0,9.971806533E0
5.591575220E-1,2.325411558E0,-7.042552948E0,6.633402348E0,9.950232040E0
5.615627830E-1,2.306258917E0,-7.052129269E0,6.346110344E0,9.763425316E0
5.639675740E-1,2.296682358E0,-7.059311390E0,6.889570713E0,1.012792238E1
5.663732510E-1,2.354140997E0,-7.030582428E0,6.305410862E0,9.732896550E0
5.687784600E-1,2.315835476E0,-7.052129269E0,6.762683868E0,1.004139006E1
5.711835120E-1,2.339776516E0,-7.025794506E0,6.621431828E0,9.933765753E0
5.735889290E-1,2.337382078E0,-7.030582428E0,6.456238747E0,9.827281568E0
5.759940330E-1,2.342170477E0,-7.068887711E0,6.894359112E0,1.014825717E1
5.783998140E-1,2.346958637E0,-7.013823986E0,6.326957703E0,9.733053761E0
5.808051260E-1,2.313441277E0,-7.054523468E0,6.844082832E0,1.009751364E1
5.832098660E-1,2.349352598E0,-7.035370350E0,6.595097065E0,9.925280796E0
5.856154910E-1,2.342170477E0,-7.032976151E0,6.511303425E0,9.866386794E0
5.880204390E-1,2.325411558E0,-7.035370350E0,6.913511753E0,1.013413142E1
5.904246060E-1,2.337382078E0,-7.042552948E0,6.365263462E0,9.776373865E0
5.928290850E-1,2.306258917E0,-7.042552948E0,6.887176991E0,1.011679737E1
5.952338240E-1,2.303864956E0,-7.016217709E0,6.609461308E0,9.910604595E0
5.976391370E-1,2.299076557E0,-7.025794506E0,6.573549747E0,9.892375738E0
6.000441890E-1,2.299076557E0,-7.040158749E0,6.920694351E0,1.013635036E1
6.024490330E-1,2.294288397E0,-6.999458790E0,6.382021904E0,9.746095946E0
6.048546060E-1,2.258376837E0,-7.035370350E0,6.923088551E0,1.012550527E1
6.072598660E-1,2.296682358E0,-7.013823986E0,6.532850266E0,9.856297954E0
6.096644490E-1,2.279923916E0,-7.016217709E0,6.585520267E0,9.889107199E0
6.120691370E-1,2.287106276E0,-6.987488270E0,6.839294910E0,1.004150399E1
6.144741370E-1,2.301470757E0,-6.985094547E0,6.319775581E0,9.696797248E0
6.168794490E-1,2.277529716E0,-6.994670868E0,6.887176991E0,1.007699206E1
6.192842410E-1,2.275135756E0,-7.001853466E0,6.432297707E0,9.776331032E0
6.216888240E-1,2.244012356E0,-6.985094547E0,6.568761826E0,9.847627593E0
6.240940850E-1,2.265559196E0,-6.989882946E0,6.748318672E0,9.976523792E0
6.264987720E-1,2.248800755E0,-6.977912426E0,6.279076099E0,9.652728284E0
6.289032510E-1,2.198524475E0,-6.977912426E0,6.839294910E0,1.001502504E1
6.313083040E-1,2.220071316E0,-6.975517750E0,6.341322422E0,9.684985007E0
6.337135120E-1,2.188948154E0,-6.970729828E0,6.571156025E0,9.826630138E0
6.361191890E-1,2.227253675E0,-6.963547230E0,6.575943947E0,9.833345705E0
6.385247100E-1,2.220071316E0,-6.977912426E0,6.623826027E0,9.873958158E0
6.409297620E-1,2.222465515E0,-6.961153507E0,6.405962944E0,9.717683487E0
6.433356990E-1,2.239224195E0,-6.956365108E0,6.520879745E0,9.794233670E0
6.457413760E-1,2.241618156E0,-6.958759308E0,6.508909225E0,9.788517884E0
6.481463240E-1,2.205706596E0,-6.925241947E0,6.518485546E0,9.762928425E0
6.505516370E-1,2.200918674E0,-6.932424545E0,6.532850266E0,9.776537510E0
6.529570540E-1,2.203312635E0,-6.946788788E0,6.535244465E0,9.788865167E0
6.553628870E-1,2.224859715E0,-6.927635670E0,6.525667667E0,9.773764639E0
6.577683040E-1,2.222465515E0,-6.934818268E0,6.535244465E0,9.784706311E0
6.601731470E-1,2.220071316E0,-6.949182987E0,6.542426586E0,9.799143150E0
6.625788760E-1,2.229647636E0,-6.965941906E0,6.561579227E0,9.825985812E0
6.649845010E-1,2.234436035E0,-6.953971386E0,6.552002907E0,9.812194684E0
6.673896580E-1,2.244012356E0,-6.965941906E0,6.554397106E0,9.824462302E0
6.697952310E-1,2.251194715E0,-6.949182987E0,6.556791306E0,9.815830788E0
6.722006470E-1,2.263165236E0,-6.963547230E0,6.552002907E0,9.825561002E0
6.746065330E-1,2.265559196E0,-6.968335629E0,6.544820786E0,9.824720811E0
6.770121580E-1,2.265559196E0,-6.970729828E0,6.532850266E0,9.818450254E0
6.794172100E-1,2.277529716E0,-6.977912426E0,6.540032387E0,9.831094906E0
6.818230430E-1,2.287106276E0,-6.975517750E0,6.547214985E0,9.836398073E0
6.842280950E-1,2.289500237E0,-6.949182987E0,6.547214985E0,9.818298202E0
6.866325220E-1,2.303864956E0,-6.963547230E0,6.571156025E0,9.847785297E0
6.890374700E-1,2.296682358E0,-6.970729828E0,6.575943947E0,9.854382932E0
6.914424180E-1,2.294288397E0,-6.968335629E0,6.561579227E0,9.842549600E0
6.938479390E-1,2.308652878E0,-6.949182987E0,6.561579227E0,9.832362089E0
6.962531470E-1,2.279923916E0,-6.963547230E0,6.540032387E0,9.821459500E0
6.986581470E-1,2.296682358E0,-6.961153507E0,6.540032387E0,9.823666913E0
7.010638760E-1,2.306258917E0,-6.946788788E0,6.520879745E0,9.802988183E0
7.034689290E-1,2.311047077E0,-6.946788788E0,6.525667667E0,9.807300932E0
7.058735120E-1,2.299076557E0,-6.946788788E0,6.537638187E0,9.812458435E0
7.082786160E-1,2.279923916E0,-6.956365108E0,6.552002907E0,9.824347850E0
7.106840330E-1,2.311047077E0,-6.951576710E0,6.559185505E0,9.833019467E0
7.130899700E-1,2.299076557E0,-6.951576710E0,6.549608707E0,9.823825425E0
7.154951260E-1,2.311047077E0,-6.963547230E0,6.552002907E0,9.836700194E0
7.178995540E-1,2.313441277E0,-6.970729828E0,6.516091347E0,9.818479073E0
7.203049180E-1,2.306258917E0,-6.973124027E0,6.506515026E0,9.812136703E0
7.227101790E-1,2.299076557E0,-6.973124027E0,6.518485546E0,9.818394244E0
7.251151790E-1,2.318229437E0,-6.977912426E0,6.492150307E0,9.808846270E0
7.275205950E-1,2.315835476E0,-6.982700348E0,6.511303425E0,9.824371247E0
7.299258560E-1,2.308652878E0,-6.977912426E0,6.511303425E0,9.819277582E0
7.323312720E-1,2.303864956E0,-6.985094547E0,6.518485546E0,9.828020827E0
7.347360640E-1,2.313441277E0,-6.975517750E0,6.523273945E0,9.826645479E0
7.371408560E-1,2.318229437E0,-6.980306149E0,6.542426586E0,9.843891877E0
7.395466370E-1,2.315835476E0,-6.987488270E0,6.544820786E0,9.850013471E0
7.419518970E-1,2.330199957E0,-6.985094547E0,6.561579227E0,9.862844399E0
7.443564810E-1,2.323017597E0,-6.977912426E0,6.552002907E0,9.849691095E0
7.467612200E-1,2.320623398E0,-6.977912426E0,6.547214985E0,9.845942252E0
7.491663760E-1,2.311047077E0,-6.982700348E0,6.571156025E0,9.863018516E0
7.515720010E-1,2.320623398E0,-6.989882946E0,6.595097065E0,9.886306785E0
7.539772620E-1,2.303864956E0,-6.975517750E0,6.590308189E0,9.869032559E0
7.563823140E-1,2.296682358E0,-6.977912426E0,6.597490788E0,9.873849116E0
7.587881470E-1,2.311047077E0,-7.001853466E0,6.597490788E0,9.894128322E0
7.611937200E-1,2.301470757E0,-6.999458790E0,6.604673386E0,9.894993761E0
7.635988760E-1,2.279923916E0,-7.035370350E0,6.602278709E0,9.913857634E0
7.660042410E-1,2.277529716E0,-7.006641388E0,6.609461308E0,9.897734282E0
7.684096060E-1,2.265559196E0,-7.004247189E0,6.621431828E0,9.901292673E0
7.708154390E-1,2.255982876E0,-7.016217709E0,6.602278709E0,9.894789226E0
7.732208040E-1,2.255982876E0,-7.042552948E0,6.597490788E0,9.910292400E0
7.756256470E-1,2.263165236E0,-7.040158749E0,6.592702866E0,9.907042100E0
7.780312200E-1,2.260771275E0,-7.035370350E0,6.590308189E0,9.901499116E0
7.804363240E-1,2.265559196E0,-7.028188229E0,6.619038105E0,9.916645284E0
7.828410640E-1,2.255982876E0,-7.016217709E0,6.607067585E0,9.897985237E0
7.852465850E-1,2.248800755E0,-7.032976151E0,6.590308189E0,9.897071304E0
7.876517930E-1,2.251194715E0,-7.021005630E0,6.599884987E0,9.895497944E0
7.900571060E-1,2.275135756E0,-7.035370350E0,6.587914467E0,9.903196236E0
7.924617930E-1,2.258376837E0,-7.013823986E0,6.561579227E0,9.866524961E0
7.948662720E-1,2.260771275E0,-7.013823986E0,6.563973427E0,9.868665604E0
7.972719490E-1,2.251194715E0,-6.997065067E0,6.528061867E0,9.830686087E0
7.996771060E-1,2.277529716E0,-7.006641388E0,6.542426586E0,9.853096507E0
8.020815330E-1,2.279923916E0,-6.999458790E0,6.537638187E0,9.845363857E0
8.044865330E-1,2.299076557E0,-6.989882946E0,6.532850266E0,9.839834816E0
8.068916890E-1,2.277529716E0,-6.992276669E0,6.552002907E0,9.849254627E0
8.092971060E-1,2.282317877E0,-6.980306149E0,6.537638187E0,9.832312133E0
8.117020010E-1,2.282317877E0,-6.968335629E0,6.542426586E0,9.827004730E0
8.141065330E-1,2.272741318E0,-6.985094547E0,6.549608707E0,9.841456861E0
8.165117410E-1,2.267953396E0,-6.973124027E0,6.518485546E0,9.811153098E0
8.189163240E-1,2.248800755E0,-6.970729828E0,6.547214985E0,9.824164251E0
8.213206990E-1,2.263165236E0,-6.987488270E0,6.559185505E0,9.847325713E0
8.237255950E-1,2.255982876E0,-6.975517750E0,6.554397106E0,9.833993494E0
8.261304390E-1,2.260771275E0,-7.001853466E0,6.566367149E0,9.861755232E0
8.285357510E-1,2.265559196E0,-7.009035110E0,6.563973427E0,9.866360971E0
8.309409080E-1,2.263165236E0,-6.992276669E0,6.587914467E0,9.869876743E0
8.333458040E-1,2.251194715E0,-7.013823986E0,6.568761826E0,9.869662430E0
8.357513240E-1,2.241618156E0,-7.006641388E0,6.544820786E0,9.846448833E0
8.381562720E-1,2.253588676E0,-7.009035110E0,6.578337669E0,9.873183964E0
8.405610640E-1,2.270347357E0,-7.006641388E0,6.563973427E0,9.865761390E0
8.429663760E-1,2.234436035E0,-7.032976151E0,6.575943947E0,9.884254991E0
8.453714810E-1,2.248800755E0,-7.037764549E0,6.554397106E0,9.876606508E0
8.477770540E-1,2.241618156E0,-7.025794506E0,6.554397106E0,9.866446261E0
8.501824180E-1,2.244012356E0,-7.028188229E0,6.559185505E0,9.871875998E0
8.525872620E-1,2.224859715E0,-7.016217709E0,6.568761826E0,9.865391204E0
8.549928870E-1,2.236830235E0,-7.044946671E0,6.559185505E0,9.882185870E0
8.573981470E-1,2.232041836E0,-7.040158749E0,6.556791306E0,9.876100353E0
8.598029910E-1,2.203312635E0,-7.035370350E0,6.561579227E0,9.869414597E0
8.622080430E-1,2.208101034E0,-7.037764549E0,6.583126545E0,9.886525939E0
8.646130430E-1,2.205706596E0,-7.016217709E0,6.540032387E0,9.841975216E0
8.670186680E-1,2.236830235E0,-7.042552948E0,6.547214985E0,9.872536937E0
8.694239810E-1,2.212889194E0,-7.016217709E0,6.547214985E0,9.848360959E0
8.718288760E-1,2.227253675E0,-7.009035110E0,6.525667667E0,9.832170189E0
8.742345010E-1,2.217677116E0,-7.009035110E0,6.537638187E0,9.837955989E0
8.766400740E-1,2.224859715E0,-6.994670868E0,6.540032387E0,9.830943237E0
8.790454390E-1,2.220071316E0,-7.021005630E0,6.554397106E0,9.858162006E0
8.814510120E-1,2.232041836E0,-7.016217709E0,6.532850266E0,9.843142500E0
8.838563760E-1,2.220071316E0,-7.016217709E0,6.547214985E0,9.849977241E0
8.862618450E-1,2.241618156E0,-6.994670868E0,6.568761826E0,9.853877634E0
8.886668450E-1,2.241618156E0,-6.987488270E0,6.559185505E0,9.842395987E0
8.910712720E-1,2.236830235E0,-6.982700348E0,6.540032387E0,9.825148206E0
8.934764810E-1,2.232041836E0,-6.985094547E0,6.520879745E0,9.813023451E0
8.958815850E-1,2.248800755E0,-6.970729828E0,6.544820786E0,9.822568823E0
8.982862720E-1,2.253588676E0,-6.992276669E0,6.554397106E0,9.845339829E0
9.006912200E-1,2.239224195E0,-6.980306149E0,6.523273945E0,9.812843721E0
9.030962720E-1,2.246406317E0,-6.992276669E0,6.530456066E0,9.827773440E0
9.055018450E-1,2.255982876E0,-6.977912426E0,6.520879745E0,9.813388468E0
9.079072620E-1,2.239224195E0,-6.992276669E0,6.542426586E0,9.834093941E0
9.103123140E-1,2.241618156E0,-6.987488270E0,6.561579227E0,9.843991377E0
9.127180430E-1,2.229647636E0,-6.989882946E0,6.528061867E0,9.820661073E0
9.151232510E-1,2.239224195E0,-6.985094547E0,6.535244465E0,9.824209436E0
9.175281990E-1,2.232041836E0,-6.987488270E0,6.535244465E0,9.824277240E0
9.199333560E-1,2.232041836E0,-6.999458790E0,6.537638187E0,9.834385958E0
9.223385120E-1,2.251194715E0,-7.023399830E0,6.590308189E0,9.890813154E0
9.247441890E-1,2.217677116E0,-7.028188229E0,6.573549747E0,9.875478614E0
9.271492410E-1,2.227253675E0,-7.016217709E0,6.571156025E0,9.867525595E0
9.295540850E-1,2.212889194E0,-7.042552948E0,6.573549747E0,9.884633878E0
9.319599700E-1,2.227253675E0,-7.052129269E0,6.571156025E0,9.893092422E0
9.343654390E-1,2.239224195E0,-7.044946671E0,6.549608707E0,9.876374477E0
9.367705430E-1,2.215283155E0,-7.044946671E0,6.573549747E0,9.886875610E0
9.391764290E-1,2.210494995E0,-7.076070309E0,6.559185505E0,9.898483400E0
9.415821580E-1,2.222465515E0,-7.049735069E0,6.575943947E0,9.893490603E0
9.439881470E-1,2.203312635E0,-7.066493988E0,6.547214985E0,9.882102403E0
9.463939290E-1,2.224859715E0,-7.049735069E0,6.566367149E0,9.887666198E0
9.487993970E-1,2.232041836E0,-7.044946671E0,6.566367149E0,9.885871832E0
9.512056470E-1,2.222465515E0,-7.035370350E0,6.585520267E0,9.889634276E0
9.536115850E-1,2.244012356E0,-7.016217709E0,6.585520267E0,9.880889615E0
9.560169490E-1,2.220071316E0,-7.030582428E0,6.585520267E0,9.885690827E0
9.584226790E-1,2.248800755E0,-7.030582428E0,6.602278709E0,9.903346822E0
9.608284080E-1,2.241618156E0,-7.021005630E0,6.599884987E0,9.893323702E0
9.632341890E-1,2.244012356E0,-7.032976151E0,6.590308189E0,9.895984389E0
9.656395010E-1,2.260771275E0,-7.016217709E0,6.602278709E0,9.895882065E0
9.680447100E-1,2.263165236E0,-7.028188229E0,6.599884987E0,9.903324114E0
9.704508040E-1,2.251194715E0,-7.023399830E0,6.597490788E0,9.895600412E0
9.728563760E-1,2.277529716E0,-7.042552948E0,6.607067585E0,9.921594414E0
9.752614290E-1,2.277529716E0,-7.023399830E0,6.571156025E0,9.884097242E0
9.776665330E-1,2.284711838E0,-7.011429310E0,6.578337669E0,9.882032971E0
9.800715850E-1,2.272741318E0,-7.023399830E0,6.597490788E0,9.900524378E0
9.824772100E-1,2.299076557E0,-7.011429310E0,6.599884987E0,9.899715947E0
9.848825220E-1,2.291894436E0,-6.999458790E0,6.609461308E0,9.895967978E0
9.872874180E-1,2.275135756E0,-6.989882946E0,6.616643906E0,9.890130579E0
9.896930950E-1,2.303864956E0,-6.987488270E0,6.619038105E0,9.896688916E0
9.920985640E-1,2.287106276E0,-6.975517750E0,6.607067585E0,9.876337634E0
9.945033560E-1,2.301470757E0,-6.994670868E0,6.602278709E0,9.890008713E0
9.969085120E-1,2.284711838E0,-6.987488270E0,6.631008148E0,9.900261086E0
9.993141370E-1,2.291894436E0,-6.985094547E0,6.597490788E0,9.877814061E0
1.001720126E0,2.279923916E0,-6.992276669E0,6.597490788E0,9.880125038E0
1.004125283E0,2.279923916E0,-7.016217709E0,6.571156025E0,9.879547333E0
1.006530074E0,2.279923916E0,-7.028188229E0,6.575943947E0,9.891234586E0
1.008935908E0,2.287106276E0,-7.006641388E0,6.568761826E0,9.872816750E0
1.011341533E0,2.279923916E0,-7.006641388E0,6.563973427E0,9.867969586E0
1.013746897E0,2.284711838E0,-6.994670868E0,6.552002907E0,9.852617460E0
1.016152470E0,2.277529716E0,-6.999458790E0,6.542426586E0,9.847990180E0
1.018557835E0,2.275135756E0,-7.023399830E0,6.530456066E0,9.856533078E0
1.020963668E0,2.255982876E0,-7.001853466E0,6.552002907E0,9.851099065E0
1.023369241E0,2.291894436E0,-6.992276669E0,6.563973427E0,9.860550708E0
1.025774345E0,2.279923916E0,-7.006641388E0,6.547214985E0,9.856830153E0
1.028180074E0,2.279923916E0,-7.001853466E0,6.561579227E0,9.862977592E0
1.030585543E0,2.291894436E0,-6.999458790E0,6.547214985E0,9.854502905E0
1.032990543E0,2.263165236E0,-7.009035110E0,6.554397106E0,9.859442758E0
1.035395856E0,2.277529716E0,-7.001853466E0,6.532850266E0,9.843334098E0
1.037801272E0,2.282317877E0,-6.999458790E0,6.530456066E0,9.841151085E0
1.040207054E0,2.284711838E0,-7.009035110E0,6.523273945E0,9.843758648E0
1.042612210E0,2.289500237E0,-6.994670868E0,6.520879745E0,9.833061809E0
1.045016897E0,2.301470757E0,-7.006641388E0,6.506515026E0,9.834862936E0
1.047422679E0,2.277529716E0,-7.009035110E0,6.501727104E0,9.827826317E0
1.049828199E0,2.270347357E0,-6.989882946E0,6.489756584E0,9.804584705E0
1.052233304E0,2.279923916E0,-6.997065067E0,6.492150307E0,9.813510494E0
1.054638772E0,2.287106276E0,-6.980306149E0,6.494544983E0,9.804827565E0
1.057044501E0,2.279923916E0,-6.992276669E0,6.456238747E0,9.786368316E0
1.059450647E0,2.275135756E0,-7.004247189E0,6.468209267E0,9.801706612E0
1.061856376E0,2.251194715E0,-6.985094547E0,6.501727104E0,9.804686574E0
1.064261949E0,2.253588676E0,-6.992276669E0,6.468209267E0,9.788172764E0
1.066668251E0,2.253588676E0,-6.987488270E0,6.461027145E0,9.780006443E0
1.069073876E0,2.215283155E0,-7.009035110E0,6.425116062E0,9.763000003E0
1.071479085E0,2.227253675E0,-6.997065067E0,6.468209267E0,9.785566392E0
1.073884918E0,2.208101034E0,-6.997065067E0,6.475391865E0,9.785976167E0
1.076290543E0,2.200918674E0,-7.006641388E0,6.472997665E0,9.789625393E0
1.078696272E0,2.203312635E0,-7.004247189E0,6.482574463E0,9.794786211E0
1.081101741E0,2.208101034E0,-7.009035110E0,6.518485546E0,9.823081857E0
1.083506741E0,2.200918674E0,-6.982700348E0,6.530456066E0,9.810657653E0
1.085912314E0,2.208101034E0,-6.992276669E0,6.556791306E0,9.836623171E0
1.088317626E0,2.239224195E0,-7.004247189E0,6.568761826E0,9.860133650E0
1.090722522E0,2.251194715E0,-7.011429310E0,6.623826027E0,9.904700392E0
1.093127835E0,2.248800755E0,-7.011429310E0,6.611855507E0,9.896154761E0
1.095532991E0,2.267953396E0,-7.025794506E0,6.621431828E0,9.917094357E0
1.097938564E0,2.279923916E0,-7.040158749E0,6.631008148E0,9.936405654E0
1.100344137E0,2.323017597E0,-7.035370350E0,6.674101830E0,9.971784291E0
1.102749345E0,2.306258917E0,-7.030582428E0,6.666919708E0,9.959705712E0
1.105155179E0,2.334988117E0,-7.054523468E0,6.652555466E0,9.973713706E0
1.107560647E0,2.323017597E0,-7.047340870E0,6.669313908E0,9.977032229E0
1.109965439E0,2.325411558E0,-7.061705112E0,6.654949188E0,9.978154474E0
1.112370647E0,2.313441277E0,-7.064099789E0,6.654949188E0,9.977066957E0
1.114776012E0,2.301470757E0,-7.047340870E0,6.674101830E0,9.975240158E0
1.117181533E0,2.318229437E0,-7.054523468E0,6.707619190E0,1.000663002E1
1.119586689E0,2.327805996E0,-7.054523468E0,6.743530750E0,1.003295515E1
1.121991429E0,2.330199957E0,-7.047340870E0,6.760289192E0,1.003973880E1
1.124396897E0,2.311047077E0,-7.047340870E0,6.789019108E0,1.005468708E1
1.126801949E0,2.313441277E0,-7.040158749E0,6.796200752E0,1.005505795E1
1.129207054E0,2.308652878E0,-7.040158749E0,6.791412830E0,1.005072144E1
1.131612574E0,2.330199957E0,-7.016217709E0,6.750713348E0,1.001145711E1
1.134017939E0,2.318229437E0,-7.016217709E0,6.736348152E0,9.998994204E0
1.136423616E0,2.301470757E0,-7.052129269E0,6.741137028E0,1.002358336E1
1.138828460E0,2.296682358E0,-7.049735069E0,6.757895470E0,1.003208182E1
1.141233095E0,2.282317877E0,-7.042552948E0,6.719589710E0,9.997970434E0
1.143638876E0,2.263165236E0,-7.037764549E0,6.717195988E0,9.988631972E0
1.146044293E0,2.270347357E0,-7.035370350E0,6.719589710E0,9.990185131E0
1.148449189E0,2.248800755E0,-7.028188229E0,6.726772308E0,9.985088898E0
1.150854293E0,2.265559196E0,-7.030582428E0,6.717195988E0,9.984115869E0
1.153259345E0,2.253588676E0,-7.021005630E0,6.731560230E0,9.984341997E0
1.155664970E0,2.246406317E0,-7.023399830E0,6.729166508E0,9.982793617E0
1.158070491E0,2.251194715E0,-7.013823986E0,6.731560230E0,9.978752812E0
1.160475595E0,2.246406317E0,-7.018611908E0,6.800989151E0,1.002799620E1
1.162881533E0,2.229647636E0,-7.042552948E0,6.827324390E0,1.005888855E1
1.165286845E0,2.217677116E0,-7.028188229E0,6.834506989E0,1.005106996E1
1.167691481E0,2.215283155E0,-7.035370350E0,6.887176991E0,1.009143807E1
1.170096585E0,2.251194715E0,-7.035370350E0,6.920694351E0,1.012226871E1
1.172501741E0,2.248800755E0,-7.030582428E0,6.935059071E0,1.012823965E1
1.174907679E0,2.253588676E0,-7.025794506E0,6.879994392E0,1.008834839E1
1.177313199E0,2.263165236E0,-7.016217709E0,6.836900711E0,1.005447359E1
1.179717887E0,2.263165236E0,-7.011429310E0,6.789019108E0,1.001862457E1
1.182123460E0,2.267953396E0,-7.011429310E0,6.760289192E0,1.000026317E1
1.184528720E0,2.275135756E0,-6.992276669E0,6.741137028E0,9.975525256E0
1.186933720E0,2.287106276E0,-7.011429310E0,6.702831268E0,9.965888977E0
1.189339449E0,2.277529716E0,-7.028188229E0,6.659737587E0,9.946591181E0
1.191745022E0,2.275135756E0,-6.997065067E0,6.638190269E0,9.909628263E0
1.194150647E0,2.241618156E0,-7.021005630E0,6.616643906E0,9.904511527E0
1.196555960E0,2.227253675E0,-7.025794506E0,6.575943947E0,9.877524293E0
1.198961064E0,2.196130514E0,-7.025794506E0,6.540032387E0,9.846664476E0
1.201366845E0,2.179371595E0,-7.025794506E0,6.520879745E0,9.830224903E0
1.203772262E0,2.148248434E0,-7.021005630E0,6.508909225E0,9.812002380E0
1.206177679E0,2.117125273E0,-7.018611908E0,6.470603943E0,9.778131106E0
1.208583251E0,2.117125273E0,-7.011429310E0,6.434692383E0,9.749237224E0
1.210988929E0,2.112336874E0,-7.004247189E0,6.451450825E0,9.754110082E0
1.213395074E0,2.124307394E0,-6.994670868E0,6.461027145E0,9.756176209E0
1.215800439E0,2.093184233E0,-6.987488270E0,6.434692383E0,9.726853480E0
1.218205543E0,2.100366354E0,-6.973124027E0,6.403568745E0,9.697509484E0
1.220611741E0,2.095578194E0,-6.973124027E0,6.401175022E0,9.694892899E0
1.223017418E0,2.114730835E0,-6.944395065E0,6.386810303E0,9.668922131E0
1.225422314E0,2.102760315E0,-6.942000866E0,6.401175022E0,9.674090067E0
1.227827731E0,2.114730835E0,-6.932424545E0,6.393992424E0,9.665078153E0
1.230233408E0,2.124307394E0,-6.953971386E0,6.389204502E0,9.679480054E0
1.232639397E0,2.124307394E0,-6.934818268E0,6.367657185E0,9.651499590E0
1.235044970E0,2.131489754E0,-6.925241947E0,6.355686665E0,9.638307817E0
1.237450179E0,2.133883953E0,-6.915665150E0,6.358080864E0,9.633539197E0
1.239856220E0,2.143460274E0,-6.915665150E0,6.303016663E0,9.599420058E0
1.242262054E0,2.114730835E0,-6.918059826E0,6.326957703E0,9.610516741E0
1.244667262E0,2.095578194E0,-6.944395065E0,6.633402348E0,9.829450518E0
1.247072887E0,2.105154753E0,-6.930030346E0,6.089941978E0,9.462789780E0
1.249478616E0,2.086001873E0,-6.951576710E0,6.633402348E0,9.832489475E0
1.251884866E0,2.100366354E0,-6.915665150E0,6.393992424E0,9.649927585E0
1.254290595E0,2.081213713E0,-6.932424545E0,6.346110344E0,9.626166272E0
1.256695595E0,2.078819513E0,-6.961153507E0,6.777048588E0,9.935166646E0
1.259101220E0,2.088395834E0,-6.951576710E0,6.252740860E0,9.580322759E0
1.261506376E0,2.071637154E0,-6.975517750E0,6.805777550E0,9.963339622E0
1.263911220E0,2.105154753E0,-6.963547230E0,6.484968185E0,9.745638969E0
1.266316481E0,2.062060833E0,-6.975517750E0,6.559185505E0,9.794532007E0
1.268722106E0,2.093184233E0,-6.997065067E0,6.841689110E0,1.000744971E1
1.271128043E0,2.114730835E0,-6.997065067E0,6.360475063E0,9.689512325E0
1.273533408E0,2.095578194E0,-7.011429310E0,6.896753311E0,1.005568472E1
1.275938199E0,2.117125273E0,-6.997065067E0,6.499332905E0,9.781741521E0
1.278343772E0,2.117125273E0,-7.030582428E0,6.611855507E0,9.880685297E0
1.280748876E0,2.107548714E0,-7.006641388E0,6.834506989E0,1.001225603E1
1.283153564E0,2.117125273E0,-7.006641388E0,6.353292942E0,9.692242989E0
1.285558876E0,2.081213713E0,-7.025794506E0,6.920694351E0,1.007914923E1
1.287964241E0,2.102760315E0,-6.987488270E0,6.449057102E0,9.738425477E0
1.290369918E0,2.076425314E0,-7.023399830E0,6.654949188E0,9.895859536E0
1.292775074E0,2.066849232E0,-7.009035110E0,6.767471790E0,9.959774764E0
1.295179970E0,2.052484512E0,-7.006641388E0,6.350898743E0,9.676757259E0
1.297585699E0,2.018967152E0,-7.021005630E0,6.891964912E0,1.004340225E1
1.299990804E0,2.050090313E0,-6.980306149E0,6.370051384E0,9.669803455E0
1.302395595E0,2.004602432E0,-6.997065067E0,6.664525986E0,9.868802211E0
1.304801012E0,2.018967152E0,-6.982700348E0,6.666919708E0,9.863171443E0
1.307206741E0,2.030937672E0,-6.992276669E0,6.317381382E0,9.639810598E0
1.309612835E0,2.009390593E0,-6.989882946E0,6.853659153E0,9.993435742E0
1.312017991E0,2.033331633E0,-6.965941906E0,6.291046143E0,9.603959899E0
1.314422939E0,2.006996632E0,-6.982700348E0,6.650160789E0,9.849404964E0
1.316828824E0,2.026149511E0,-6.970729828E0,6.568761826E0,9.790045357E0
1.319233929E0,2.030937672E0,-6.963547230E0,6.331746101E0,9.628432195E0
1.321638512E0,2.018967152E0,-6.970729828E0,6.822536469E0,9.960637859E0
1.324043408E0,2.038120031E0,-6.920454025E0,6.279076099E0,9.564173453E0
1.326448616E0,2.018967152E0,-6.927635670E0,6.702831268E0,9.848670537E0
1.328854449E0,2.050090313E0,-6.930030346E0,6.561579227E0,9.761276189E0
1.331259918E0,2.030937672E0,-6.932424545E0,6.379627705E0,9.637575813E0
1.333665022E0,2.045302153E0,-6.922847748E0,6.832112312E0,9.939156930E0
1.336070751E0,2.062060833E0,-6.913271427E0,6.271893501E0,9.559396675E0
1.338475856E0,2.047696114E0,-6.930030346E0,6.805777550E0,9.926579876E0
1.340881012E0,2.047696114E0,-6.951576710E0,6.441874504E0,9.696144865E0
1.343286741E0,2.045302153E0,-6.949182987E0,6.556791306E0,9.770666165E0
1.345692366E0,2.035725594E0,-6.975517750E0,6.540032387E0,9.776198146E0
1.348098408E0,2.047696114E0,-6.977912426E0,6.556791306E0,9.791620572E0
1.350503668E0,2.047696114E0,-6.975517750E0,6.547214985E0,9.783503018E0
1.352908251E0,2.054878712E0,-6.982700348E0,6.583126545E0,9.814182889E0
1.355313564E0,2.069243193E0,-6.997065067E0,6.585520267E0,9.829026612E0
1.357718460E0,2.057272673E0,-7.001853466E0,6.599884987E0,9.839553072E0
1.360122887E0,2.057272673E0,-6.997065067E0,6.599884987E0,9.836146209E0
1.362528199E0,2.047696114E0,-7.011429310E0,6.602278709E0,9.845978087E0
1.364933772E0,2.057272673E0,-7.018611908E0,6.614249229E0,9.861114381E0
1.367339501E0,2.057272673E0,-7.025794506E0,6.631008148E0,9.877470747E0
1.369744606E0,2.081213713E0,-7.013823986E0,6.638190269E0,9.878802938E0
1.372149085E0,2.081213713E0,-7.021005630E0,6.628614426E0,9.877474363E0
1.374554345E0,2.093184233E0,-7.004247189E0,6.654949188E0,9.885810417E0
1.376959397E0,2.105154753E0,-7.021005630E0,6.676496506E0,9.914726531E0
1.379364085E0,2.150642395E0,-7.025794506E0,6.683678150E0,9.932703799E0
1.381769085E0,2.136277914E0,-7.035370350E0,6.698042870E0,9.946049345E0
1.384174241E0,2.133883953E0,-7.028188229E0,6.676496506E0,9.925950639E0
1.386579918E0,2.126701355E0,-7.021005630E0,6.666919708E0,9.912880364E0
1.388985179E0,2.157824993E0,-7.030582428E0,6.666919708E0,9.926384859E0
1.391389918E0,2.181765556E0,-7.016217709E0,6.695648670E0,9.940780804E0
1.393795283E0,2.176977634E0,-7.004247189E0,6.726772308E0,9.952295011E0
1.396200439E0,2.188948154E0,-7.013823986E0,6.741137028E0,9.971366474E0
1.398605439E0,2.191342115E0,-6.997065067E0,6.750713348E0,9.966595734E0
1.401010595E0,2.198524475E0,-7.018611908E0,6.786624908E0,1.000763212E1
1.403415647E0,2.205706596E0,-6.987488270E0,6.848871231E0,1.002981411E1
1.405821376E0,2.212889194E0,-7.006641388E0,6.853659153E0,1.004801204E1
1.408226637E0,2.210494995E0,-6.975517750E0,6.832112312E0,1.001108858E1
1.410631272E0,2.220071316E0,-6.985094547E0,6.879994392E0,1.005259098E1
1.413036689E0,2.236830235E0,-6.977912426E0,6.899147511E0,1.006443777E1
1.415441741E0,2.246406317E0,-6.982700348E0,6.891964912E0,1.006497024E1
1.417846429E0,2.239224195E0,-6.985094547E0,6.930270195E0,1.009129901E1
1.420251585E0,2.251194715E0,-6.968335629E0,6.987729073E0,1.012195320E1
1.422656845E0,2.248800755E0,-7.006641388E0,7.006881714E0,1.016102946E1
1.425062262E0,2.248800755E0,-7.001853466E0,7.026034355E0,1.017094959E1
1.427467314E0,2.244012356E0,-7.013823986E0,7.006881714E0,1.016492547E1
1.429871845E0,2.234436035E0,-7.028188229E0,6.990122795E0,1.016119830E1
1.432277158E0,2.220071316E0,-7.028188229E0,6.954211235E0,1.013337063E1
1.434682262E0,2.196130514E0,-7.032976151E0,6.915905952E0,1.010522132E1
1.437087054E0,2.176977634E0,-7.066493988E0,6.899147511E0,1.011300179E1
1.439492262E0,2.181765556E0,-7.071281910E0,6.839294910E0,1.007666034E1
1.441897574E0,2.121913433E0,-7.059311390E0,6.822536469E0,1.004407277E1
1.444303095E0,2.090790033E0,-7.047340870E0,6.822536469E0,1.002912858E1
1.446707887E0,2.071637154E0,-7.066493988E0,6.796200752E0,1.002074660E1
1.449112626E0,2.042908192E0,-7.068887711E0,6.769865990E0,9.998686557E0
1.451518460E0,2.011784554E0,-7.059311390E0,6.762683868E0,9.980733815E0
1.453923824E0,1.999814391E0,-7.054523468E0,6.750713348E0,9.966829469E0
1.456328564E0,1.942355990E0,-7.049735069E0,6.724378109E0,9.934222279E0
1.458733512E0,1.935173869E0,-7.054523468E0,6.733954430E0,9.942702929E0
1.461138668E0,1.913626790E0,-7.049735069E0,6.767471790E0,9.957881626E0
1.463544189E0,1.899262309E0,-7.044946671E0,6.789019108E0,9.966406140E0
1.465949345E0,1.863350749E0,-7.059311390E0,6.817748070E0,9.989376460E0
1.468354189E0,1.863350749E0,-7.047340870E0,6.851265430E0,1.000384563E1
1.470759866E0,1.856168628E0,-7.047340870E0,6.889570713E0,1.002878656E1
1.473165179E0,1.832227588E0,-7.023399830E0,6.927876472E0,1.003397606E1
1.475569918E0,1.858562589E0,-7.049735069E0,6.975758553E0,1.009030360E1
1.477975126E0,1.856168628E0,-7.030582428E0,6.980546951E0,1.007980590E1
1.480380283E0,1.889685988E0,-7.013823986E0,7.002093315E0,1.008929883E1
1.482785699E0,1.887291789E0,-7.013823986E0,7.030822754E0,1.010881130E1
1.485190699E0,1.904050469E0,-7.018611908E0,7.040399551E0,1.012193396E1
1.487595335E0,1.918414950E0,-7.004247189E0,7.011670113E0,1.009471705E1
1.490001064E0,1.911232829E0,-7.016217709E0,7.040399551E0,1.012162772E1
1.492406324E0,1.908838630E0,-7.028188229E0,7.078704834E0,1.015613887E1
1.494811012E0,1.901656508E0,-7.042552948E0,7.049975395E0,1.014475246E1
1.497215804E0,1.916020989E0,-7.035370350E0,7.069128513E0,1.015579393E1
1.499620491E0,1.916020989E0,-7.056917191E0,7.073916435E0,1.017406066E1
1.502026064E0,1.916020989E0,-7.061705112E0,7.090675354E0,1.018903786E1
1.504431324E0,1.906444430E0,-7.056917191E0,7.059551716E0,1.016227735E1
1.506836116E0,1.901656508E0,-7.071281910E0,7.054763794E0,1.016803902E1
1.509241793E0,1.920809150E0,-7.090435028E0,7.081099033E0,1.020322205E1
1.511647106E0,1.932779431E0,-7.080858231E0,7.128981113E0,1.023213376E1
1.514051949E0,1.920809150E0,-7.080858231E0,7.109827995E0,1.021654125E1
1.516457054E0,1.947144389E0,-7.109587193E0,7.164892197E0,1.027975104E1
1.518862210E0,1.935173869E0,-7.109587193E0,7.198410034E0,1.030088515E1
1.521267626E0,1.961508870E0,-7.114376068E0,7.229532719E0,1.033092480E1
1.523672783E0,1.971085191E0,-7.131134510E0,7.248685837E0,1.035768809E1
1.526077470E0,1.966297030E0,-7.138316631E0,7.251080036E0,1.036339954E1
1.528482991E0,1.992632031E0,-7.164651871E0,7.301355839E0,1.042173766E1
1.530888512E0,1.973479390E0,-7.176622391E0,7.315720558E0,1.043639292E1
1.533293772E0,1.963903069E0,-7.193380833E0,7.354025841E0,1.047298139E1
1.535699345E0,1.932779431E0,-7.176622391E0,7.380361557E0,1.047421987E1
1.538104658E0,1.916020989E0,-7.212533951E0,7.421061039E0,1.052444437E1
1.540510231E0,1.887291789E0,-7.222110271E0,7.466548920E0,1.055794013E1
1.542915595E0,1.868138909E0,-7.231686115E0,7.497672081E0,1.058311456E1
1.545320647E0,1.846592069E0,-7.250839233E0,7.512036324E0,1.060260636E1
1.547726481E0,1.846592069E0,-7.255627155E0,7.538372040E0,1.062455085E1
1.550132001E0,1.853774428E0,-7.243656635E0,7.579071522E0,1.064656594E1
1.552537001E0,1.820257068E0,-7.267597675E0,7.598224163E0,1.067072267E1
1.554942418E0,1.815468788E0,-7.250839233E0,7.634135723E0,1.068412957E1
1.557347731E0,1.793921947E0,-7.241262913E0,7.682017326E0,1.070828813E1
1.559753199E0,1.769980907E0,-7.234080791E0,7.698776245E0,1.071148510E1
1.562158564E0,1.774769187E0,-7.226898193E0,7.729899406E0,1.072982796E1
1.564563720E0,1.724493027E0,-7.238868713E0,7.729899406E0,1.072969903E1
1.566969554E0,1.707734466E0,-7.236474991E0,7.739475727E0,1.073230692E1
1.569374970E0,1.714916706E0,-7.229292393E0,7.737082005E0,1.072688425E1
1.571779866E0,1.695763946E0,-7.219716549E0,7.698776245E0,1.068976511E1
1.574184918E0,1.681399345E0,-7.205351353E0,7.653288364E0,1.064504648E1
1.576590022E0,1.652670026E0,-7.217321873E0,7.607800484E0,1.061601062E1
1.578995543E0,1.635911465E0,-7.231686115E0,7.576677322E0,1.060092117E1
1.581400699E0,1.604788184E0,-7.222110271E0,7.516824722E0,1.054688939E1
1.583805491E0,1.592817664E0,-7.231686115E0,7.504854202E0,1.054311096E1
1.586210960E0,1.549723744E0,-7.267597675E0,7.459366322E0,1.052909139E1
1.588615960E0,1.482689023E0,-7.258021832E0,7.425848961E0,1.048906480E1
1.591020804E0,1.446777582E0,-7.272386551E0,7.416272640E0,1.048722420E1
1.593425960E0,1.432412982E0,-7.262809753E0,7.442607880E0,1.049726748E1
1.595831116E0,1.401289701E0,-7.260416031E0,7.445002079E0,1.049310772E1
1.598236741E0,1.379742742E0,-7.262809753E0,7.476124763E0,1.051401622E1
1.600641845E0,1.389319181E0,-7.238868713E0,7.509642601E0,1.052264986E1
1.603046533E0,1.425230622E0,-7.229292393E0,7.550342560E0,1.054995846E1
1.605452106E0,1.420442581E0,-7.222110271E0,7.588647842E0,1.057185461E1
1.607857314E0,1.458747983E0,-7.222110271E0,7.626953602E0,1.060458597E1
1.610261949E0,1.468324542E0,-7.214927673E0,7.665258884E0,1.062861007E1
1.612666949E0,1.511418343E0,-7.186198711E0,7.729899406E0,1.066195020E1
1.615071897E0,1.489871383E0,-7.176622391E0,7.799328327E0,1.070295044E1
1.617477262E0,1.501841903E0,-7.179016113E0,7.849604607E0,1.074290901E1
1.619882522E0,1.497053623E0,-7.195775509E0,7.916639328E0,1.080247809E1
1.622287574E0,1.473112702E0,-7.193380833E0,7.976491928E0,1.084155027E1
1.624693199E0,1.475506783E0,-7.214927673E0,8.048315048E0,1.090906397E1
1.627098147E0,1.437201142E0,-7.234080791E0,8.098590851E0,1.095375031E1
1.629502835E0,1.382136941E0,-7.250839233E0,8.211112976E0,1.104116608E1
1.631907835E0,1.367772341E0,-7.269992352E0,8.333212852E0,1.114298104E1
1.634312731E0,1.322284460E0,-7.327450275E0,8.405035973E0,1.122873962E1
1.636718147E0,1.300737500E0,-7.327450275E0,8.472069740E0,1.127649818E1
1.639123147E0,1.286373019E0,-7.332238674E0,8.488828659E0,1.129055763E1
1.641527366E0,1.279190660E0,-7.325056553E0,8.469676018E0,1.127067851E1
1.643932522E0,1.257643819E0,-7.327450275E0,8.479252815E0,1.127700864E1
1.646337626E0,1.283978939E0,-7.313086033E0,8.467282295E0,1.126164725E1
1.648742470E0,1.293555260E0,-7.298721313E0,8.443341255E0,1.123541853E1
1.651147939E0,1.281584740E0,-7.298721313E0,8.484041214E0,1.126466811E1
1.653553356E0,1.288766980E0,-7.277174473E0,8.493617058E0,1.125876189E1
1.655959189E0,1.269614339E0,-7.255627155E0,8.519951820E0,1.126257630E1
1.658364554E0,1.248067379E0,-7.222110271E0,8.572622299E0,1.127858156E1
1.660769241E0,1.260037899E0,-7.214927673E0,8.589381218E0,1.128806213E1
1.663174970E0,1.255249619E0,-7.176622391E0,8.479252815E0,1.117932417E1
1.665580231E0,1.248067379E0,-7.176622391E0,8.419400215E0,1.113318827E1
1.667984814E0,1.255249619E0,-7.159863949E0,8.469676018E0,1.116130437E1
1.670390022E0,1.240885139E0,-7.157469273E0,8.486434937E0,1.117088807E1
1.672795335E0,1.243279219E0,-7.159863949E0,8.445734978E0,1.114180570E1
1.675200960E0,1.224126458E0,-7.167046070E0,8.419400215E0,1.112435773E1
1.677606064E0,1.161879778E0,-7.169439793E0,8.431370735E0,1.112829026E1
1.680010856E0,1.097239137E0,-7.186198711E0,8.414611816E0,1.111985061E1
1.682416637E0,9.751402140E-1,-7.195775509E0,8.364336014E0,1.107665114E1
1.684821689E0,8.410706520E-1,-7.207746029E0,8.306878090E0,1.103010545E1
1.687226481E0,7.117892504E-1,-7.238868713E0,8.373911858E0,1.109190083E1
1.689632054E0,6.184194088E-1,-7.274780273E0,8.510375977E0,1.121300004E1
1.692037626E0,5.106849670E-1,-7.241262913E0,8.555864334E0,1.122049474E1
1.694443772E0,4.412560761E-1,-7.241262913E0,8.582199097E0,1.123764819E1
1.696849658E0,3.933741152E-1,-7.222110271E0,8.646840096E0,1.127304145E1
1.699254918E0,4.029504955E-1,-7.181410313E0,8.735421181E0,1.131559130E1
1.701660751E0,4.029504955E-1,-7.131134510E0,8.771332741E0,1.131157489E1
1.704066324E0,4.364678562E-1,-7.085646152E0,8.800062180E0,1.130654589E1
1.706471637E0,5.178672075E-1,-7.023399830E0,8.800062180E0,1.127108806E1
1.708877418E0,5.872961283E-1,-6.982700348E0,8.862307549E0,1.129794300E1
1.711282939E0,6.710895300E-1,-6.927635670E0,8.917372704E0,1.131203046E1
1.713688720E0,7.309420109E-1,-6.889330387E0,8.986802101E0,1.134723585E1
1.716094137E0,8.123413324E-1,-6.839054108E0,8.965254784E0,1.130523564E1
1.718499137E0,8.745880127E-1,-6.824689865E0,8.998771667E0,1.132780594E1
1.720904970E0,9.416227341E-1,-6.817507267E0,9.151993752E0,1.145094094E1
1.723310335E0,1.006263375E0,-6.841448307E0,9.422528267E0,1.168768668E1
1.725715074E0,1.085268617E0,-6.843842983E0,9.520686150E0,1.177537513E1
1.728120335E0,1.104421377E0,-6.853418827E0,9.489562035E0,1.175758835E1
1.730525751E0,1.137938857E0,-6.865389347E0,9.472804070E0,1.175425424E1
1.732931376E0,1.113997936E0,-6.886936188E0,9.513503075E0,1.179735658E1
1.735336637E0,1.133150697E0,-6.891724110E0,9.590113640E0,1.186381774E1
1.737741481E0,1.102027416E0,-6.915665150E0,9.630813599E0,1.190770589E1
1.740147054E0,1.102027416E0,-6.920454025E0,9.683484077E0,1.195311726E1
1.742552366E0,1.109209657E0,-6.910877228E0,9.714608192E0,1.197347829E1
1.744957366E0,1.082874537E0,-6.934818268E0,9.745731354E0,1.201014576E1
1.747362366E0,1.097239137E0,-6.913271427E0,9.726577759E0,1.198347072E1
1.749767262E0,1.104421377E0,-6.915665150E0,9.772066116E0,1.202245596E1
1.752172887E0,1.109209657E0,-6.932424545E0,9.772066116E0,1.203254472E1
1.754578251E0,1.080480576E0,-6.910877228E0,9.764883995E0,1.201168688E1
1.756983095E0,1.066115856E0,-6.886936188E0,9.745731354E0,1.198105891E1
1.759388616E0,1.020628095E0,-6.896512985E0,9.707425117E0,1.195147169E1
1.761793929E0,1.032598495E0,-6.862995148E0,9.743336678E0,1.196242332E1
1.764198720E0,1.042174935E0,-6.855813026E0,9.750518799E0,1.196498716E1
1.766603824E0,1.044569016E0,-6.846236706E0,9.748125076E0,1.195775999E1
1.769008929E0,1.078086376E0,-6.827084064E0,9.731366158E0,1.193611471E1
1.771414293E0,1.137938857E0,-6.748078823E0,9.757700920E0,1.191822973E1
1.773819241E0,1.181032658E0,-6.736108303E0,9.719395638E0,1.188430245E1
1.776223981E0,1.262431979E0,-6.697802544E0,9.726577759E0,1.187689388E1
1.778629554E0,1.346225381E0,-6.640344143E0,9.695454597E0,1.182828529E1
1.781034554E0,1.418048382E0,-6.582885742E0,9.709818840E0,1.181633733E1
1.783439397E0,1.497053623E0,-6.542186260E0,9.728971481E0,1.181923249E1
1.785844762E0,1.571270823E0,-6.477545261E0,9.717001915E0,1.178336161E1
1.788250022E0,1.611970425E0,-6.424875259E0,9.724184036E0,1.176593498E1
1.790655908E0,1.671822906E0,-6.386569977E0,9.762490273E0,1.178513828E1
1.793061220E0,1.702946186E0,-6.329111099E0,9.774459839E0,1.176850620E1
1.795466012E0,1.729281306E0,-6.269258976E0,9.796007156E0,1.175822173E1
1.797871637E0,1.748434067E0,-6.250106335E0,9.803189278E0,1.175684358E1
1.800277054E0,1.762798667E0,-6.192647934E0,9.810372353E0,1.173455382E1
1.802682158E0,1.726887107E0,-6.171100616E0,9.769671440E0,1.168379656E1
1.805087418E0,1.734069467E0,-6.118430614E0,9.760094643E0,1.164910458E1
1.807492626E0,1.729281306E0,-6.056184292E0,9.731366158E0,1.159168967E1
1.809898564E0,1.741251826E0,-6.025060654E0,9.673908234E0,1.152899884E1
1.812304345E0,1.777163148E0,-5.960420132E0,9.652360916E0,1.148272565E1
1.814709397E0,1.803498268E0,-5.900568008E0,9.578144073E0,1.139342586E1
1.817115022E0,1.848986268E0,-5.835927010E0,9.525473595E0,1.132304912E1
1.819520283E0,1.882503629E0,-5.785650730E0,9.444073677E0,1.123423793E1
1.821925179E0,1.880109429E0,-5.713827610E0,9.355492592E0,1.112240437E1
1.824330543E0,1.916020989E0,-5.673128128E0,9.295639992E0,1.105732527E1
1.826735960E0,1.913626790E0,-5.608487606E0,9.264516830E0,1.099765306E1
1.829141845E0,1.920809150E0,-5.558211327E0,9.242969513E0,1.095516802E1
1.831547366E0,1.906444430E0,-5.534270287E0,9.219028473E0,1.092030970E1
1.833952418E0,1.882503629E0,-5.486388683E0,9.204665184E0,1.087980431E1
1.836358356E0,1.858562589E0,-5.438506603E0,9.233393669E0,1.087599042E1
1.838763929E0,1.839409709E0,-5.393018723E0,9.257334709E0,1.087043352E1
1.841168929E0,1.798710108E0,-5.378654480E0,9.333946228E0,1.092189701E1
1.843574241E0,1.808286548E0,-5.323589802E0,9.427315712E0,1.097655639E1
1.845979606E0,1.772374988E0,-5.304437160E0,9.501532555E0,1.102531122E1
1.848385543E0,1.810680628E0,-5.275707722E0,9.551809311E0,1.106113545E1
1.850790856E0,1.834621549E0,-5.227825642E0,9.599690437E0,1.108377434E1
1.853195335E0,1.837015748E0,-5.196702957E0,9.628419876E0,1.109444986E1
1.855600699E0,1.872927070E0,-5.134455681E0,9.637995720E0,1.107977673E1
1.858006012E0,1.920809150E0,-5.093756199E0,9.635601997E0,1.106709925E1
1.860410960E0,1.956720471E0,-5.057844639E0,9.683484077E0,1.109866709E1
1.862816116E0,1.995026231E0,-4.981234074E0,9.664330482E0,1.105405384E1
1.865221481E0,2.054878712E0,-4.938139915E0,9.645178795E0,1.102892680E1
1.867627574E0,2.107548714E0,-4.892652512E0,9.637995720E0,1.101230093E1
1.870033408E0,2.157824993E0,-4.832799911E0,9.616450310E0,1.097671537E1
1.872438981E0,2.186553955E0,-4.770552635E0,9.645178795E0,1.098037634E1
1.874845179E0,2.224859715E0,-4.722671509E0,9.688271523E0,1.100528201E1
1.877250751E0,2.291894436E0,-4.662818909E0,9.743336678E0,1.104206819E1
1.879655908E0,2.303864956E0,-4.605360508E0,9.760094643E0,1.103524293E1
1.882061637E0,2.320623398E0,-4.559872150E0,9.750518799E0,1.101137339E1
1.884467366E0,2.346958637E0,-4.514384270E0,9.750518799E0,1.099820426E1
1.886873564E0,2.361323118E0,-4.452137947E0,9.767277718E0,1.099077309E1
1.889279241E0,2.346958637E0,-4.421014786E0,9.863041878E0,1.106043316E1
1.891684606E0,2.349352598E0,-4.382709026E0,9.949229240E0,1.112271363E1
1.894090751E0,2.387658119E0,-4.344403267E0,9.992322922E0,1.115442820E1
1.896496533E0,2.416387320E0,-4.310886383E0,1.000429344E1,1.115834022E1
1.898901949E0,2.447510719E0,-4.253427982E0,9.999505043E0,1.113876382E1
1.901307626E0,2.490604401E0,-4.219910145E0,9.982747078E0,1.112052117E1
1.903713564E0,2.538486481E0,-4.157663822E0,9.997111320E0,1.112080558E1
1.906120022E0,2.574397802E0,-4.133722782E0,1.004738712E1,1.116535607E1
1.908525647E0,2.612703562E0,-4.090629101E0,1.001626396E1,1.113036433E1
1.910930647E0,2.667768002E0,-4.049929619E0,1.000908184E1,1.112207873E1
1.913336585E0,2.706073523E0,-3.997259378E0,9.994716644E0,1.109933679E1
1.915742158E0,2.756349325E0,-3.956559896E0,9.956412315E0,1.106263865E1
1.918147262E0,2.828172445E0,-3.903889656E0,9.882193565E0,1.099530188E1
1.920552835E0,2.864084005E0,-3.841643095E0,9.831917763E0,1.093744969E1
1.922958616E0,2.916754246E0,-3.779396296E0,9.776853561E0,1.088017267E1
1.925364710E0,2.979000568E0,-3.719544172E0,9.764883995E0,1.086565289E1
1.927770335E0,3.007730007E0,-3.652508974E0,9.750518799E0,1.083789087E1
1.930175283E0,3.055611849E0,-3.609415293E0,9.736153603E0,1.082392394E1
1.932580908E0,3.101099730E0,-3.544774771E0,9.652360916E0,1.074012658E1
1.934986324E0,3.127434969E0,-3.482527971E0,9.582931519E0,1.066496259E1
1.937391533E0,3.148981571E0,-3.417887688E0,9.558990479E0,1.062884472E1
1.939797210E0,3.184893131E0,-3.365217209E0,9.544627190E0,1.060981335E1
1.942202887E0,3.192075491E0,-3.338882208E0,9.537444115E0,1.059718456E1
1.944608824E0,3.192075491E0,-3.283818007E0,9.515896797E0,1.056054442E1
1.947014397E0,3.201651812E0,-3.245512247E0,9.508714676E0,1.054512109E1
1.949419501E0,3.218410730E0,-3.200024605E0,9.532655716E0,1.055792831E1
1.951825387E0,3.227986813E0,-3.128201485E0,9.523079872E0,1.053065020E1
1.954230699E0,3.261504412E0,-3.075531244E0,9.554203033E0,1.055362966E1
1.956635283E0,3.285445452E0,-3.022861242E0,9.606872559E0,1.059357552E1
1.959040387E0,3.321356773E0,-2.931885481E0,9.635601997E0,1.060529062E1
1.961445751E0,3.364450693E0,-2.893579721E0,9.685877800E0,1.065403965E1
1.963851481E0,3.405150175E0,-2.804998398E0,9.669119835E0,1.062802626E1
1.966256897E0,3.450638056E0,-2.754722118E0,9.623631477E0,1.058818586E1
1.968661949E0,3.551190138E0,-2.666140556E0,9.602085114E0,1.057919162E1
1.971067835E0,3.611042738E0,-2.601499796E0,9.508714676E0,1.049871829E1
1.973473668E0,3.670895100E0,-2.520100594E0,9.479986191E0,1.047361046E1
1.975879085E0,3.725959301E0,-2.448277473E0,9.472804070E0,1.046952015E1
1.978284814E0,3.783417940E0,-2.393213272E0,9.499138832E0,1.050120753E1
1.980690543E0,3.848058462E0,-2.297449350E0,9.479986191E0,1.048598902E1
1.983096845E0,3.891152620E0,-2.263931751E0,9.539837837E0,1.054869478E1
1.985502731E0,3.970157862E0,-2.223232269E0,9.566172600E0,1.059323243E1
1.987907887E0,4.034798622E0,-2.132256508E0,9.666726112E0,1.068979473E1
1.990314085E0,4.106621742E0,-2.072404146E0,9.757700920E0,1.078758214E1
1.992720074E0,4.188020706E0,-2.014945745E0,9.824735641E0,1.086853045E1
1.995125543E0,4.271814346E0,-1.983822227E0,9.882193565E0,1.094722331E1
1.997531168E0,4.331666470E0,-1.921575665E0,9.879799843E0,1.095747381E1
1.999936741E0,4.410672188E0,-1.892846465E0,9.865435600E0,1.097103990E1
2.002342574E0,4.501647472E0,-1.821023583E0,9.944440842E0,1.106674571E1
2.004747783E0,4.580653191E0,-1.775535703E0,9.944440842E0,1.109174532E1
2.007152679E0,4.623746872E0,-1.744412303E0,9.987534523E0,1.114328745E1
2.009558512E0,4.733875275E0,-1.710894942E0,9.992322922E0,1.118853225E1
2.011964189E0,4.779363155E0,-1.660618901E0,9.989929199E0,1.119815399E1
2.014369449E0,4.834427834E0,-1.624707460E0,9.930075645E0,1.116323292E1
2.016774762E0,4.870338917E0,-1.581613660E0,9.865435600E0,1.111523830E1
2.019179970E0,4.911038876E0,-1.528943419E0,9.829524040E0,1.109394040E1
2.021585647E0,4.930191040E0,-1.497820258E0,9.774459839E0,1.104944860E1
2.023991012E0,4.978073120E0,-1.476273298E0,9.726577759E0,1.102573851E1
2.026396116E0,5.018773079E0,-1.423603058E0,9.659543037E0,1.097822848E1
2.028802210E0,5.035531521E0,-1.385297537E0,9.582931519E0,1.091367048E1
2.031207939E0,5.042714119E0,-1.323050976E0,9.501532555E0,1.083782960E1
2.033613251E0,5.090596199E0,-1.275169134E0,9.446469307E0,1.080629485E1
2.036019085E0,5.112142563E0,-1.234469295E0,9.403374672E0,1.077410652E1
2.038424918E0,5.140872002E0,-1.184193254E0,9.336339951E0,1.072371774E1
2.040831168E0,5.162419319E0,-1.133917212E0,9.247757912E0,1.065163686E1
2.043237106E0,5.174389839E0,-1.086035252E0,9.149600029E0,1.056735366E1
2.045642626E0,5.207906723E0,-1.023788691E0,9.049047470E0,1.049074334E1
2.048048720E0,5.229453564E0,-9.806949496E-1,8.950889587E0,1.041284647E1
2.050454293E0,5.267759323E0,-9.232365489E-1,8.888643265E0,1.037350631E1
2.052859501E0,5.265365124E0,-8.849310279E-1,8.852731705E0,1.033818318E1
2.055265179E0,5.296488762E0,-8.226844072E-1,8.821608543E0,1.032232436E1
2.057670960E0,5.327611446E0,-7.580437660E-1,8.759362221E0,1.028029672E1
2.060076949E0,5.344370842E0,-6.790385246E-1,8.675568581E0,1.021219287E1
2.062482679E0,5.332400322E0,-6.335506439E-1,8.560651779E0,1.010547567E1
2.064888251E0,5.337188244E0,-5.617276430E-1,8.431370735E0,9.994454901E0
2.067294606E0,5.361129284E0,-4.827224016E-1,8.357153893E0,9.940661412E0
2.069700491E0,5.365917206E0,-4.372345209E-1,8.347577095E0,9.933090397E0
2.072106064E0,5.356341362E0,-3.630174398E-1,8.364336014E0,9.939028695E0
2.074511793E0,5.349158764E0,-3.031649590E-1,8.472069740E0,1.002403981E1
2.076917366E0,5.318035126E0,-2.289479077E-1,8.577410698E0,1.009484468E1
2.079322991E0,5.320429802E0,-1.738836467E-1,8.618109703E0,1.012961123E1
2.081727991E0,5.332400322E0,-1.068488732E-1,8.615715981E0,1.013293994E1
2.084132522E0,5.327611446E0,-4.699640721E-2,8.582199097E0,1.010147483E1
2.086537835E0,5.368311882E0,1.285606623E-2,8.505587578E0,1.005802952E1
2.088942731E0,5.394646645E0,8.946721256E-2,8.481646538E0,1.005229052E1
2.091347522E0,5.399434566E0,1.588960737E-1,8.462493896E0,1.003956894E1
2.093752835E0,5.449710846E0,1.972016841E-1,8.493617058E0,1.009355079E1
2.096157939E0,5.464075565E0,2.690246105E-1,8.551075935E0,1.015132482E1
2.098563304E0,5.483228207E0,3.216947913E-1,8.539104462E0,1.015310712E1
2.100968408E0,5.514351845E0,3.791531324E-1,8.507982254E0,1.014581665E1
2.103373147E0,5.550262928E0,4.437938333E-1,8.417005539E0,1.009199454E1
2.105779033E0,5.586174488E0,5.036463141E-1,8.345182419E0,1.005490301E1
2.108184554E0,5.602932930E0,5.658928752E-1,8.244630814E0,9.984339208E0
2.110589137E0,5.655602932E0,6.233512163E-1,8.177596092E0,9.962303404E0
2.112994085E0,5.677150249E0,6.855977774E-1,8.134502411E0,9.943349976E0
2.115399293E0,5.698697090E0,7.239033580E-1,8.079438210E0,9.913450781E0
2.117804866E0,5.717849731E0,7.837558389E-1,8.105772972E0,9.950458997E0
2.120210126E0,5.725032330E0,8.460023999E-1,8.031556129E0,9.899374177E0
2.122615022E0,5.758549690E0,9.106430411E-1,7.950157166E0,9.858760786E0
2.125020908E0,5.811219692E0,9.704955220E-1,7.813693047E0,9.786007097E0
2.127426376E0,5.849524975E0,1.035136342E0,7.653288364E0,9.688202747E0
2.129831220E0,5.873466015E0,1.085412264E0,7.519218922E0,9.602831666E0
2.132236272E0,5.918954372E0,1.121323824E0,7.375572681E0,9.523153908E0
2.134641481E0,5.954865456E0,1.181176305E0,7.260656357E0,9.464287125E0
2.137047366E0,5.966835976E0,1.221875906E0,7.140951157E0,9.385589790E0
2.139452939E0,5.988383293E0,1.300881147E0,7.097857475E0,9.377238771E0
2.141857991E0,6.029082775E0,1.332004547E0,7.064340591E0,9.382376203E0
2.144264033E0,6.036265373E0,1.387068748E0,7.002093315E0,9.348249577E0
2.146669762E0,6.038659096E0,1.413403869E0,7.033216953E0,9.377060034E0
2.149074762E0,6.060205936E0,1.456497669E0,7.033216953E0,9.397532770E0
2.151480074E0,6.064994335E0,1.513956070E0,7.088280678E0,9.450922824E0
2.153885543E0,6.076964855E0,1.578596711E0,7.117010593E0,9.490695929E0
2.156291272E0,6.100905418E0,1.633660913E0,7.140951157E0,9.533261683E0
2.158696429E0,6.091329098E0,1.674360633E0,7.169680595E0,9.555736159E0
2.161101064E0,6.105693817E0,1.727030754E0,7.219956398E0,9.611966636E0
2.163506429E0,6.132029057E0,1.794065595E0,7.229532719E0,9.648139460E0
2.165911481E0,6.129634857E0,1.849129796E0,7.258262157E0,9.678536771E0
2.168316272E0,6.148787498E0,1.889829516E0,7.212774277E0,9.664530825E0
2.170721793E0,6.160758018E0,1.956864238E0,7.150527954E0,9.639206764E0
2.173127366E0,6.175122738E0,1.983199477E0,7.033216953E0,9.567202397E0
2.175533199E0,6.177516460E0,2.033475399E0,6.925482273E0,9.500475595E0
2.177938616E0,6.234975338E0,2.066992760E0,6.839294910E0,9.482791330E0
2.180343616E0,6.237369061E0,2.122056961E0,6.757895470E0,9.438063876E0
2.182749345E0,6.225398540E0,2.150786161E0,6.683678150E0,9.383657161E0
2.185154658E0,6.227793217E0,2.193879843E0,6.592702866E0,9.330715310E0
2.187559710E0,6.218216419E0,2.234579563E0,6.492150307E0,9.263237926E0
2.189965179E0,6.230186939E0,2.253732443E0,6.398780823E0,9.210805352E0
2.192370751E0,6.211034298E0,2.265702963E0,6.300622940E0,9.132809338E0
2.194776689E0,6.184699059E0,2.272885084E0,6.279076099E0,9.101829800E0
2.197182106E0,6.172728539E0,2.294432163E0,6.322169304E0,9.128900332E0
2.199587210E0,6.160758018E0,2.301614523E0,6.453845024E0,9.214362939E0
2.201993251E0,6.160758018E0,2.323161125E0,6.607067585E0,9.327666324E0
2.204398876E0,6.151181698E0,2.339920044E0,6.736348152E0,9.417571264E0
2.206803929E0,6.153575420E0,2.344708204E0,6.767471790E0,9.442606708E0
2.209209189E0,6.215822697E0,2.354284763E0,6.745924950E0,9.470301578E0
2.211614189E0,6.268492699E0,2.339920044E0,6.710013390E0,9.475943553E0
2.214019762E0,6.328345299E0,2.339920044E0,6.654949188E0,9.476894467E0
2.216425231E0,6.392985821E0,2.368649244E0,6.621431828E0,9.503900588E0
2.218830283E0,6.471991062E0,2.399772406E0,6.559185505E0,9.522000336E0
2.221236324E0,6.536631584E0,2.397378445E0,6.552002907E0,9.560529168E0
2.223642158E0,6.606060505E0,2.430895567E0,6.544820786E0,9.611657909E0
2.226047366E0,6.673095226E0,2.471595526E0,6.489756584E0,9.630987741E0
2.228452783E0,6.749706745E0,2.519477367E0,6.401175022E0,9.637497031E0
2.230858147E0,6.819135189E0,2.541024208E0,6.264711380E0,9.602292301E0
2.233263668E0,6.881381512E0,2.586512089E0,6.147400379E0,9.583005151E0
2.235669137E0,6.931658268E0,2.620029449E0,6.056424141E0,9.570408248E0
2.238074345E0,6.936446190E0,2.643970490E0,5.931931496E0,9.502245891E0
2.240480283E0,6.883776188E0,2.687064171E0,6.010936737E0,9.525652152E0
2.242885699E0,6.838288307E0,2.756493092E0,5.828985214E0,9.398803635E0
2.245290647E0,6.752100468E0,2.775645971E0,5.809832573E0,9.330017460E0
2.247696064E0,6.680277824E0,2.854651213E0,6.228799820E0,9.569383081E0
2.250101376E0,6.620425224E0,2.902533293E0,5.776314735E0,9.253136851E0
2.252506949E0,6.529448986E0,2.936050653E0,6.300622940E0,9.536873017E0
2.254911949E0,6.481567383E0,3.012661695E0,5.924749374E0,9.283830103E0
2.257316585E0,6.491143703E0,3.060543776E0,5.848137856E0,9.257569398E0
2.259722262E0,6.474385262E0,3.120396137E0,6.121065617E0,9.440443891E0
2.262127626E0,6.498326302E0,3.189824820E0,5.551270008E0,9.122490110E0
2.264532679E0,6.455232143E0,3.197007418E0,6.106700897E0,9.443657888E0
2.266938095E0,6.498326302E0,3.290377140E0,5.766738415E0,9.290322836E0
2.269343304E0,6.488749504E0,3.316712141E0,5.912778854E0,9.384316882E0
2.271748929E0,6.534237862E0,3.386141062E0,6.145006180E0,9.587664819E0
2.274154241E0,6.601272106E0,3.429234982E0,5.635063171E0,9.332222829E0
2.276559033E0,6.649154186E0,3.491481543E0,6.032483578E0,9.632889124E0
2.278964606E0,6.776041508E0,3.551333904E0,5.429171085E0,9.380970615E0
2.281369710E0,6.867017269E0,3.589639425E0,5.405230045E0,9.447642522E0
2.283774397E0,6.960387230E0,3.632733107E0,5.321436405E0,9.484799715E0
2.286179501E0,7.029816151E0,3.683009386E0,4.651088238E0,9.198668113E0
2.288584814E0,7.048968792E0,3.704556227E0,4.914439201E0,9.357532289E0
2.290990595E0,7.063333035E0,3.773985147E0,4.189027309E0,9.037786634E0
2.293395856E0,6.979540348E0,3.752438068E0,4.205786228E0,8.971254802E0
2.295800856E0,6.857440472E0,3.778773308E0,4.112416267E0,8.843957547E0
2.298206533E0,6.737736225E0,3.831443310E0,3.669508457E0,8.575683039E0
2.300611897E0,6.491143703E0,3.843413830E0,4.162692547E0,8.615961101E0
2.303016949E0,6.325951099E0,3.896084070E0,3.612049580E0,8.260994526E0
2.305422262E0,6.069782257E0,3.922419071E0,3.978346825E0,8.249537652E0
2.307827574E0,5.837554455E0,3.967907190E0,3.983135223E0,8.104732919E0
2.310233356E0,5.593356609E0,4.030153751E0,3.743725300E0,7.844951022E0
2.312638929E0,5.334794044E0,4.085217953E0,4.265638828E0,7.958938863E0
2.315044293E0,5.138478279E0,4.161828995E0,3.767666340E0,7.610524900E0
2.317450543E0,4.915826797E0,4.231258392E0,4.172268867E0,7.712115675E0
2.319856324E0,4.757816315E0,4.353357315E0,4.045381546E0,7.612729330E0
2.322261689E0,4.592623711E0,4.451515198E0,3.880188942E0,7.480912132E0
2.324667418E0,4.451371670E0,4.576008797E0,4.260850430E0,7.675246747E0
2.327073147E0,4.346031189E0,4.698107719E0,3.650355339E0,7.367855681E0
2.329479449E0,4.207173824E0,4.803447723E0,4.028623104E0,7.550048062E0
2.331885283E0,4.104227066E0,4.942305565E0,3.693449020E0,7.410305646E0
2.334290231E0,4.006069183E0,5.040463448E0,3.592896938E0,7.373179130E0
2.336695699E0,3.924669504E0,5.184109688E0,4.031017303E0,7.650302247E0
2.339101064E0,3.821723461E0,5.315784931E0,3.468403816E0,7.408978653E0
2.341506116E0,3.740324259E0,5.454642773E0,3.849065781E0,7.652350013E0
2.343911376E0,3.668501139E0,5.569559574E0,3.777242661E0,7.664558472E0
2.346316793E0,3.627801418E0,5.710811138E0,3.695843220E0,7.709316707E0
2.348722679E0,3.555978298E0,5.844880581E0,3.643173218E0,7.751149705E0
2.351127991E0,3.510490656E0,5.964585781E0,3.564167976E0,7.784800675E0
2.353532939E0,3.436273336E0,6.077108383E0,3.547409058E0,7.830921514E0
2.355938929E0,3.393179655E0,6.203995705E0,3.552197456E0,7.913364496E0
2.358344397E0,3.338115454E0,6.292577267E0,3.516285896E0,7.943790653E0
2.360749085E0,3.261504412E0,6.395523548E0,3.528256416E0,7.999295333E0
2.363154345E0,3.211228132E0,6.488893032E0,3.545014858E0,8.061318084E0
2.365559606E0,3.148981571E0,6.565504551E0,3.542621136E0,8.097660122E0
2.367965022E0,3.098705769E0,6.666056633E0,3.518680096E0,8.149809697E0
2.370370074E0,3.048429489E0,6.721121311E0,3.518680096E0,8.176032268E0
2.372774918E0,3.022094488E0,6.824067116E0,3.521073818E0,8.252206246E0
2.375180699E0,2.964636087E0,6.883919716E0,3.530650616E0,8.285101783E0
2.377586168E0,2.914359808E0,6.946166039E0,3.540226936E0,8.323215874E0
2.379991116E0,2.837749004E0,7.015594959E0,3.547409058E0,8.357960461E0
2.382396429E0,2.773108244E0,7.061083317E0,3.547409058E0,8.374553001E0
2.384801897E0,2.655797482E0,7.104176521E0,3.506709576E0,8.355812130E0
2.387207939E0,2.598338842E0,7.118541241E0,3.530650616E0,8.360053104E0
2.389613512E0,2.507363081E0,7.166423321E0,3.588108540E0,8.397560105E0
2.392018512E0,2.392446518E0,7.202334881E0,3.674296379E0,8.431955998E0
2.394423981E0,2.272741318E0,7.235852242E0,3.841883183E0,8.501939611E0
2.396829241E0,2.169795513E0,7.274157524E0,4.045381546E0,8.601540101E0
2.399234293E0,2.076425314E0,7.319645882E0,4.169874668E0,8.676209579E0
2.401639710E0,1.959114671E0,7.343586445E0,4.291974068E0,8.728541319E0
2.404045231E0,1.892079949E0,7.367527485E0,4.342249870E0,8.758742017E0
2.406451168E0,1.848986268E0,7.401045322E0,4.339855671E0,8.776592125E0
2.408856533E0,1.781951427E0,7.444138527E0,4.368585110E0,8.813346990E0
2.411261637E0,1.750828147E0,7.470473766E0,4.359008312E0,8.824643390E0
2.413667626E0,1.693369746E0,7.492020607E0,4.366190910E0,8.835241759E0
2.416073251E0,1.681399345E0,7.518355846E0,4.327885151E0,8.836479405E0
2.418478512E0,1.633517265E0,7.554266930E0,4.294367790E0,8.841771441E0
2.420884241E0,1.573664784E0,7.566237450E0,4.275214672E0,8.831864497E0
2.423289866E0,1.537753344E0,7.599755287E0,4.246485710E0,8.840452854E0
2.425695543E0,1.477900863E0,7.599755287E0,4.236909389E0,8.825637232E0
2.428100647E0,1.458747983E0,7.638060570E0,4.251274109E0,8.862349942E0
2.430505543E0,1.432412982E0,7.640454769E0,4.248879910E0,8.858969269E0
2.432911481E0,1.408472061E0,7.676366329E0,4.186633587E0,8.856539638E0
2.435317001E0,1.420442581E0,7.709883690E0,4.110022545E0,8.851680572E0
2.437721949E0,1.406077862E0,7.774524212E0,4.009469986E0,8.859804244E0
2.440127522E0,1.415654302E0,7.793677330E0,3.925676823E0,8.840612080E0
2.442533147E0,1.413260102E0,7.808041573E0,3.865824223E0,8.826517673E0
2.444938929E0,1.418048382E0,7.858317852E0,3.815548420E0,8.849996069E0
2.447344397E0,1.403683782E0,7.870288372E0,3.803577900E0,8.853189937E0
2.449749710E0,1.379742742E0,7.937323093E0,3.849065781E0,8.928611051E0
2.452155647E0,1.360589981E0,7.961264133E0,3.861036301E0,8.952124497E0
2.454560804E0,1.329466820E0,8.028298378E0,3.892159462E0,9.020530037E0
2.456965699E0,1.327072620E0,8.052239418E0,3.918494225E0,9.052860232E0
2.459371220E0,1.341437340E0,8.128850937E0,3.856247902E0,9.096610334E0
2.461776793E0,1.341437340E0,8.162367821E0,3.868218422E0,9.131638207E0
2.464182574E0,1.386925220E0,8.234190941E0,3.834701061E0,9.188601322E0
2.466587939E0,1.418048382E0,8.270102501E0,3.801183701E0,9.211647742E0
2.468993147E0,1.430018902E0,8.325166702E0,3.770060539E0,9.250227627E0
2.471398772E0,1.465930462E0,8.365866661E0,3.724572659E0,9.274110124E0
2.473803876E0,1.477900863E0,8.411354065E0,3.705419540E0,9.309414704E0
2.476208616E0,1.511418343E0,8.447265625E0,3.659931660E0,9.329296956E0
2.478613981E0,1.511418343E0,8.478388786E0,3.664720058E0,9.359360818E0
2.481019554E0,1.535359263E0,8.521482468E0,3.671902180E0,9.405097401E0
2.483425439E0,1.535359263E0,8.552605629E0,3.674296379E0,9.434237913E0
2.485830491E0,1.576058865E0,8.614852905E0,3.628808498E0,9.479868314E0
2.488234970E0,1.657458305E0,8.669917107E0,3.566562176E0,9.520241406E0
2.490640751E0,1.693369746E0,8.734558105E0,3.473192215E0,9.551076932E0
2.493046168E0,1.798710108E0,8.799198151E0,3.408551693E0,9.606220422E0
2.495450960E0,1.880109429E0,8.854262352E0,3.351092815E0,9.652077306E0
2.497856116E0,1.959114671E0,8.902144432E0,3.291240692E0,9.691159429E0
2.500261168E0,2.006996632E0,8.933267593E0,3.300817013E0,9.732764167E0
2.502666637E0,2.057272673E0,8.971573830E0,3.319969654E0,9.784871299E0
2.505072054E0,2.069243193E0,8.990725517E0,3.367851734E0,9.821269675E0
2.507477210E0,2.105154753E0,9.012272835E0,3.444462776E0,9.875072759E0
2.509882887E0,2.150642395E0,9.041001320E0,3.494739056E0,9.928653919E0
2.512288147E0,2.157824993E0,9.055366516E0,3.528256416E0,9.955122540E0
2.514693147E0,2.141066074E0,9.084095955E0,3.533044338E0,9.979346950E0
2.517098720E0,2.153036594E0,9.110430717E0,3.545014858E0,1.001012711E1
2.519504137E0,2.167401075E0,9.100854874E0,3.533044338E0,1.000027945E1
2.521909501E0,2.184159994E0,9.127189636E0,3.525862217E0,1.002536034E1
2.524314554E0,2.169795513E0,9.124795914E0,3.485162735E0,1.000581193E1
2.526719085E0,2.162612915E0,9.148736954E0,3.439674854E0,1.001037689E1
2.529124449E0,2.153036594E0,9.143948555E0,3.413339615E0,9.994911159E0
2.531529710E0,2.160218954E0,9.143948555E0,3.358275414E0,9.977793086E0
2.533934554E0,2.117125273E0,9.134371758E0,3.341516972E0,9.954129922E0
2.536339866E0,2.062060833E0,9.129583359E0,3.322363853E0,9.931741477E0
2.538745179E0,2.026149511E0,9.127189636E0,3.315181732E0,9.919743062E0
2.541150699E0,1.959114671E0,9.122401237E0,3.341516972E0,9.910704834E0
2.543555751E0,1.925597310E0,9.115219116E0,3.339122295E0,9.896710678E0
2.545960543E0,1.875321269E0,9.091279030E0,3.358275414E0,9.871484084E0
2.548366272E0,1.858562589E0,9.093672752E0,3.358275414E0,9.870519377E0
2.550771585E0,1.815468788E0,9.076913834E0,3.312787533E0,9.831625140E0
2.553176585E0,1.796316028E0,9.105642319E0,3.312787533E0,9.854645328E0
2.555581793E0,1.777163148E0,9.112824440E0,3.279270172E0,9.846597940E0
2.557987001E0,1.758010387E0,9.127189636E0,3.264905453E0,9.851690149E0
2.560392418E0,1.741251826E0,9.100854874E0,3.197870731E0,9.802239263E0
2.562797470E0,1.724493027E0,9.103248596E0,3.138018131E0,9.782135196E0
2.565202470E0,1.683793426E0,9.076913834E0,3.109289169E0,9.741314294E0
2.567608199E0,1.633517265E0,9.052972794E0,3.092530727E0,9.705072970E0
2.570013616E0,1.607182145E0,9.014666557E0,3.094924450E0,9.665702506E0
2.572418460E0,1.564088464E0,9.012272835E0,3.073377609E0,9.649512128E0
2.574823564E0,1.492265463E0,8.973967552E0,3.044648647E0,9.593166069E0
2.577228981E0,1.461142182E0,8.938055992E0,2.987189770E0,9.536618065E0
2.579634658E0,1.403683782E0,8.933267593E0,2.915367126E0,9.501208530E0
2.582039970E0,1.355801821E0,8.899750710E0,2.841149807E0,9.440121477E0
2.584444970E0,1.327072620E0,8.897356987E0,2.762144566E0,9.410288290E0
2.586850491E0,1.312708020E0,8.890173912E0,2.678351402E0,9.377204315E0
2.589255699E0,1.276796579E0,8.890173912E0,2.618498802E0,9.355316011E0
2.591660960E0,1.221732259E0,8.868626595E0,2.573010921E0,9.314802874E0
2.594066741E0,1.190608978E0,8.868626595E0,2.515552521E0,9.295057391E0
2.596472366E0,1.147515297E0,8.868626595E0,2.498794079E0,9.285111786E0
2.598878512E0,1.099633336E0,8.866232872E0,2.477246761E0,9.271247507E0
2.601284345E0,1.061327696E0,8.851868629E0,2.486823559E0,9.255608361E0
2.603689866E0,9.871106148E-1,8.837503433E0,2.498794079E0,9.236873180E0
2.606096116E0,9.607754946E-1,8.854262352E0,2.539493561E0,9.261213684E0
2.608502054E0,9.033172131E-1,8.830321312E0,2.573010921E0,9.241804026E0
2.610907679E0,8.530410528E-1,8.827927589E0,2.594557762E0,9.240763742E0
2.613313564E0,8.051590919E-1,8.803986549E0,2.599346161E0,9.214936830E0
2.615719293E0,6.998187304E-1,8.801592827E0,2.611316681E0,9.207429465E0
2.618125283E0,6.351780891E-1,8.756104469E0,2.628075123E0,9.164038167E0
2.620530960E0,5.418082476E-1,8.736951828E0,2.616104603E0,9.136295021E0
2.622936429E0,4.723793566E-1,8.715404510E0,2.594557762E0,9.105665710E0
2.625342574E0,3.814036548E-1,8.679493904E0,2.565828800E0,9.058838811E0
2.627748095E0,3.239452541E-1,8.643581390E0,2.563434601E0,9.021509670E0
2.630153199E0,2.162108123E-1,8.631611824E0,2.573010921E0,9.009542441E0
2.632558876E0,1.755111217E-1,8.607670784E0,2.549069881E0,8.978895129E0
2.634964501E0,9.889996052E-2,8.595699310E0,2.527523041E0,8.960145119E0
2.637370543E0,8.932358027E-2,8.600487709E0,2.477246761E0,8.950593223E0
2.639776272E0,3.904750943E-2,8.607670784E0,2.443729877E0,8.947923600E0
2.642181793E0,-2.080495656E-2,8.586123466E0,2.424576759E0,8.921912435E0
2.644587991E0,-3.277546167E-2,8.571758270E0,2.426970959E0,8.908776690E0
2.646993199E0,-9.981022775E-2,8.559788704E0,2.398241520E0,8.889966655E0
2.649397679E0,-1.357217133E-1,8.538241386E0,2.417394638E0,8.874896236E0
2.651802418E0,-1.907859743E-1,8.502329826E0,2.424576759E0,8.843335583E0
2.654207522E0,-2.075446695E-1,8.490359306E0,2.438941479E0,8.836159317E0
2.656613251E0,-2.578207254E-1,8.440083504E0,2.453306198E0,8.793190114E0
2.659018668E0,-3.128850460E-1,8.408959389E0,2.438941479E0,8.761103275E0
2.661423512E0,-3.727374971E-1,8.394596100E0,2.460488319E0,8.755694130E0
2.663828668E0,-4.278017581E-1,8.353896141E0,2.470064640E0,8.721915753E0
2.666233824E0,-4.948365390E-1,8.361077309E0,2.441335678E0,8.724253369E0
2.668638876E0,-5.762358904E-1,8.341925621E0,2.443729877E0,8.711577732E0
2.671044189E0,-6.432706118E-1,8.337136269E0,2.441335678E0,8.711013611E0
2.673449501E0,-6.983349323E-1,8.356289864E0,2.398241520E0,8.721629111E0
2.675855022E0,-7.581874132E-1,8.365866661E0,2.386271477E0,8.732517661E0
2.678260074E0,-8.371926546E-1,8.392201424E0,2.335995197E0,8.751389023E0
2.680664710E0,-8.635277748E-1,8.373048782E0,2.290507317E0,8.723534255E0
2.683070074E0,-9.161978960E-1,8.377836227E0,2.225866795E0,8.716767831E0
2.685474970E0,-9.784444571E-1,8.416142464E0,2.209107876E0,8.756081608E0
2.687879345E0,-1.011961818E0,8.437689781E0,2.199531555E0,8.778189712E0
2.690284293E0,-1.033508778E0,8.452054024E0,2.199531555E0,8.794503777E0
2.692689449E0,-1.074208379E0,8.466418266E0,2.223472595E0,8.819183198E0
2.695094814E0,-1.114908099E0,8.475995064E0,2.254595757E0,8.841307280E0
2.697499710E0,-1.136454940E0,8.461630821E0,2.304872036E0,8.843255118E0
2.699904449E0,-1.172366500E0,8.442477226E0,2.319236279E0,8.833386771E0
2.702309918E0,-1.215460181E0,8.456841469E0,2.347965717E0,8.860499652E0
2.704714970E0,-1.244189382E0,8.432900429E0,2.319236279E0,8.834063265E0
2.707119710E0,-1.277706861E0,8.437689781E0,2.309660435E0,8.840909172E0
2.709524866E0,-1.277706861E0,8.406565666E0,2.331206799E0,8.816881890E0
2.711930231E0,-1.287283182E0,8.380230904E0,2.295295715E0,8.783720761E0
2.714335960E0,-1.294465423E0,8.346714020E0,2.259384155E0,8.743459980E0
2.716741272E0,-1.294465423E0,8.339531898E0,2.221078396E0,8.726776166E0
2.719146116E0,-1.299253702E0,8.301225662E0,2.180378914E0,8.680579467E0
2.721551376E0,-1.313618183E0,8.294043541E0,2.110949993E0,8.658687017E0
2.723956637E0,-1.325588703E0,8.246161461E0,2.082220554E0,8.607671386E0
2.726361897E0,-1.368682623E0,8.207855225E0,2.043915272E0,8.568533664E0
2.728767470E0,-1.438111305E0,8.193490982E0,2.029550552E0,8.562741036E0
2.731172731E0,-1.481205225E0,8.157579422E0,2.019974232E0,8.533485035E0
2.733578199E0,-1.555422187E0,8.131244659E0,1.993639112E0,8.515343493E0
2.735983616E0,-1.576969147E0,8.097726822E0,1.967304111E0,8.481173081E0
2.738388824E0,-1.622456908E0,8.083362579E0,1.967304111E0,8.476048753E0
2.740794658E0,-1.651186228E0,8.064209938E0,1.909845710E0,8.450172100E0
2.743199814E0,-1.660762548E0,8.040268898E0,1.917028069E0,8.430839390E0
2.745604501E0,-1.682309508E0,8.009145737E0,1.914633870E0,8.404903543E0
2.748009554E0,-1.715826869E0,7.987598896E0,1.933786511E0,8.395554076E0
2.750414866E0,-1.718220949E0,7.951687336E0,1.943363070E0,8.364106333E0
2.752820856E0,-1.766102910E0,7.891835213E0,1.917028069E0,8.311147883E0
2.755226376E0,-1.782861590E0,7.851135731E0,1.926604390E0,8.278329070E0
2.757631481E0,-1.785255671E0,7.810435772E0,1.924210191E0,8.239698393E0
2.760037418E0,-1.811590791E0,7.743401051E0,1.957727551E0,8.189921745E0
2.762442887E0,-1.845108271E0,7.702701092E0,2.015185833E0,8.172943324E0
2.764848043E0,-1.892990232E0,7.659607887E0,2.070250034E0,8.157140443E0
2.767253304E0,-1.885807872E0,7.623696327E0,2.156437874E0,8.144153813E0
2.769658460E0,-1.943266273E0,7.556661129E0,2.197137356E0,8.105974573E0
2.772064137E0,-1.979177713E0,7.515961647E0,2.235443115E0,8.087275797E0
2.774469449E0,-2.041424513E0,7.480050087E0,2.297689915E0,8.086899424E0
2.776874501E0,-2.084518194E0,7.451321125E0,2.395847797E0,8.099845016E0
2.779280335E0,-2.137188196E0,7.420197487E0,2.539493561E0,8.128710333E0
2.781685647E0,-2.199434996E0,7.374709606E0,2.702292442E0,8.156361966E0
2.784090647E0,-2.252104998E0,7.360345364E0,2.877061367E0,8.217307521E0
2.786496116E0,-2.309563637E0,7.338798046E0,3.030283928E0,8.268897244E0
2.788901585E0,-2.352657318E0,7.317251682E0,3.140412331E0,8.302972856E0
2.791307522E0,-2.376598358E0,7.302886486E0,3.240964413E0,8.335719592E0
2.793713304E0,-2.417297840E0,7.269369602E0,3.319969654E0,8.349207254E0
2.796118720E0,-2.438844919E0,7.266975880E0,3.360669613E0,8.369647736E0
2.798525179E0,-2.431662560E0,7.250216484E0,3.382216454E0,8.361698991E0
2.800931168E0,-2.455603600E0,7.276551723E0,3.394186974E0,8.396350352E0
2.803336637E0,-2.455603600E0,7.276551723E0,3.387004375E0,8.393449390E0
2.805742470E0,-2.419692039E0,7.276551723E0,3.384610653E0,8.382046518E0
2.808148251E0,-2.386174679E0,7.298098564E0,3.327151775E0,8.368154587E0
2.810554449E0,-2.359839678E0,7.334010124E0,3.288846493E0,8.376936138E0
2.812960439E0,-2.326322079E0,7.367527485E0,3.231388092E0,8.374610717E0
2.815366220E0,-2.295198917E0,7.379498005E0,3.200264931E0,8.364605460E0
2.817772522E0,-2.252104998E0,7.393862724E0,3.166747570E0,8.352812286E0
2.820178095E0,-2.220981836E0,7.417803764E0,3.138018131E0,8.354862704E0
2.822583199E0,-2.235346556E0,7.429774284E0,3.116471291E0,8.361262671E0
2.824988772E0,-2.232952356E0,7.410621166E0,3.099712849E0,8.337361815E0
2.827394762E0,-2.280834436E0,7.401045322E0,3.092530727E0,8.339150070E0
2.829800960E0,-2.319139719E0,7.403439045E0,3.121259689E0,8.362510435E0
2.832206481E0,-2.364627838E0,7.396256447E0,3.114077091E0,8.366214817E0
2.834611429E0,-2.431662560E0,7.405833244E0,3.087742329E0,8.384121989E0
2.837017106E0,-2.503485680E0,7.398650646E0,3.056619167E0,8.387514093E0
2.839422366E0,-2.553761482E0,7.389074802E0,3.056619167E0,8.394226878E0
2.841826949E0,-2.623190403E0,7.403439045E0,3.056619167E0,8.428223912E0
2.844231949E0,-2.704589844E0,7.393862724E0,3.032678127E0,8.436892131E0
2.846637262E0,-2.774018526E0,7.408226967E0,3.056619167E0,8.480561674E0
2.849043043E0,-2.833871126E0,7.432168007E0,3.049436569E0,8.518627250E0
2.851448564E0,-2.900905848E0,7.429774284E0,3.061407089E0,8.543360815E0
2.853853512E0,-2.934423447E0,7.456109047E0,3.082953930E0,8.585395041E0
2.856258929E0,-2.958364248E0,7.477656364E0,3.128441811E0,8.628696999E0
2.858664189E0,-2.996669769E0,7.508779049E0,3.154777050E0,8.678387566E0
2.861069137E0,-2.994275570E0,7.535114765E0,3.193082333E0,8.714322435E0
2.863474501E0,-2.970334768E0,7.587784767E0,3.190688610E0,8.750877677E0
2.865879814E0,-2.939211369E0,7.599755287E0,3.219417572E0,8.761272362E0
2.868285439E0,-2.853023767E0,7.671577930E0,3.355881214E0,8.846173822E0
2.870690804E0,-2.783595085E0,7.695518970E0,3.547409058E0,8.919278269E0
2.873095856E0,-2.692619324E0,7.712277889E0,3.734148979E0,8.981831532E0
2.875501429E0,-2.606431484E0,7.726642132E0,3.980741024E0,9.074182212E0
2.877907106E0,-2.548973322E0,7.733824730E0,4.160298347E0,9.144254605E0
2.880312783E0,-2.508273602E0,7.712277889E0,4.378161430E0,9.216233732E0
2.882718668E0,-2.491515160E0,7.724247932E0,4.627147198E0,9.342491376E0
2.885124501E0,-2.474756241E0,7.719460011E0,4.907257557E0,9.476057093E0
2.887530439E0,-2.448421001E0,7.705095768E0,5.194549084E0,9.609714167E0
2.889935699E0,-2.472362041E0,7.695518970E0,5.510570049E0,9.782636074E0
2.892340543E0,-2.457997561E0,7.671577930E0,5.781103611E0,9.915443455E0
2.894746272E0,-2.450815439E0,7.685942650E0,6.046848297E0,1.008189392E1
2.897151481E0,-2.448421001E0,7.659607887E0,6.317381382E0,1.022612663E1
2.899556064E0,-2.388568878E0,7.666790009E0,6.604673386E0,1.039743434E1
2.901961064E0,-2.364627838E0,7.664395809E0,6.980546951E0,1.063308345E1
2.904366533E0,-2.283228397E0,7.676366329E0,7.279808998E0,1.082290862E1
2.906772522E0,-2.254499197E0,7.676366329E0,7.411484241E0,1.090593716E1
2.909178408E0,-2.156341076E0,7.683548450E0,7.569494724E0,1.099927152E1
2.911583876E0,-2.079729795E0,7.714671612E0,7.670046806E0,1.107569646E1
2.913989918E0,-2.003118753E0,7.721854210E0,7.792146206E0,1.115154965E1
2.916395491E0,-1.907354712E0,7.779312611E0,7.921427727E0,1.126519968E1
2.918800439E0,-1.794832110E0,7.836771011E0,8.065073013E0,1.138779192E1
2.921205804E0,-1.723009109E0,7.853529453E0,8.206325531E0,1.148871028E1
2.923611272E0,-1.622456908E0,7.887047291E0,8.357153893E0,1.160516706E1
2.926016897E0,-1.497963786E0,7.968446255E0,8.481646538E0,1.173364220E1
2.928422210E0,-1.380653143E0,8.030693054E0,8.546286583E0,1.180835502E1
2.930827210E0,-1.258553982E0,8.109697342E0,8.565440178E0,1.186245820E1
2.933232939E0,-1.167578220E0,8.159974098E0,8.551075935E0,1.187726045E1
2.935638147E0,-1.076602459E0,8.212644577E0,8.522345543E0,1.188431644E1
2.938043199E0,-1.011961818E0,8.267707825E0,8.515163422E0,1.191163580E1
2.940448720E0,-9.784444571E-1,8.301225662E0,8.443341255E0,1.188098113E1
2.942853981E0,-9.640798569E-1,8.327560425E0,8.326029778E0,1.181526489E1
2.945259606E0,-9.856266975E-1,8.346714020E0,8.196748734E0,1.173992269E1
2.947664501E0,-1.023932338E0,8.346714020E0,8.062679291E0,1.165001587E1
2.950069293E0,-1.110119939E0,8.308407784E0,7.914245605E0,1.152810868E1
2.952475126E0,-1.225036621E0,8.315589905E0,7.737082005E0,1.142419311E1
2.954880491E0,-1.356712103E0,8.267707825E0,7.557524204E0,1.128325452E1
2.957285543E0,-1.543451667E0,8.203067780E0,7.406696320E0,1.115937787E1
2.959690960E0,-1.703856349E0,8.143215179E0,7.253473759E0,1.103757045E1
2.962096220E0,-1.919325233E0,8.095333099E0,7.097857475E0,1.093607828E1
2.964501741E0,-2.141976595E0,8.033086777E0,6.978152275E0,1.085417690E1
2.966907210E0,-2.292804718E0,7.978023052E0,6.856053352E0,1.076620977E1
2.969312731E0,-2.484332561E0,7.918169975E0,6.750713348E0,1.069773129E1
2.971718824E0,-2.668678284E0,7.882258892E0,6.595097065E0,1.061824629E1
2.974124397E0,-2.788383245E0,7.839165211E0,6.496938705E0,1.055641061E1
2.976529449E0,-2.951181889E0,7.820012093E0,6.384416103E0,1.051773895E1
2.978934814E0,-3.051733971E0,7.800859451E0,6.245558262E0,1.044861170E1
2.981340231E0,-3.113980532E0,7.786494732E0,6.121065617E0,1.038238023E1
2.983746220E0,-3.173833132E0,7.796071053E0,6.046848297E0,1.036418424E1
2.986151585E0,-3.185803652E0,7.817618370E0,5.936719418E0,1.032032651E1
2.988556376E0,-3.185803652E0,7.855923653E0,5.826591015E0,1.028659536E1
2.990962106E0,-3.133133411E0,7.891835213E0,5.709280491E0,1.023198279E1
2.993367418E0,-3.068492889E0,7.958870411E0,5.606333733E0,1.020736228E1
2.995772470E0,-3.011034250E0,7.985205173E0,5.460293770E0,1.013136896E1
2.998177991E0,-2.920058489E0,8.025904655E0,5.371712208E0,1.008945881E1
3.000583408E0,-2.814718246E0,8.090544701E0,5.271160603E0,1.005806574E1
3.002989293E0,-2.709377766E0,8.140821457E0,5.156243324E0,1.001002233E1
3.005394554E0,-2.606431484E0,8.174338341E0,5.082026482E0,9.971975008E0
3.007799449E0,-2.479544640E0,8.241373062E0,5.034144402E0,9.970505575E0
3.010205231E0,-2.357445240E0,8.270102501E0,5.060479164E0,9.978005452E0
3.012610804E0,-2.254499197E0,8.289255142E0,5.060479164E0,9.970103651E0
3.015016272E0,-2.146764755E0,8.303619385E0,5.065268040E0,9.960704499E0
3.017422001E0,-2.051000834E0,8.310802460E0,5.077238560E0,9.952607364E0
3.019827418E0,-1.950448632E0,8.317984581E0,5.098784924E0,9.949408277E0
3.022233199E0,-1.888201952E0,8.296437263E0,5.134696484E0,9.937871294E0
3.024638564E0,-1.816378951E0,8.270102501E0,5.141879082E0,9.906197472E0
3.027043564E0,-1.727797389E0,8.267707825E0,5.161031723E0,9.898309196E0
3.029449501E0,-1.682309508E0,8.219825745E0,5.122725964E0,9.830463969E0
3.031854866E0,-1.598515987E0,8.188703537E0,5.067661762E0,9.761727035E0
3.034259814E0,-1.550634146E0,8.157579422E0,5.005415440E0,9.695604778E0
3.036665179E0,-1.505146265E0,8.109697342E0,4.995838642E0,9.643187232E0
3.039070387E0,-1.450081825E0,8.071392059E0,4.981474400E0,9.595060931E0
3.041476324E0,-1.435717344E0,8.042663574E0,4.976686001E0,9.566249276E0
3.043881741E0,-1.375864863E0,8.006752014E0,4.959927559E0,9.518506360E0
3.046286429E0,-1.375864863E0,7.970840931E0,4.988656521E0,9.503367990E0
3.048692054E0,-1.366288424E0,7.963657856E0,5.024568081E0,9.514876505E0
3.051097626E0,-1.349529743E0,7.963657856E0,5.084420204E0,9.544234165E0
3.053502835E0,-1.354318023E0,7.975628376E0,5.165819645E0,9.598464351E0
3.055908304E0,-1.366288424E0,7.975628376E0,5.173001766E0,9.604027245E0
3.058313616E0,-1.330376983E0,7.968446255E0,5.208913326E0,9.612430321E0
3.060719033E0,-1.361500263E0,8.018722534E0,5.225672245E0,9.667535594E0
3.063123981E0,-1.342347503E0,8.059421539E0,5.237642765E0,9.705105569E0
3.065528824E0,-1.356712103E0,8.066603661E0,5.304677486E0,9.749377702E0
3.067934554E0,-1.335165262E0,8.126456261E0,5.383682728E0,9.839003880E0
3.070339866E0,-1.316012383E0,8.174338341E0,5.417200565E0,9.894329581E0
3.072744970E0,-1.292071342E0,8.219825745E0,5.453111649E0,9.948437580E0
3.075150439E0,-1.270524502E0,8.272496223E0,5.479446888E0,1.000363756E1
3.077555595E0,-1.287283182E0,8.303619385E0,5.515358448E0,1.005118758E1
3.079961272E0,-1.253765821E0,8.346714020E0,5.520146370E0,1.008521589E1
3.082366741E0,-1.244189382E0,8.349107742E0,5.553663731E0,1.010439450E1
3.084771689E0,-1.234612942E0,8.392201424E0,5.522540569E0,1.012184609E1
3.087177366E0,-1.241795301E0,8.389807701E0,5.534511089E0,1.012727712E1
3.089582731E0,-1.265736341E0,8.377836227E0,5.534511089E0,1.012032812E1
3.091987522E0,-1.270524502E0,8.361077309E0,5.508175850E0,1.009266305E1
3.094392626E0,-1.344741583E0,8.344319344E0,5.455505848E0,1.005974847E1
3.096797679E0,-1.402199984E0,8.284466743E0,5.429171085E0,1.000372194E1
3.099203304E0,-1.481205225E0,8.219825745E0,5.402835369E0,9.947368206E0
3.101608876E0,-1.572180986E0,8.150397301E0,5.378894329E0,9.891068366E0
3.104013876E0,-1.660762548E0,8.100121498E0,5.309465885E0,9.826521689E0
3.106419397E0,-1.782861590E0,8.004357338E0,5.273554325E0,9.749805489E0
3.108824658E0,-1.881019711E0,7.913382053E0,5.208913326E0,9.658810937E0
3.111229658E0,-1.983965993E0,7.851135731E0,5.144272804E0,9.593747756E0
3.113635179E0,-2.096488714E0,7.786494732E0,5.091602802E0,9.536728172E0
3.116040647E0,-2.187464476E0,7.729036808E0,5.026961803E0,9.475935615E0
3.118446481E0,-2.271257877E0,7.685942650E0,4.974291801E0,9.432704050E0
3.120851897E0,-2.338292599E0,7.652425289E0,4.931198597E0,9.399145955E0
3.123256741E0,-2.400539398E0,7.626090050E0,4.904862881E0,9.379633187E0
3.125662366E0,-2.438844919E0,7.611725807E0,4.842616558E0,9.345441104E0
3.128067679E0,-2.467574120E0,7.626090050E0,4.818675518E0,9.352315501E0
3.130472679E0,-2.503485680E0,7.669184208E0,4.780369759E0,9.377406997E0
3.132877835E0,-2.489120722E0,7.707489491E0,4.720517159E0,9.374667912E0
3.135282731E0,-2.496303082E0,7.757765770E0,4.696576595E0,9.405971004E0
3.137688251E0,-2.491515160E0,7.822406292E0,4.667847157E0,9.443859649E0
3.140093824E0,-2.479544640E0,7.872682095E0,4.651088238E0,9.474169451E0
3.142498824E0,-2.489120722E0,7.949293613E0,4.682211876E0,9.555631793E0
3.144904293E0,-2.484332561E0,8.016327858E0,4.715729237E0,9.626604949E0
3.147309449E0,-2.491515160E0,8.078574181E0,4.770793438E0,9.707289972E0
3.149713981E0,-2.462785721E0,8.150397301E0,4.777976036E0,9.763367486E0
3.152119033E0,-2.472362041E0,8.229402542E0,4.770793438E0,9.828332020E0
3.154524293E0,-2.484332561E0,8.301225662E0,4.789946556E0,9.900800159E0
3.156930022E0,-2.481938601E0,8.322772980E0,4.833039761E0,9.939157038E0
3.159335491E0,-2.496303082E0,8.358683586E0,4.897680759E0,1.000431893E1
3.161741301E0,-2.527426243E0,8.370655060E0,4.926409721E0,1.003619760E1
3.164146822E0,-2.551367283E0,8.382624626E0,4.950350761E0,1.006398745E1
3.166552030E0,-2.584884882E0,8.389807701E0,4.959927559E0,1.008322292E1
3.168957030E0,-2.620796442E0,8.385018349E0,4.993444920E0,1.010502839E1
3.171362395E0,-2.639949083E0,8.370655060E0,5.031750202E0,1.011709975E1
3.173767915E0,-2.656707764E0,8.341925621E0,5.055691242E0,1.010969006E1
3.176173749E0,-2.656707764E0,8.322772980E0,5.065268040E0,1.009869232E1
3.178578957E0,-2.692619324E0,8.303619385E0,5.055691242E0,1.008763142E1
3.180983957E0,-2.697407484E0,8.274890900E0,5.072449684E0,1.007370698E1
3.183389999E0,-2.704589844E0,8.224615097E0,5.077238560E0,1.003680483E1
3.185795572E0,-2.704589844E0,8.176733017E0,5.082026482E0,1.000003811E1
3.188200780E0,-2.718954325E0,8.159974098E0,5.067661762E0,9.982939729E0
3.190606353E0,-2.721348286E0,8.124062538E0,5.072449684E0,9.956699976E0
3.193011978E0,-2.759654045E0,8.085756302E0,5.105967522E0,9.953192943E0
3.195417811E0,-2.764442444E0,8.030693054E0,5.086814404E0,9.899992613E0
3.197823020E0,-2.757259846E0,8.021116257E0,5.062873363E0,9.877928657E0
3.200228124E0,-2.750077486E0,7.985205173E0,5.031750202E0,9.830815731E0
3.202634061E0,-2.781200886E0,7.968446255E0,4.991050243E0,9.805192329E0
3.205039478E0,-2.778806925E0,7.951687336E0,4.967109680E0,9.778715559E0
3.207444582E0,-2.783595085E0,7.958870411E0,4.904862881E0,9.754470754E0
3.209850207E0,-2.769230366E0,7.954082012E0,4.873739719E0,9.730847667E0
3.212255780E0,-2.742895365E0,7.987598896E0,4.823463917E0,9.725791241E0
3.214661665E0,-2.697407484E0,7.999569416E0,4.806704998E0,9.714604002E0
3.217067134E0,-2.695013285E0,8.042663574E0,4.782763958E0,9.737677600E0
3.219472290E0,-2.651919603E0,8.076180458E0,4.727699757E0,9.726690771E0
3.221878124E0,-2.618402004E0,8.114485741E0,4.675029278E0,9.724032427E0
3.224283540E0,-2.575308323E0,8.148003578E0,4.658270836E0,9.732505456E0
3.226688645E0,-2.537002802E0,8.222220421E0,4.615176678E0,9.764279166E0
3.229094322E0,-2.493909121E0,8.227008820E0,4.572083473E0,9.736899101E0
3.231500103E0,-2.484332561E0,8.272496223E0,4.581659794E0,9.777408067E0
3.233906093E0,-2.431662560E0,8.308407784E0,4.569689274E0,9.789008262E0
3.236311613E0,-2.400539398E0,8.351501465E0,4.584053993E0,9.824648448E0
3.238716613E0,-2.407721519E0,8.341925621E0,4.543354511E0,9.799332436E0
3.241122343E0,-2.369415760E0,8.353896141E0,4.643906593E0,9.847211800E0
3.243527707E0,-2.367021799E0,8.351501465E0,4.756428719E0,9.898180796E0
3.245932655E0,-2.350263119E0,8.344319344E0,4.639117718E0,9.832233481E0
3.248337811E0,-2.347869158E0,8.327560425E0,4.938380241E0,9.962346692E0
3.250742863E0,-2.309563637E0,8.303619385E0,4.775581837E0,9.853444117E0
3.253148540E0,-2.311957598E0,8.282073021E0,4.914439201E0,9.904019089E0
3.255554009E0,-2.266469479E0,8.267707825E0,5.000627041E0,9.924623286E0
3.257959165E0,-2.242528677E0,8.241373062E0,4.876133919E0,9.834929934E0
3.260365103E0,-2.180282116E0,8.203067780E0,5.168213844E0,9.937524110E0
3.262770363E0,-2.161129236E0,8.179126740E0,4.998232841E0,9.826033042E0
3.265174895E0,-2.153947115E0,8.131244659E0,5.129908562E0,9.852542298E0
3.267580051E0,-2.132400036E0,8.061815262E0,5.163425922E0,9.808208934E0
3.269985415E0,-2.115641356E0,8.064209938E0,5.043720722E0,9.744051467E0
3.272391405E0,-2.103670835E0,8.035480499E0,5.280736446E0,9.842792046E0
3.274796978E0,-2.098882675E0,8.011539459E0,5.060479164E0,9.705592324E0
3.277202030E0,-2.098882675E0,7.997175694E0,5.213701725E0,9.774600413E0
3.279607707E0,-2.086912155E0,7.980416775E0,5.151455402E0,9.725211926E0
3.282013020E0,-2.115641356E0,7.978023052E0,4.998232841E0,9.649203164E0
3.284417915E0,-2.122823715E0,7.978023052E0,5.182578564E0,9.747530606E0
3.286823436E0,-2.163523436E0,8.009145737E0,4.921621799E0,9.646222588E0
3.289228905E0,-2.153947115E0,8.025904655E0,5.070055962E0,9.734480015E0
3.291634582E0,-2.165917635E0,8.092939377E0,4.974291801E0,9.743225641E0
3.294039895E0,-2.199434996E0,8.136033058E0,4.907257557E0,9.752626567E0
3.296444790E0,-2.220981836E0,8.181520462E0,5.058085442E0,9.871892712E0
3.298850572E0,-2.218587637E0,8.231796265E0,4.833039761E0,9.800146640E0
3.301255832E0,-2.235346556E0,8.282073021E0,5.034144402E0,9.946462567E0
3.303660780E0,-2.237740517E0,8.317984581E0,4.919228077E0,9.919433199E0
3.306066301E0,-2.242528677E0,8.363471985E0,4.840222359E0,9.919896723E0
3.308471822E0,-2.273652077E0,8.406565666E0,4.964715481E0,1.002438227E1
3.310877968E0,-2.278439999E0,8.452054024E0,4.696576595E0,9.934099746E0
3.313283749E0,-2.311957598E0,8.471206665E0,4.926409721E0,1.006856509E1
3.315689061E0,-2.299987078E0,8.509512901E0,4.756428719E0,1.001625502E1
3.318095051E0,-2.333504438E0,8.504723549E0,4.777976036E0,1.003018547E1
3.320500520E0,-2.343080759E0,8.504723549E0,4.878527641E0,1.008069353E1
3.322905415E0,-2.323928118E0,8.514300346E0,4.670241356E0,9.985244444E0
3.325310936E0,-2.352657318E0,8.485571861E0,4.957533360E0,1.010529877E1
3.327716613E0,-2.362233639E0,8.464024544E0,4.799522877E0,1.001275582E1
3.330122915E0,-2.376598358E0,8.404171944E0,4.876133919E0,1.000275001E1
3.332528645E0,-2.355051279E0,8.382624626E0,4.952744961E0,1.001720244E1
3.334933645E0,-2.352657318E0,8.353896141E0,4.727699757E0,9.883001679E0
3.337339478E0,-2.374204159E0,8.274890900E0,4.986262321E0,9.948541437E0
3.339745103E0,-2.369415760E0,8.227008820E0,4.763611317E0,9.797438335E0
3.342150311E0,-2.345474720E0,8.152791977E0,4.835434437E0,9.764768040E0
3.344555728E0,-2.367021799E0,8.066603661E0,4.892892361E0,9.726935924E0
3.346961197E0,-2.383780479E0,8.001963615E0,4.804310799E0,9.633028253E0
3.349367290E0,-2.393356800E0,7.939716816E0,4.830646038E0,9.596999585E0
3.351772759E0,-2.383780479E0,7.865499973E0,4.763611317E0,9.499499565E0
3.354177759E0,-2.402933359E0,7.817618370E0,4.744458199E0,9.455111279E0
3.356583749E0,-2.412509680E0,7.757765770E0,4.725306034E0,9.398491890E0
3.358989374E0,-2.422086000E0,7.712277889E0,4.686999798E0,9.344179897E0
3.361394478E0,-2.422086000E0,7.693125248E0,4.667847157E0,9.318769970E0
3.363799947E0,-2.431662560E0,7.693125248E0,4.658270836E0,9.316471761E0
3.366205415E0,-2.417297840E0,7.741007328E0,4.612782955E0,9.329752938E0
3.368611249E0,-2.398145199E0,7.769736290E0,4.615176678E0,9.349853377E0
3.371016665E0,-2.376598358E0,7.810435772E0,4.600812435E0,9.371157974E0
3.373421561E0,-2.364627838E0,7.901411533E0,4.584053993E0,9.435958883E0
3.375827447E0,-2.323928118E0,7.985205173E0,4.562506676E0,9.485811021E0
3.378233072E0,-2.285622597E0,8.095333099E0,4.543354511E0,9.560363950E0
3.380638228E0,-2.271257877E0,8.198279381E0,4.548142433E0,9.646553620E0
3.383043436E0,-2.228164196E0,8.289255142E0,4.543354511E0,9.711773098E0
3.385448593E0,-2.189858675E0,8.394596100E0,4.548142433E0,9.795423640E0
3.387854322E0,-2.180282116E0,8.459236145E0,4.557718754E0,9.853177482E0
3.390259686E0,-2.158735037E0,8.562182426E0,4.545748234E0,9.931512064E0
3.392664478E0,-2.151552916E0,8.626822472E0,4.533777714E0,9.980299908E0
3.395070051E0,-2.110853195E0,8.684281349E0,4.557718754E0,1.003221032E1
3.397475207E0,-2.101276875E0,8.715404510E0,4.636723995E0,1.009320810E1
3.399880103E0,-2.094094515E0,8.751316071E0,4.713335514E0,1.015806559E1
3.402285676E0,-2.077335835E0,8.782439232E0,4.789946556E0,1.021714985E1
3.404691197E0,-2.089306355E0,8.770468712E0,4.828251839E0,1.022733290E1
3.407096926E0,-2.074941874E0,8.768074989E0,4.904862881E0,1.025876224E1
3.409501978E0,-2.082123995E0,8.746527672E0,4.969503880E0,1.027292341E1
3.411906718E0,-2.086912155E0,8.696251869E0,5.012597561E0,1.025212823E1
3.414312395E0,-2.079729795E0,8.660340309E0,5.041327000E0,1.023434161E1
3.416717863E0,-2.091700315E0,8.574152946E0,5.089209080E0,1.018780438E1
3.419122915E0,-2.091700315E0,8.523877144E0,5.120331764E0,1.016117558E1
3.421528384E0,-2.098882675E0,8.447265625E0,5.170608044E0,1.012406996E1
3.423933905E0,-2.106065035E0,8.399383545E0,5.168213844E0,1.008442305E1
3.426339686E0,-2.139582396E0,8.361077309E0,5.168213844E0,1.005961535E1
3.428744947E0,-2.163523436E0,8.289255142E0,5.149061203E0,9.995269668E0
3.431149738E0,-2.165917635E0,8.255737305E0,5.177790165E0,9.982880778E0
3.433555155E0,-2.177888155E0,8.224615097E0,5.156243324E0,9.948584599E0
3.435960363E0,-2.194646597E0,8.183915138E0,5.192154884E0,9.937374554E0
3.438365311E0,-2.213799477E0,8.186308861E0,5.180184364E0,9.937347279E0
3.440770415E0,-2.223376036E0,8.174338341E0,5.163425922E0,9.920895905E0
3.443175572E0,-2.252104998E0,8.167156219E0,5.144272804E0,9.911506461E0
3.445580884E0,-2.242528677E0,8.191097260E0,5.122725964E0,9.917929748E0
3.447986040E0,-2.228164196E0,8.215038300E0,5.082026482E0,9.913554514E0
3.450391249E0,-2.254499197E0,8.270102501E0,5.065268040E0,9.956621029E0
3.452796926E0,-2.240134478E0,8.277284622E0,5.041327000E0,9.947191619E0
3.455201978E0,-2.230558157E0,8.303619385E0,5.026961803E0,9.959710315E0
3.457606822E0,-2.220981836E0,8.341925621E0,5.007809162E0,9.979911622E0
3.460012082E0,-2.220981836E0,8.396989822E0,5.017385960E0,1.003077067E1
3.462417343E0,-2.209011316E0,8.418537140E0,4.991050243E0,1.003304944E1
3.464822968E0,-2.209011316E0,8.447265625E0,4.971898079E0,1.004767625E1
3.467228280E0,-2.237740517E0,8.420930862E0,4.959927559E0,1.002598826E1
3.469633228E0,-2.201828957E0,8.423324585E0,4.950350761E0,1.001530931E1
3.472038905E0,-2.194646597E0,8.411354065E0,4.952744961E0,1.000485050E1
3.474444113E0,-2.213799477E0,8.401777267E0,4.933592319E0,9.991551559E0
3.476849218E0,-2.206617117E0,8.368260384E0,4.897680759E0,9.944054393E0
3.479255051E0,-2.232952356E0,8.339531898E0,4.914439201E0,9.934061666E0
3.481660728E0,-2.213799477E0,8.298831940E0,4.864163399E0,9.870744919E0
3.484066561E0,-2.213799477E0,8.260525703E0,4.830646038E0,9.822033097E0
3.486471874E0,-2.242528677E0,8.183915138E0,4.842616558E0,9.770175893E0
3.488876874E0,-2.223376036E0,8.162367821E0,4.797128201E0,9.725229478E0
3.491282603E0,-2.237740517E0,8.124062538E0,4.780369759E0,9.688127258E0
3.493687811E0,-2.259287357E0,8.092939377E0,4.763611317E0,9.658780456E0
3.496092759E0,-2.259287357E0,8.054634094E0,4.785157681E0,9.637387809E0
3.498498072E0,-2.276046038E0,8.061815262E0,4.785157681E0,9.647330455E0
3.500903436E0,-2.264075518E0,8.047451019E0,4.801917076E0,9.640846097E0
3.503309270E0,-2.271257877E0,8.040268898E0,4.787552357E0,9.629392186E0
3.505714322E0,-2.247316837E0,8.049844742E0,4.809098721E0,9.642502986E0
3.508119218E0,-2.256893396E0,8.052239418E0,4.830646038E0,9.657498050E0
3.510524895E0,-2.264075518E0,8.092939377E0,4.813887596E0,9.684793209E0
3.512930103E0,-2.256893396E0,8.097726822E0,4.847404957E0,9.703817924E0
3.515335155E0,-2.244922876E0,8.138426781E0,4.842616558E0,9.732656591E0
3.517740728E0,-2.237740517E0,8.159974098E0,4.825858116E0,9.740716938E0
3.520146040E0,-2.247316837E0,8.176733017E0,4.837828159E0,9.762887744E0
3.522551457E0,-2.252104998E0,8.200674057E0,4.873739719E0,9.801855475E0
3.524956353E0,-2.254499197E0,8.210249901E0,4.902468681E0,9.824722349E0
3.527360728E0,-2.247316837E0,8.248556137E0,4.904862881E0,9.856307178E0
3.529766093E0,-2.244922876E0,8.258131981E0,4.888104439E0,9.855454710E0
3.532171405E0,-2.249711037E0,8.286861420E0,4.924015999E0,9.898444600E0
3.534576353E0,-2.261681557E0,8.310802460E0,4.916833401E0,9.917655554E0
3.536981718E0,-2.249711037E0,8.317984581E0,4.916833401E0,9.920953479E0
3.539387030E0,-2.256893396E0,8.310802460E0,4.933592319E0,9.924884811E0
3.541792655E0,-2.247316837E0,8.298831940E0,4.912045479E0,9.901981383E0
3.544197655E0,-2.249711037E0,8.289255142E0,4.912045479E0,9.894500561E0
3.546601978E0,-2.242528677E0,8.301225662E0,4.926409721E0,9.910035071E0
3.549007395E0,-2.199434996E0,8.279678345E0,4.952744961E0,9.895467166E0
3.551412759E0,-2.228164196E0,8.265314102E0,4.974291801E0,9.900692492E0
3.553817603E0,-2.228164196E0,8.262920380E0,4.971898079E0,9.897491571E0
3.556222551E0,-2.228164196E0,8.227008820E0,4.983868599E0,9.873567542E0
3.558627707E0,-2.232952356E0,8.215038300E0,5.014991283E0,9.880438657E0
3.561033280E0,-2.235346556E0,8.181520462E0,5.003020763E0,9.847043620E0
3.563438436E0,-2.276046038E0,8.145608902E0,5.014991283E0,9.832673468E0
3.565843332E0,-2.297593117E0,8.136033058E0,5.010203362E0,9.827314271E0
3.568249061E0,-2.321533918E0,8.150397301E0,5.036538601E0,9.858256285E0
3.570654322E0,-2.288016558E0,8.155185699E0,5.038932323E0,9.855603103E0
3.573059061E0,-2.319139719E0,8.171944618E0,5.050902843E0,9.882849155E0
3.575464165E0,-2.314351559E0,8.188703537E0,5.079632282E0,9.910285207E0
3.577869426E0,-2.295198917E0,8.222220421E0,5.091602802E0,9.939681374E0
3.580275311E0,-2.283228397E0,8.258131981E0,5.139484882E0,9.991205162E0
3.582680676E0,-2.285622597E0,8.274890900E0,5.170608044E0,1.002163049E1
3.585085624E0,-2.271257877E0,8.303619385E0,5.187366962E0,1.005074541E1
3.587491249E0,-2.299987078E0,8.334742546E0,5.225672245E0,1.010274835E1
3.589896197E0,-2.302381039E0,8.358683586E0,5.287919044E0,1.015532558E1
3.592300520E0,-2.316745758E0,8.382624626E0,5.314253807E0,1.019200667E1
3.594705468E0,-2.338292599E0,8.404171944E0,5.388470650E0,1.025345475E1
3.597110780E0,-2.355051279E0,8.411354065E0,5.457900047E0,1.029979692E1
3.599516613E0,-2.376598358E0,8.428112984E0,5.551270008E0,1.036811974E1
3.601921978E0,-2.383780479E0,8.432900429E0,5.682945251E0,1.044471569E1
3.604326822E0,-2.388568878E0,8.418537140E0,5.759556293E0,1.047614039E1
3.606732447E0,-2.438844919E0,8.387413025E0,5.879261494E0,1.052912045E1
3.609138020E0,-2.438844919E0,8.370655060E0,5.924749374E0,1.054127534E1
3.611543645E0,-2.479544640E0,8.337136269E0,6.018118858E0,1.057703821E1
3.613949634E0,-2.503485680E0,8.274890900E0,6.051636219E0,1.055289348E1
3.616355311E0,-2.522638321E0,8.231796265E0,6.077971458E0,1.053887617E1
3.618761040E0,-2.572914362E0,8.150397301E0,6.099518299E0,1.050014228E1
3.621166457E0,-2.623190403E0,8.078574181E0,6.118670940E0,1.046817189E1
3.623571457E0,-2.685436964E0,8.011539459E0,6.135429859E0,1.044221412E1
3.625976822E0,-2.747683525E0,7.932534695E0,6.145006180E0,1.040365188E1
3.628381770E0,-2.762048006E0,7.853529453E0,6.173735142E0,1.036445077E1
3.630786561E0,-2.843447685E0,7.767342091E0,6.188099861E0,1.033002313E1
3.633191926E0,-2.905694008E0,7.702701092E0,6.259922981E0,1.034220951E1
3.635597030E0,-2.960758448E0,7.633272648E0,6.281469822E0,1.031938976E1
3.638002655E0,-3.013428688E0,7.539902687E0,6.281469822E0,1.026585350E1
3.640407863E0,-3.034975290E0,7.470473766E0,6.255135059E0,1.020518338E1
3.642812603E0,-3.066098690E0,7.372315884E0,6.176129341E0,1.009438340E1
3.645217968E0,-3.116374731E0,7.317251682E0,6.013330936E0,9.970662596E0
3.647622863E0,-3.181015253E0,7.255005360E0,5.872078896E0,9.860794662E0
3.650027395E0,-3.219321012E0,7.175999641E0,5.795467854E0,9.769669712E0
3.652432759E0,-3.269597054E0,7.104176521E0,5.723644733E0,9.691217569E0
3.654838280E0,-3.295932055E0,7.068264961E0,5.651822090E0,9.631543522E0
3.657244009E0,-3.339025736E0,6.998836040E0,5.570422173E0,9.547900396E0
3.659649270E0,-3.382119656E0,6.960530758E0,5.500993729E0,9.494664491E0
3.662053905E0,-3.396484375E0,6.970107079E0,5.393259525E0,9.444879412E0
3.664459113E0,-3.401272535E0,6.972501278E0,5.266371727E0,9.376518549E0
3.666864165E0,-3.413243055E0,6.989260197E0,5.149061203E0,9.328066119E0
3.669268905E0,-3.372543335E0,7.025171757E0,5.074843884E0,9.299522956E0
3.671674061E0,-3.331843615E0,7.053900719E0,5.014991283E0,9.274094823E0
3.674079374E0,-3.298326254E0,7.135300159E0,5.010203362E0,9.321673786E0
3.676485207E0,-3.257626534E0,7.192758083E0,4.962321281E0,9.325906496E0
3.678890468E0,-3.207350492E0,7.314857006E0,4.909651279E0,9.375441637E0
3.681295155E0,-3.118768930E0,7.417803764E0,4.878527641E0,9.410130938E0
3.683700624E0,-3.054128170E0,7.506385326E0,4.859375477E0,9.449182482E0
3.686105728E0,-2.994275570E0,7.628484249E0,4.871345997E0,9.533596905E0
3.688510676E0,-2.943999529E0,7.743401051E0,4.821069241E0,9.584889237E0
3.690916145E0,-2.896117687E0,7.855923653E0,4.806704998E0,9.654400397E0
3.693321613E0,-2.891329288E0,7.954082012E0,4.804310799E0,9.731834768E0
3.695727290E0,-2.903299809E0,8.042663574E0,4.842616558E0,9.826724901E0
3.698132343E0,-2.908087969E0,8.128850937E0,4.840222359E0,9.897623233E0
3.700536978E0,-2.941605568E0,8.198279381E0,4.840222359E0,9.964566253E0
3.702942395E0,-2.955970049E0,8.236585617E0,4.797128201E0,9.979556129E0
3.705347499E0,-3.001458168E0,8.270102501E0,4.691788197E0,9.970768425E0
3.707752238E0,-2.991881609E0,8.272496223E0,4.665453434E0,9.957509984E0
3.710157395E0,-2.999063730E0,8.282073021E0,4.672635555E0,9.970989911E0
3.712562655E0,-2.955970049E0,8.277284622E0,4.708547115E0,9.971038842E0
3.714968384E0,-2.898511887E0,8.255737305E0,4.725306034E0,9.944198646E0
3.717373853E0,-2.826688766E0,8.219825745E0,4.744458199E0,9.902807090E0
3.719778801E0,-2.702195644E0,8.167156219E0,4.737276554E0,9.820697081E0
3.722184113E0,-2.575308323E0,8.159974098E0,4.754034996E0,9.788679124E0
3.724588801E0,-2.438844919E0,8.102515221E0,4.749247074E0,9.703301769E0
3.726993176E0,-2.314351559E0,8.035480499E0,4.777976036E0,9.630899490E0
3.729398228E0,-2.206617117E0,7.956475735E0,4.799522877E0,9.550397115E0
3.731803593E0,-2.086912155E0,7.879864693E0,4.871345997E0,9.496182482E0
3.734209426E0,-2.034241915E0,7.781706810E0,4.885710239E0,9.410805788E0
3.736614686E0,-1.967207193E0,7.724247932E0,4.943168640E0,9.379169818E0
3.739019374E0,-1.928901553E0,7.618907928E0,4.888104439E0,9.255375964E0
3.741425051E0,-1.873837352E0,7.551873207E0,4.897680759E0,9.193983477E0
3.743830468E0,-1.837925792E0,7.489626884E0,4.861769199E0,9.116429226E0
3.746235363E0,-1.809196711E0,7.458503246E0,4.840222359E0,9.073599941E0
3.748640780E0,-1.761314750E0,7.451321125E0,4.823463917E0,9.049321539E0
3.751046353E0,-1.773285270E0,7.446532726E0,4.806704998E0,9.038794346E0
3.753452343E0,-1.782861590E0,7.470473766E0,4.768399239E0,9.040144083E0
3.755857759E0,-1.787649870E0,7.518355846E0,4.734881878E0,9.063138148E0
3.758262811E0,-1.790043950E0,7.573420048E0,4.636723995E0,9.058706197E0
3.760668645E0,-1.780467510E0,7.685942650E0,4.572083473E0,9.118537507E0
3.763073957E0,-1.778073430E0,7.781706810E0,4.481107235E0,9.154060741E0
3.765478853E0,-1.756526589E0,7.894228935E0,4.435619831E0,9.223825639E0
3.767883801E0,-1.766102910E0,8.040268898E0,4.349432468E0,9.310349415E0
3.770288540E0,-1.739767790E0,8.193490982E0,4.251274109E0,9.393264501E0
3.772693749E0,-1.684703588E0,8.361077309E0,4.150722027E0,9.485480129E0
3.775098645E0,-1.624851108E0,8.519088745E0,4.035805225E0,9.565706351E0
3.777503176E0,-1.562604547E0,8.708222389E0,3.930464745E0,9.681085851E0
3.779908540E0,-1.471628785E0,8.875809669E0,3.889765263E0,9.801834643E0
3.782313436E0,-1.409382224E0,9.041001320E0,3.870612621E0,9.935175146E0
3.784718228E0,-1.339953303E0,9.194224358E0,3.805971622E0,1.004065020E1
3.787123436E0,-1.301647663E0,9.333081245E0,3.794001102E0,1.015850070E1
3.789528384E0,-1.253765821E0,9.457575798E0,3.791607380E0,1.026615582E1
3.791933853E0,-1.210672021E0,9.553339958E0,3.870612621E0,1.037851980E1
3.794339165E0,-1.146031380E0,9.644314766E0,3.928071022E0,1.047644678E1
3.796744061E0,-1.126878619E0,9.708955765E0,4.059746265E0,1.058372417E1
3.799149686E0,-1.090967178E0,9.732896805E0,4.136357307E0,1.063150701E1
3.801554843E0,-1.016750097E0,9.780778885E0,4.244091988E0,1.071026298E1
3.803959530E0,-9.592916965E-1,9.811902046E0,4.359008312E0,1.077936064E1
3.806364999E0,-8.731040955E-1,9.790354729E0,4.507442951E0,1.081343601E1
3.808770624E0,-8.012812138E-1,9.778385162E0,4.629541874E0,1.084857253E1
3.811176405E0,-7.414287329E-1,9.735290527E0,4.744458199E0,1.085520529E1
3.813581457E0,-7.079112530E-1,9.658679962E0,4.840222359E0,1.082677188E1
3.815986249E0,-7.031230927E-1,9.586856842E0,4.950350761E0,1.081240856E1
3.818391926E0,-7.725520134E-1,9.522215843E0,5.058085442E0,1.080988712E1
3.820797082E0,-8.443748951E-1,9.402510643E0,5.201731205E0,1.077859837E1
3.823202030E0,-9.784444571E-1,9.278017998E0,5.307071686E0,1.073331176E1
3.825607395E0,-1.090967178E0,9.160706520E0,5.453111649E0,1.071658434E1
3.828012447E0,-1.251371741E0,9.048184395E0,5.575211048E0,1.070133404E1
3.830417863E0,-1.447687864E0,8.918902397E0,5.730827332E0,1.069976645E1
3.832823020E0,-1.608092427E0,8.780045509E0,5.850532055E0,1.067257634E1
3.835227499E0,-1.778073430E0,8.713010788E0,5.955872536E0,1.070282765E1
3.837632811E0,-1.948054433E0,8.622035027E0,6.003754616E0,1.068547957E1
3.840037863E0,-2.079729795E0,8.564577103E0,6.042059898E0,1.068567943E1
3.842442759E0,-2.220981836E0,8.516695023E0,6.034877777E0,1.067176669E1
3.844848384E0,-2.316745758E0,8.516695023E0,5.965448856E0,1.065307397E1
3.847253749E0,-2.393356800E0,8.531058311E0,5.848137856E0,1.061639435E1
3.849659009E0,-2.434056520E0,8.578940392E0,5.788285255E0,1.063142021E1
3.852063749E0,-2.465179920E0,8.643581390E0,5.687733173E0,1.063667805E1
3.854467915E0,-2.457997561E0,8.751316071E0,5.599152088E0,1.067603808E1
3.856873072E0,-2.422086000E0,8.861444473E0,5.510570049E0,1.071251983E1
3.859278124E0,-2.367021799E0,8.988331795E0,5.350165367E0,1.072460583E1
3.861682707E0,-2.266469479E0,9.105642319E0,5.120331764E0,1.068959322E1
3.864087603E0,-2.197040796E0,9.196619034E0,4.665453434E0,1.054377758E1
3.866492447E0,-2.106065035E0,9.263653755E0,3.973558426E0,1.029757046E1
3.868897707E0,-2.043818474E0,9.309141159E0,3.475586414E0,1.014480182E1
3.871302655E0,-2.034241915E0,9.335476875E0,3.147594929E0,1.005965320E1
3.873707186E0,-2.051000834E0,9.342658997E0,2.831573963E0,9.975454509E0
3.876112499E0,-2.096488714E0,9.330687523E0,2.604134083E0,9.911534135E0
3.878517447E0,-2.156341076E0,9.292382240E0,2.541887760E0,9.872151129E0
3.880921874E0,-2.213799477E0,9.311535835E0,2.845938206E0,9.985237704E0
3.883326978E0,-2.268863916E0,9.313929558E0,3.176323891E0,1.009881482E1
3.885732290E0,-2.295198917E0,9.323505402E0,3.561773777E0,1.024118760E1
3.888138176E0,-2.335898638E0,9.373782158E0,3.990317345E0,1.045212165E1
3.890543749E0,-2.292804718E0,9.459969521E0,4.509836674E0,1.072784245E1
3.892948853E0,-2.153947115E0,9.584463120E0,5.031750202E0,1.103720669E1
3.895354478E0,-1.940872073E0,9.718531609E0,5.421988487E0,1.129667208E1
3.897759634E0,-1.660762548E0,9.922030449E0,5.817014694E0,1.162077796E1
3.900164374E0,-1.366288424E0,1.008482838E1,6.046848297E0,1.183785799E1
3.902569634E0,-1.014355898E0,1.027396297E1,6.166553020E0,1.202537356E1
3.904974895E0,-7.007290125E-1,1.047746181E1,6.224011421E0,1.220682372E1
3.907380520E0,-3.679493070E-1,1.067138386E1,6.331746101E0,1.241389660E1
3.909785780E0,-5.911055207E-2,1.087488174E1,6.432297707E0,1.263491198E1
3.912190520E0,2.090285122E-1,1.109274483E1,6.575943947E0,1.289712059E1
3.914596093E0,4.987144172E-1,1.128666687E1,6.710013390E0,1.314008542E1
3.917001197E0,7.357302904E-1,1.148537636E1,6.750713348E0,1.334268713E1
3.919405728E0,9.392286539E-1,1.164817524E1,6.717195988E0,1.347897840E1
3.921810572E0,1.113997936E0,1.177506256E1,6.654949188E0,1.357134623E1
3.924215676E0,1.216944218E0,1.185885715E1,6.554397106E0,1.360417464E1
3.926621561E0,1.159485817E0,1.190913296E1,6.492150307E0,1.361322411E1
3.929026770E0,9.559873343E-1,1.189476776E1,6.441874504E0,1.356086867E1
3.931431353E0,8.985290527E-1,1.188040352E1,6.408356667E0,1.352842849E1
3.933836978E0,1.039780736E0,1.194264984E1,6.283864021E0,1.353495387E1
3.936242551E0,1.190608978E0,1.196898460E1,5.998966217E0,1.344104675E1
3.938647603E0,1.327072620E0,1.197856140E1,5.642245293E0,1.330721560E1
3.941052759E0,1.401289701E0,1.197137833E1,5.299889565E0,1.316686528E1
3.943458020E0,1.420442581E0,1.195222664E1,5.053297520E0,1.305408727E1
3.945863905E0,1.396501541E0,1.189955616E1,4.823463917E0,1.291570585E1
3.948269582E0,1.339043140E0,1.179421616E1,4.648694515E0,1.274782068E1
3.950674895E0,1.228914618E0,1.169126987E1,4.600812435E0,1.262392560E1
3.953080988E0,1.109209657E0,1.157874680E1,4.572083473E0,1.249806668E1
3.955486509E0,9.823224545E-1,1.144946575E1,4.552930355E0,1.236059862E1
3.957891665E0,8.434647322E-1,1.131300163E1,4.538566113E0,1.221859325E1
3.960297134E0,7.046068907E-1,1.116696167E1,4.521807194E0,1.206831571E1
3.962702343E0,5.250495672E-1,1.101852798E1,4.519413471E0,1.192093680E1
3.965108228E0,3.574626148E-1,1.088206387E1,4.521807194E0,1.178956461E1
3.967514009E0,2.281812727E-1,1.075278282E1,4.524201393E0,1.166802483E1
3.969919478E0,9.889996052E-2,1.060195446E1,4.495472431E0,1.151609708E1
3.972325520E0,1.510649920E-2,1.049421978E1,4.418860912E0,1.138662412E1
3.974731301E0,-5.432235450E-2,1.038887978E1,4.327885151E0,1.125443752E1
3.977136874E0,-1.285394132E-1,1.026917458E1,4.236909389E0,1.110962961E1
3.979542655E0,-1.500862986E-1,1.020692825E1,4.244091988E0,1.105514482E1
3.981948384E0,-1.476922035E-1,1.016383457E1,4.263244152E0,1.102273092E1
3.984354634E0,-1.381158084E-1,1.011595249E1,4.212968349E0,1.095904526E1
3.986760676E0,-1.213571206E-1,1.008004093E1,4.088475227E0,1.087830788E1
3.989166353E0,-1.883918792E-1,1.001779461E1,3.987923145E0,1.078402668E1
3.991572603E0,-2.482443452E-1,9.977094650E0,3.949617863E0,1.073329046E1
3.993978332E0,-2.697912455E-1,9.965125084E0,3.935253143E0,1.071740279E1
3.996383384E0,-3.368260264E-1,9.938788414E0,3.999893665E0,1.071877401E1
3.998788957E0,-3.392201066E-1,9.945971489E0,4.066928387E0,1.075068954E1
4.001194582E0,-3.487964869E-1,9.931606293E0,4.083687305E0,1.074406648E1
4.003600728E0,-3.607670069E-1,9.926818848E0,4.047775745E0,1.072643341E1
4.006006561E0,-3.583728969E-1,9.938788414E0,4.002287865E0,1.072036634E1
4.008411718E0,-3.272495866E-1,9.974700928E0,4.009469986E0,1.075535218E1
4.010817603E0,-2.937322259E-1,9.943577766E0,3.949617863E0,1.070329382E1
4.013223176E0,-2.219092548E-1,9.972306252E0,3.990317345E0,1.074331272E1
4.015628593E0,-2.075446695E-1,9.991459846E0,4.019046783E0,1.077149394E1
4.018034426E0,-1.644508988E-1,9.979488373E0,4.028623104E0,1.076322611E1
4.020440051E0,-1.716331840E-1,9.977094650E0,4.019046783E0,1.075753748E1
4.022846040E0,-2.027564794E-1,9.955547333E0,3.997499466E0,1.073005288E1
4.025251561E0,-2.314856648E-1,9.912453651E0,3.995105743E0,1.068977048E1
4.027656822E0,-2.841558456E-1,9.881330490E0,3.944829464E0,1.064345415E1
4.030063176E0,-3.440083265E-1,9.854995728E0,3.877794743E0,1.059606411E1
4.032469270E0,-4.110430777E-1,9.795144081E0,3.753301620E0,1.049767008E1
4.034874895E0,-5.020188093E-1,9.761625290E0,3.559379578E0,1.040242924E1
4.037280572E0,-5.786299706E-1,9.723320961E0,3.382216454E0,1.031102184E1
4.039686093E0,-6.528470516E-1,9.661073685E0,3.250541210E0,1.021413590E1
4.042091978E0,-7.390346527E-1,9.606009483E0,3.097318649E0,1.012002832E1
4.044497603E0,-8.012812138E-1,9.586856842E0,2.898608685E0,1.004747769E1
4.046902551E0,-8.156456947E-1,9.529398918E0,2.699898243E0,9.938016510E0
4.049308228E0,-8.419808149E-1,9.529398918E0,2.498794079E0,9.887484376E0
4.051713593E0,-8.395867348E-1,9.481516838E0,2.357542038E0,9.806226180E0
4.054118540E0,-8.659218550E-1,9.457575798E0,2.223472595E0,9.753942332E0
4.056523801E0,-8.970451355E-1,9.419269562E0,2.134891033E0,9.699746841E0
4.058929270E0,-9.209861755E-1,9.400116920E0,2.060673714E0,9.667305199E0
4.061335207E0,-9.090156555E-1,9.349841118E0,2.031944752E0,9.611172554E0
4.063740624E0,-9.066214561E-1,9.316323280E0,2.075038433E0,9.587576671E0
4.066145624E0,-9.233801365E-1,9.266047478E0,2.070250034E0,9.539297770E0
4.068551301E0,-9.497152567E-1,9.213377953E0,2.130102634E0,9.503979672E0
4.070956613E0,-9.664739370E-1,9.163100243E0,2.192349434E0,9.471160117E0
