"Time (s)","Acceleration x (m/s^2)","Acceleration y (m/s^2)","Acceleration z (m/s^2)","Absolute acceleration (m/s^2)"
1.352756500E-2,1.734069467E0,-6.618797302E0,7.258262157E0,9.974860610E0
1.593053400E-2,1.734069467E0,-6.618797302E0,7.258262157E0,9.974860610E0
1.835845100E-2,1.743645787E0,-6.609220982E0,7.260656357E0,9.971922249E0
2.081131500E-2,1.743645787E0,-6.609220982E0,7.260656357E0,9.971922249E0
2.326449200E-2,1.712522507E0,-6.609220982E0,7.260656357E0,9.966527281E0
2.568704400E-2,1.712522507E0,-6.609220982E0,7.260656357E0,9.966527281E0
2.808647200E-2,1.698157907E0,-6.616403103E0,7.263050556E0,9.970578402E0
3.049287800E-2,1.681399345E0,-6.604433060E0,7.265444279E0,9.961542068E0
3.289886700E-2,1.674216866E0,-6.609220982E0,7.255867958E0,9.956526700E0
3.530522200E-2,1.633517265E0,-6.625979900E0,7.219956398E0,9.934775221E0
3.771136700E-2,1.659852386E0,-6.585279942E0,7.215168476E0,9.908565890E0
4.011782600E-2,1.659852386E0,-6.587673664E0,7.222351074E0,9.915387501E0
4.252418000E-2,1.619152665E0,-6.585279942E0,7.203197956E0,9.893110131E0
4.493032600E-2,1.590423584E0,-6.602038860E0,7.198410034E0,9.896134160E0
4.733735700E-2,1.580847144E0,-6.594856262E0,7.184044838E0,9.879357623E0
4.974397200E-2,1.588029385E0,-6.578097820E0,7.167286396E0,9.857139673E0
5.214996100E-2,1.583241105E0,-6.580492020E0,7.167286396E0,9.857967432E0
5.455641900E-2,1.566482544E0,-6.578097820E0,7.184044838E0,9.865887630E0
5.696324200E-2,1.583241105E0,-6.566127300E0,7.162498474E0,9.844900432E0
5.937043000E-2,1.583241105E0,-6.570915222E0,7.157710075E0,9.844612373E0
6.177714900E-2,1.573664784E0,-6.563732624E0,7.186439514E0,9.859204821E0
6.418360700E-2,1.566482544E0,-6.558944702E0,7.193621159E0,9.860111994E0
6.659084700E-2,1.552117944E0,-6.551762104E0,7.210380554E0,9.865305090E0
6.899746100E-2,1.561694264E0,-6.561338902E0,7.181651115E0,9.852216497E0
7.140339900E-2,1.590423584E0,-6.573309422E0,7.196015358E0,9.875245868E0
7.381011700E-2,1.561694264E0,-6.578097820E0,7.203197956E0,9.879085013E0
7.621720100E-2,1.571270823E0,-6.566127300E0,7.203197956E0,9.872637972E0
7.862454400E-2,1.559300303E0,-6.558944702E0,7.188833237E0,9.855480523E0
8.103147200E-2,1.576058865E0,-6.537397861E0,7.198410034E0,9.850819223E0
8.343808600E-2,1.568876624E0,-6.558944702E0,7.164892197E0,9.839553326E0
8.584543000E-2,1.588029385E0,-6.561338902E0,7.193621159E0,9.865150322E0
8.825246100E-2,1.592817664E0,-6.563732624E0,7.172074318E0,9.851817299E0
9.065912800E-2,1.602393985E0,-6.580492020E0,7.169680595E0,9.862801911E0
9.306600300E-2,1.607182145E0,-6.575703144E0,7.172074318E0,9.862127372E0
9.547287800E-2,1.592817664E0,-6.575703144E0,7.172074318E0,9.859796650E0
9.787975300E-2,1.604788184E0,-6.580492020E0,7.186439514E0,9.875380156E0
1.002861070E-1,1.602393985E0,-6.590068340E0,7.188833237E0,9.883116438E0
1.026922010E-1,1.609576344E0,-6.594856262E0,7.198410034E0,9.894441477E0
1.050990240E-1,1.611970425E0,-6.587673664E0,7.207985878E0,9.897017398E0
1.075054300E-1,1.616758704E0,-6.597250462E0,7.200803757E0,9.898949293E0
1.099117840E-1,1.616758704E0,-6.558944702E0,7.205591679E0,9.876953769E0
1.123183990E-1,1.609576344E0,-6.568521500E0,7.215168476E0,9.889128720E0
1.147250650E-1,1.614364505E0,-6.594856262E0,7.203197956E0,9.898705101E0
1.171324610E-1,1.597605824E0,-6.592462540E0,7.210380554E0,9.899620924E0
1.195395440E-1,1.626335025E0,-6.587673664E0,7.224744797E0,9.911576428E0
1.219462110E-1,1.626335025E0,-6.578097820E0,7.239109516E0,9.915696805E0
1.243532940E-1,1.619152665E0,-6.578097820E0,7.243897438E0,9.918017765E0
1.267599090E-1,1.616758704E0,-6.561338902E0,7.236715317E0,9.901268882E0
1.291661590E-1,1.662246585E0,-6.566127300E0,7.255867958E0,9.925961478E0
1.315727740E-1,1.631123185E0,-6.570915222E0,7.258262157E0,9.925717065E0
1.339793880E-1,1.650276065E0,-6.558944702E0,7.253473759E0,9.917461785E0
1.363864190E-1,1.643093705E0,-6.573309422E0,7.246292114E0,9.920529375E0
1.387932940E-1,1.655064106E0,-6.570915222E0,7.251080036E0,9.924430752E0
1.411998050E-1,1.650276065E0,-6.554156780E0,7.231926918E0,9.898542779E0
1.436068360E-1,1.659852386E0,-6.556550980E0,7.246292114E0,9.912225789E0
1.460134510E-1,1.669428825E0,-6.578097820E0,7.229532719E0,9.915871463E0
1.484197010E-1,1.652670026E0,-6.566127300E0,7.229532719E0,9.905124394E0
1.508263670E-1,1.640699506E0,-6.575703144E0,7.260656357E0,9.932215133E0
1.532331380E-1,1.647881866E0,-6.594856262E0,7.270232201E0,9.953085954E0
1.556400130E-1,1.626335025E0,-6.573309422E0,7.265444279E0,9.931769376E0
1.580461590E-1,1.621546745E0,-6.599644184E0,7.258262157E0,9.943192986E0
1.604520970E-1,1.623940945E0,-6.602038860E0,7.239109516E0,9.931203748E0
1.628586590E-1,1.621546745E0,-6.587673664E0,7.258262157E0,9.935251768E0
1.652649090E-1,1.595211625E0,-6.587673664E0,7.236715317E0,9.915250527E0
1.676711070E-1,1.614364505E0,-6.597250462E0,7.246292114E0,9.931698536E0
1.700776170E-1,1.559300303E0,-6.599644184E0,7.251080036E0,9.927984815E0
1.724842320E-1,1.576058865E0,-6.597250462E0,7.229532719E0,9.913315214E0
1.748912110E-1,1.544935703E0,-6.609220982E0,7.239109516E0,9.923373161E0
1.772978780E-1,1.544935703E0,-6.623585224E0,7.239109516E0,9.932945894E0
1.797043360E-1,1.578453064E0,-6.599644184E0,7.186439514E0,9.883912703E0
1.821114190E-1,1.525782943E0,-6.611614704E0,7.363602161E0,1.001319626E1
1.845181380E-1,1.571270823E0,-6.590068340E0,7.234321594E0,9.911271445E0
1.869245440E-1,1.535359263E0,-6.590068340E0,6.999699593E0,9.735611084E0
1.893313150E-1,1.504235864E0,-6.611614704E0,7.622165203E0,1.020164579E1
1.917381900E-1,1.511418343E0,-6.578097820E0,6.939846992E0,9.680766117E0
1.941451690E-1,1.509024143E0,-6.587673664E0,7.480913162E0,1.008160007E1
1.965516280E-1,1.511418343E0,-6.575703144E0,7.234321594E0,9.892404469E0
1.989582420E-1,1.494659543E0,-6.580492020E0,7.078704834E0,9.779823337E0
2.013653780E-1,1.477900863E0,-6.597250462E0,7.528795242E0,1.011882713E1
2.037716800E-1,1.501841903E0,-6.556550980E0,6.923088551E0,9.652618553E0
2.061776170E-1,1.465930462E0,-6.563732624E0,7.473731041E0,1.005426247E1
2.085842320E-1,1.492265463E0,-6.566127300E0,7.169680595E0,9.835913978E0
2.109910550E-1,1.480295062E0,-6.542186260E0,7.150527954E0,9.804158534E0
2.133986070E-1,1.482689023E0,-6.556550980E0,7.502460480E0,1.007341257E1
2.158056900E-1,1.485083103E0,-6.525427341E0,6.918299675E0,9.625463324E0
2.182120970E-1,1.456354022E0,-6.546974182E0,7.555130482E0,1.010266473E1
2.206192840E-1,1.477900863E0,-6.532609940E0,7.105040073E0,9.764260240E0
2.230262110E-1,1.461142182E0,-6.544580460E0,7.241503239E0,9.869439651E0
2.254328780E-1,1.465930462E0,-6.518245220E0,7.480913162E0,1.002998179E1
2.278397530E-1,1.497053623E0,-6.520639420E0,6.970970154E0,9.662004599E0
2.302464190E-1,1.461142182E0,-6.515851021E0,7.598224163E0,1.011554553E1
2.326534510E-1,1.494659543E0,-6.508668900E0,7.054763794E0,9.714240587E0
2.350600650E-1,1.456354022E0,-6.527821541E0,7.303750038E0,9.903443125E0
2.374662110E-1,1.463536263E0,-6.496698380E0,7.413878441E0,9.965672168E0
2.398731380E-1,1.441989422E0,-6.501486301E0,6.999699593E0,9.661493260E0
2.422794400E-1,1.446777582E0,-6.537397861E0,7.576677322E0,1.011122027E1
2.446854300E-1,1.470718503E0,-6.508668900E0,7.011670113E0,9.679323402E0
2.470920970E-1,1.434807062E0,-6.535003662E0,7.380361557E0,9.961660548E0
2.494989720E-1,1.437201142E0,-6.501486301E0,7.344449997E0,9.913416011E0
2.519061590E-1,1.408472061E0,-6.499092102E0,7.026034355E0,9.674045196E0
2.543128780E-1,1.403683782E0,-6.523033142E0,7.593435764E0,1.010843985E1
2.567191280E-1,1.437201142E0,-6.532609940E0,6.954211235E0,9.648916709E0
2.591258470E-1,1.389319181E0,-6.537397861E0,7.428243160E0,9.992325807E0
2.615323570E-1,1.427624822E0,-6.537397861E0,7.270232201E0,9.880888608E0
2.639386590E-1,1.430018902E0,-6.530215740E0,7.059551716E0,9.722445274E0
2.663453780E-1,1.427624822E0,-6.544580460E0,7.571888924E0,1.010955726E1
2.687518360E-1,1.458747983E0,-6.525427341E0,6.925482273E0,9.626601289E0
2.711586590E-1,1.425230622E0,-6.544580460E0,7.490489960E0,1.004839567E1
2.735655860E-1,1.468324542E0,-6.508668900E0,7.219956398E0,9.830896103E0
2.759718880E-1,1.470718503E0,-6.518245220E0,7.121798515E0,9.765784544E0
2.783785030E-1,1.480295062E0,-6.515851021E0,7.540765762E0,1.007525366E1
2.807849090E-1,1.528176904E0,-6.499092102E0,6.923088551E0,9.617831246E0
2.831915760E-1,1.497053623E0,-6.506274700E0,7.495277882E0,1.003752811E1
2.855988670E-1,1.542541504E0,-6.482333660E0,7.126586914E0,9.756450431E0
2.880058990E-1,1.542541504E0,-6.499092102E0,7.167286396E0,9.797327530E0
2.904129820E-1,1.571270823E0,-6.491909981E0,7.459366322E0,1.001278848E1
2.928199090E-1,1.585635304E0,-6.489515781E0,6.889570713E0,9.596574337E0
2.952265240E-1,1.561694264E0,-6.527821541E0,7.555130482E0,1.010600513E1
2.976335550E-1,1.614364505E0,-6.487122059E0,7.102645874E0,9.753794327E0
3.000400130E-1,1.623940945E0,-6.508668900E0,7.291779518E0,9.908077693E0
3.024462110E-1,1.647881866E0,-6.501486301E0,7.492883682E0,1.005624903E1
3.048528780E-1,1.659852386E0,-6.472757339E0,6.985334873E0,9.666778202E0
3.072594400E-1,1.667034626E0,-6.489515781E0,7.638923645E0,1.016100261E1
3.096663670E-1,1.695763946E0,-6.465574741E0,7.033216953E0,9.702855910E0
3.120729820E-1,1.705340266E0,-6.465574741E0,7.342055321E0,9.930640387E0
3.144795440E-1,1.724493027E0,-6.458392620E0,7.361208439E0,9.943445133E0
3.168868880E-1,1.738857627E0,-6.465574741E0,6.990122795E0,9.679312955E0
3.192938150E-1,1.743645787E0,-6.494304180E0,7.607800484E0,1.015356665E1
3.217007420E-1,1.769980907E0,-6.467968941E0,7.002093315E0,9.695192903E0
3.241079820E-1,1.762798667E0,-6.489515781E0,7.428243160E0,1.001998357E1
3.265147010E-1,1.789133668E0,-6.451210499E0,7.373178959E0,9.959060405E0
3.289216280E-1,1.798710108E0,-6.463181019E0,7.107433796E0,9.773621749E0
3.313281380E-1,1.798710108E0,-6.479939461E0,7.686805725E0,1.021332246E1
3.337342320E-1,1.846592069E0,-6.460786819E0,7.054763794E0,9.742759403E0
3.361411590E-1,1.829833388E0,-6.477545261E0,7.550342560E0,1.011506577E1
3.385478780E-1,1.868138909E0,-6.460786819E0,7.356420517E0,9.967378398E0
3.409541800E-1,1.865744948E0,-6.465574741E0,7.172074318E0,9.834801013E0
3.433608990E-1,1.870533109E0,-6.499092102E0,7.665258884E0,1.022219575E1
3.457677220E-1,1.887291789E0,-6.479939461E0,7.002093315E0,9.725265884E0
3.481746490E-1,1.858562589E0,-6.489515781E0,7.571888924E0,1.014404120E1
3.505810550E-1,1.904050469E0,-6.484727859E0,7.267838478E0,9.924645069E0
3.529870970E-1,1.858562589E0,-6.477545261E0,7.217562199E0,9.874515259E0
3.553940240E-1,1.868138909E0,-6.499092102E0,7.603012562E0,1.017516295E1
3.578007420E-1,1.889685988E0,-6.499092102E0,6.997305393E0,9.735060044E0
3.602073050E-1,1.813074708E0,-6.527821541E0,7.619771004E0,1.019610730E1
3.626141280E-1,1.829833388E0,-6.518245220E0,7.169680595E0,9.861041062E0
3.650206380E-1,1.829833388E0,-6.535003662E0,7.251080036E0,9.931400948E0
3.674275650E-1,1.827439308E0,-6.544580460E0,7.528795242E0,1.014168751E1
3.698342320E-1,1.834621549E0,-6.527821541E0,6.963788033E0,9.719703394E0
3.722405860E-1,1.786739707E0,-6.561338902E0,7.634135723E0,1.022368012E1
3.746478780E-1,1.810680628E0,-6.546974182E0,7.054763794E0,9.793422663E0
3.770547010E-1,1.755616307E0,-6.563732624E0,7.301355839E0,9.973693983E0
3.794608470E-1,1.760404587E0,-6.585279942E0,7.430637360E0,1.008361581E1
3.818673050E-1,1.750828147E0,-6.568521500E0,6.930270195E0,9.707704099E0
3.842741280E-1,1.714916706E0,-6.585279942E0,7.562313080E0,1.017327039E1
3.866816280E-1,1.726887107E0,-6.542186260E0,6.949423313E0,9.699320828E0
3.890885030E-1,1.690975666E0,-6.568521500E0,7.301355839E0,9.965674612E0
3.914950650E-1,1.707734466E0,-6.537397861E0,7.318114281E0,9.960357646E0
3.939023050E-1,1.702946186E0,-6.508668900E0,6.915905952E0,9.648448150E0
3.963091800E-1,1.688581586E0,-6.508668900E0,7.485701561E0,1.006229628E1
3.987159510E-1,1.719704866E0,-6.463181019E0,6.875206470E0,9.591587862E0
4.011230340E-1,1.700551987E0,-6.475151539E0,7.356420517E0,9.946677201E0
4.035298570E-1,1.738857627E0,-6.439239979E0,7.222351074E0,9.831062628E0
4.059369920E-1,1.712522507E0,-6.446422100E0,7.026034355E0,9.687840316E0
4.083437110E-1,1.679005146E0,-6.436845779E0,7.543159962E0,1.005740046E1
4.107502220E-1,1.702946186E0,-6.420087337E0,6.887176991E0,9.568215823E0
4.131575650E-1,1.676611066E0,-6.446422100E0,7.425848961E0,9.975500757E0
4.155645440E-1,1.679005146E0,-6.439239979E0,7.150527954E0,9.767953716E0
4.179712110E-1,1.657458305E0,-6.441633701E0,7.059551716E0,9.699437262E0
4.203781380E-1,1.626335025E0,-6.453604221E0,7.478519440E0,1.001110514E1
4.227849610E-1,1.647881866E0,-6.410511017E0,6.865629673E0,9.536615592E0
4.251923570E-1,1.609576344E0,-6.460786819E0,7.500065804E0,1.002913204E1
4.275994400E-1,1.647881866E0,-6.432057858E0,7.109827995E0,9.728131221E0
4.300060030E-1,1.623940945E0,-6.441633701E0,7.109827995E0,9.730441051E0
4.324136070E-1,1.633517265E0,-6.441633701E0,7.456972599E0,9.988466536E0
4.348208990E-1,1.614364505E0,-6.448816299E0,6.879994392E0,9.567012452E0
4.372273050E-1,1.611970425E0,-6.463181019E0,7.524006844E0,1.004897191E1
4.396339720E-1,1.638305545E0,-6.453604221E0,7.023640156E0,9.678045957E0
4.420406900E-1,1.585635304E0,-6.479939461E0,7.246292114E0,9.849497659E0
4.444476170E-1,1.604788184E0,-6.475151539E0,7.445002079E0,9.996548831E0
4.468539720E-1,1.578453064E0,-6.467968941E0,6.925482273E0,9.606687307E0
4.492599090E-1,1.523388743E0,-6.508668900E0,7.605406284E0,1.012549697E1
4.516665760E-1,1.549723744E0,-6.479939461E0,7.026034355E0,9.682789777E0
4.540730340E-1,1.528176904E0,-6.513456821E0,7.320508957E0,9.917171764E0
4.564792320E-1,1.528176904E0,-6.511062622E0,7.387543201E0,9.965192204E0
4.588860030E-1,1.535359263E0,-6.496698380E0,6.975758553E0,9.655341801E0
4.612928260E-1,1.516206384E0,-6.518245220E0,7.586253643E0,1.011620714E1
4.636999090E-1,1.552117944E0,-6.487122059E0,6.978152275E0,9.653311965E0
4.661065240E-1,1.499447823E0,-6.520639420E0,7.411484241E0,9.984847564E0
4.685128260E-1,1.518600583E0,-6.472757339E0,7.308538437E0,9.880155332E0
4.709200130E-1,1.506630063E0,-6.489515781E0,7.040399551E0,9.692831117E0
4.733267320E-1,1.501841903E0,-6.501486301E0,7.624559402E0,1.013206590E1
4.757325130E-1,1.499447823E0,-6.475151539E0,6.985334873E0,9.642138482E0
4.781386070E-1,1.509024143E0,-6.525427341E0,7.492883682E0,1.004995829E1
4.805451690E-1,1.523388743E0,-6.487122059E0,7.301355839E0,9.885001920E0
4.829520970E-1,1.504235864E0,-6.484727859E0,7.136162758E0,9.759059373E0
4.853585030E-1,1.485083103E0,-6.496698380E0,7.588647842E0,1.009951176E1
4.877645970E-1,1.509024143E0,-6.475151539E0,6.949423313E0,9.617651777E0
4.901715760E-1,1.477900863E0,-6.499092102E0,7.507248402E0,1.003898240E1
4.925783470E-1,1.528176904E0,-6.487122059E0,7.145739555E0,9.771369968E0
4.949849090E-1,1.494659543E0,-6.511062622E0,7.102645874E0,9.750667774E0
4.973915760E-1,1.513812423E0,-6.513456821E0,7.507248402E0,1.005363250E1
4.997980860E-1,1.518600583E0,-6.508668900E0,6.856053352E0,9.574674206E0
5.022048570E-1,1.501841903E0,-6.515851021E0,7.488095284E0,1.003909431E1
5.046112110E-1,1.520994663E0,-6.511062622E0,7.057157993E0,9.721668590E0
5.070171490E-1,1.482689023E0,-6.532609940E0,7.140951157E0,9.791146142E0
5.094238670E-1,1.465930462E0,-6.535003662E0,7.440213680E0,1.001059462E1
5.118302220E-1,1.477900863E0,-6.525427341E0,6.875206470E0,9.593427800E0
5.142362630E-1,1.470718503E0,-6.554156780E0,7.514431000E0,1.007902065E1
5.166428780E-1,1.482689023E0,-6.542186260E0,7.004487991E0,9.698526683E0
5.190497010E-1,1.473112702E0,-6.556550980E0,7.210380554E0,9.856368982E0
5.214567840E-1,1.489871383E0,-6.539792061E0,7.337267399E0,9.941030622E0
5.238631380E-1,1.504235864E0,-6.530215740E0,6.870418549E0,9.597348289E0
5.262691800E-1,1.492265463E0,-6.554156780E0,7.504854202E0,1.007505156E1
5.286762110E-1,1.542541504E0,-6.515851021E0,6.932664871E0,9.638339641E0
5.310826170E-1,1.552117944E0,-6.523033142E0,7.248685837E0,9.874334299E0
5.334883990E-1,1.564088464E0,-6.523033142E0,7.298962116E0,9.913182237E0
5.358946490E-1,1.588029385E0,-6.503880501E0,6.923088551E0,9.630755628E0
5.383012110E-1,1.580847144E0,-6.515851021E0,7.540765762E0,1.009051736E1
5.407082420E-1,1.614364505E0,-6.494304180E0,6.911118031E0,9.620068190E0
5.431151170E-1,1.583241105E0,-6.530215740E0,7.368391037E0,9.972139012E0
5.455214190E-1,1.614364505E0,-6.513456821E0,7.241503239E0,9.872723113E0
5.479280340E-1,1.638305545E0,-6.523033142E0,7.002093315E0,9.708929767E0
5.503342320E-1,1.633517265E0,-6.546974182E0,7.547947884E0,1.012436501E1
5.527401690E-1,1.657458305E0,-6.523033142E0,6.896753311E0,9.636510553E0
5.551464720E-1,1.640699506E0,-6.558944702E0,7.425848961E0,1.004265320E1
5.575529300E-1,1.683793426E0,-6.537397861E0,7.162498474E0,9.842464909E0
5.599598050E-1,1.674216866E0,-6.551762104E0,7.006881714E0,9.737811876E0
5.623661070E-1,1.681399345E0,-6.563732624E0,7.483307362E0,1.009502743E1
5.647717320E-1,1.681399345E0,-6.527821541E0,6.841689110E0,9.604596176E0
5.671782420E-1,1.657458305E0,-6.566127300E0,7.430637360E0,1.005363453E1
5.695848050E-1,1.686187387E0,-6.551762104E0,7.071522236E0,9.786482581E0
5.719913670E-1,1.669428825E0,-6.575703144E0,7.059551716E0,9.791023178E0
5.743982420E-1,1.676611066E0,-6.590068340E0,7.449790001E0,1.008659489E1
5.768051170E-1,1.681399345E0,-6.561338902E0,6.865629673E0,9.644435844E0
5.792122010E-1,1.652670026E0,-6.602038860E0,7.485701561E0,1.011701355E1
5.816187630E-1,1.686187387E0,-6.568521500E0,7.045187473E0,9.778720219E0
5.840252740E-1,1.659852386E0,-6.597250462E0,7.162498474E0,9.878269483E0
5.864325650E-1,1.683793426E0,-6.580492020E0,7.413878441E0,1.005503004E1
5.888393360E-1,1.676611066E0,-6.580492020E0,6.875206470E0,9.663455070E0
5.912459510E-1,1.671822906E0,-6.625979900E0,7.535977364E0,1.017298168E1
5.936530860E-1,1.714916706E0,-6.597250462E0,6.994911194E0,9.766956311E0
5.960598570E-1,1.662246585E0,-6.597250462E0,7.246292114E0,9.939593893E0
5.984666800E-1,1.690975666E0,-6.604433060E0,7.368391037E0,1.003848202E1
6.008731380E-1,1.695763946E0,-6.621191502E0,6.896753311E0,9.709840292E0
6.032795440E-1,1.674216866E0,-6.616403103E0,7.564706802E0,1.018845332E1
6.056868880E-1,1.710128427E0,-6.582885742E0,6.997305393E0,9.758135411E0
6.080936070E-1,1.700551987E0,-6.621191502E0,7.370784760E0,1.005288625E1
6.104994920E-1,1.698157907E0,-6.599644184E0,7.346843719E0,1.002073631E1
6.129056380E-1,1.710128427E0,-6.611614704E0,7.021246433E0,9.794686810E0
6.153121490E-1,1.681399345E0,-6.614009380E0,7.605406284E0,1.021833786E1
6.177192320E-1,1.710128427E0,-6.594856262E0,6.980546951E0,9.754214684E0
6.201256380E-1,1.698157907E0,-6.618797302E0,7.435425282E0,1.009840419E1
6.225317320E-1,1.698157907E0,-6.625979900E0,7.277414799E0,9.987397863E0
6.249387110E-1,1.705340266E0,-6.609220982E0,7.069128513E0,9.826625328E0
6.273453260E-1,1.679005146E0,-6.606826782E0,7.579071522E0,1.019370117E1
6.297517320E-1,1.702946186E0,-6.587673664E0,6.942240715E0,9.720708625E0
6.321583470E-1,1.676611066E0,-6.614009380E0,7.488095284E0,1.013053383E1
6.345646490E-1,1.688581586E0,-6.599644184E0,7.241503239E0,9.942131577E0
6.369713150E-1,1.674216866E0,-6.582885742E0,7.157710075E0,9.867633979E0
6.393774090E-1,1.659852386E0,-6.590068340E0,7.593435764E0,1.019040614E1
6.417831380E-1,1.671822906E0,-6.558944702E0,6.968576431E0,9.714721041E0
6.441897010E-1,1.650276065E0,-6.587673664E0,7.624559402E0,1.021052210E1
6.465956380E-1,1.681399345E0,-6.573309422E0,7.248685837E0,9.928693110E0
6.490013150E-1,1.662246585E0,-6.592462540E0,7.279808998E0,9.960885759E0
6.514075130E-1,1.671822906E0,-6.558944702E0,7.626953602E0,1.019731184E1
6.538137630E-1,1.679005146E0,-6.563732624E0,7.004487991E0,9.744972871E0
6.562205860E-1,1.667034626E0,-6.590068340E0,7.674835205E0,1.025237049E1
6.586271490E-1,1.690975666E0,-6.532609940E0,7.157710075E0,9.837032319E0
6.610334510E-1,1.671822906E0,-6.549368382E0,7.303750038E0,9.951581917E0
6.634402740E-1,1.679005146E0,-6.554156780E0,7.524006844E0,1.011863174E1
6.658467840E-1,1.700551987E0,-6.535003662E0,7.002093315E0,9.727664710E0
6.682530340E-1,1.664640546E0,-6.554156780E0,7.624559402E0,1.019126613E1
6.706595440E-1,1.676611066E0,-6.515851021E0,7.078704834E0,9.766033039E0
6.730660030E-1,1.657458305E0,-6.532609940E0,7.351631641E0,9.973397036E0
6.754725650E-1,1.676611066E0,-6.518245220E0,7.473731041E0,1.005759420E1
6.778787630E-1,1.655064106E0,-6.532609940E0,7.042793274E0,9.747572360E0
6.802845970E-1,1.640699506E0,-6.527821541E0,7.397119999E0,1.000108660E1
6.826910550E-1,1.635911465E0,-6.530215740E0,7.339661598E0,9.959445582E0
6.850970970E-1,1.626335025E0,-6.527821541E0,7.361208439E0,9.972201831E0
6.875029820E-1,1.626335025E0,-6.501486301E0,7.289385319E0,9.901991116E0
6.899092840E-1,1.626335025E0,-6.506274700E0,7.315720558E0,9.924532401E0
6.923158990E-1,1.611970425E0,-6.496698380E0,7.263050556E0,9.877117083E0
6.947230860E-1,1.611970425E0,-6.506274700E0,7.263050556E0,9.883418564E0
6.971297010E-1,1.611970425E0,-6.496698380E0,7.236715317E0,9.857767854E0
6.995356900E-1,1.578453064E0,-6.494304180E0,7.207985878E0,9.829677577E0
7.019421490E-1,1.607182145E0,-6.487122059E0,7.179256916E0,9.808543058E0
7.043483470E-1,1.597605824E0,-6.503880501E0,7.198410034E0,9.832085891E0
7.067540760E-1,1.619152665E0,-6.487122059E0,7.184044838E0,9.814015905E0
7.091602740E-1,1.576058865E0,-6.477545261E0,7.162498474E0,9.784883165E0
7.115665240E-1,1.597605824E0,-6.489515781E0,7.162498474E0,9.796302560E0
7.139729300E-1,1.609576344E0,-6.494304180E0,7.160103798E0,9.799684137E0
7.163792320E-1,1.599999905E0,-6.477545261E0,7.167286396E0,9.792271779E0
7.187855340E-1,1.609576344E0,-6.465574741E0,7.181651115E0,9.796453720E0
7.211925130E-1,1.580847144E0,-6.475151539E0,7.188833237E0,9.803366179E0
7.235989190E-1,1.604788184E0,-6.465574741E0,7.186439514E0,9.799179289E0
7.260050650E-1,1.628728986E0,-6.487122059E0,7.176862717E0,9.810345008E0
7.284116800E-1,1.597605824E0,-6.458392620E0,7.155315876E0,9.770451622E0
7.308185030E-1,1.619152665E0,-6.472757339E0,7.176862717E0,9.799265349E0
7.332258990E-1,1.607182145E0,-6.470363140E0,7.172074318E0,9.792205249E0
7.356325650E-1,1.609576344E0,-6.479939461E0,7.179256916E0,9.804186927E0
7.380387630E-1,1.619152665E0,-6.484727859E0,7.200803757E0,9.824709945E0
7.404460550E-1,1.633517265E0,-6.472757339E0,7.188833237E0,9.810417399E0
7.428529820E-1,1.635911465E0,-6.479939461E0,7.179256916E0,9.808544826E0
7.452592320E-1,1.638305545E0,-6.499092102E0,7.181651115E0,9.823357672E0
7.476658470E-1,1.638305545E0,-6.487122059E0,7.184044838E0,9.817193993E0
7.500723050E-1,1.645487785E0,-6.491909981E0,7.205591679E0,9.837330771E0
7.524792320E-1,1.638305545E0,-6.477545261E0,7.222351074E0,9.838952826E0
7.548859510E-1,1.662246585E0,-6.472757339E0,7.234321594E0,9.848607019E0
7.572920970E-1,1.628728986E0,-6.520639420E0,7.222351074E0,9.865791990E0
7.596989190E-1,1.643093705E0,-6.501486301E0,7.227138996E0,9.859037434E0
7.621054300E-1,1.650276065E0,-6.491909981E0,7.224744797E0,9.852169490E0
7.645114720E-1,1.657458305E0,-6.494304180E0,7.191227436E0,9.830407258E0
7.669178780E-1,1.669428825E0,-6.501486301E0,7.203197956E0,9.845932029E0
7.693244400E-1,1.652670026E0,-6.506274700E0,7.210380554E0,9.851523559E0
7.717314190E-1,1.655064106E0,-6.506274700E0,7.246292114E0,9.878238561E0
7.741382420E-1,1.647881866E0,-6.479939461E0,7.260656357E0,9.870271566E0
7.765447530E-1,1.640699506E0,-6.499092102E0,7.255867958E0,9.878143188E0
7.789519920E-1,1.657458305E0,-6.494304180E0,7.255867958E0,9.877791992E0
7.813587630E-1,1.652670026E0,-6.487122059E0,7.258262157E0,9.874028578E0
7.837651170E-1,1.633517265E0,-6.494304180E0,7.236715317E0,9.859737016E0
7.861720440E-1,1.640699506E0,-6.479939461E0,7.236715317E0,9.851474959E0
7.885788670E-1,1.640699506E0,-6.484727859E0,7.243897438E0,9.859900627E0
7.909859510E-1,1.671822906E0,-6.499092102E0,7.239109516E0,9.871063598E0
7.933927220E-1,1.652670026E0,-6.494304180E0,7.239109516E0,9.864685073E0
7.957992840E-1,1.645487785E0,-6.484727859E0,7.239109516E0,9.857181750E0
7.982067320E-1,1.631123185E0,-6.463181019E0,7.231926918E0,9.835346393E0
8.006137110E-1,1.659852386E0,-6.496698380E0,7.231926918E0,9.862198879E0
8.030200650E-1,1.643093705E0,-6.503880501E0,7.229532719E0,9.862371004E0
8.054266280E-1,1.633517265E0,-6.489515781E0,7.248685837E0,9.865375821E0
8.078332420E-1,1.621546745E0,-6.511062622E0,7.231926918E0,9.865298640E0
8.102401170E-1,1.631123185E0,-6.482333660E0,7.229532719E0,9.846184838E0
8.126461590E-1,1.607182145E0,-6.487122059E0,7.231926918E0,9.847159692E0
8.150516800E-1,1.621546745E0,-6.501486301E0,7.241503239E0,9.866007659E0
8.174585030E-1,1.623940945E0,-6.508668900E0,7.255867958E0,9.881678747E0
8.198648050E-1,1.623940945E0,-6.503880501E0,7.265444279E0,9.885561508E0
8.222703260E-1,1.631123185E0,-6.515851021E0,7.286991596E0,9.910455282E0
8.246763670E-1,1.609576344E0,-6.508668900E0,7.289385319E0,9.903971182E0
8.270828260E-1,1.592817664E0,-6.523033142E0,7.272626877E0,9.898390332E0
8.294897530E-1,1.616758704E0,-6.527821541E0,7.270232201E0,9.903667958E0
8.318960030E-1,1.599999905E0,-6.544580460E0,7.275021076E0,9.915516363E0
8.343017320E-1,1.602393985E0,-6.551762104E0,7.277414799E0,9.922399876E0
8.367081900E-1,1.599999905E0,-6.539792061E0,7.277414799E0,9.914113478E0
8.391141280E-1,1.602393985E0,-6.570915222E0,7.277414799E0,9.935057096E0
8.415198570E-1,1.619152665E0,-6.542186260E0,7.258262157E0,9.904757744E0
8.439261590E-1,1.614364505E0,-6.551762104E0,7.248685837E0,9.903292674E0
8.463325130E-1,1.652670026E0,-6.551762104E0,7.277414799E0,9.930643032E0
8.487393880E-1,1.635911465E0,-6.549368382E0,7.270232201E0,9.921023575E0
8.511457940E-1,1.643093705E0,-6.578097820E0,7.246292114E0,9.923702800E0
8.535516800E-1,1.664640546E0,-6.544580460E0,7.241503239E0,9.901612530E0
8.559582940E-1,1.628728986E0,-6.566127300E0,7.210380554E0,9.887182287E0
8.583647010E-1,1.614364505E0,-6.561338902E0,7.229532719E0,9.895629554E0
8.607708990E-1,1.616758704E0,-6.597250462E0,7.203197956E0,9.900691044E0
8.631774610E-1,1.604788184E0,-6.582885742E0,7.207985878E0,9.892663455E0
8.655838150E-1,1.628728986E0,-6.573309422E0,7.207985878E0,9.890208050E0
8.679903780E-1,1.607182145E0,-6.604433060E0,7.215168476E0,9.912629652E0
8.703966280E-1,1.611970425E0,-6.614009380E0,7.205591679E0,9.912826044E0
8.728025650E-1,1.626335025E0,-6.606826782E0,7.200803757E0,9.906901659E0
8.752092840E-1,1.614364505E0,-6.599644184E0,7.181651115E0,9.886232288E0
8.776156380E-1,1.621546745E0,-6.604433060E0,7.160103798E0,9.874970192E0
8.800213670E-1,1.609576344E0,-6.582885742E0,7.164892197E0,9.862089073E0
8.824273050E-1,1.626335025E0,-6.599644184E0,7.186439514E0,9.891672349E0
8.848333990E-1,1.643093705E0,-6.585279942E0,7.188833237E0,9.886606705E0
8.872400130E-1,1.650276065E0,-6.587673664E0,7.193621159E0,9.892878285E0
8.896463150E-1,1.652670026E0,-6.570915222E0,7.176862717E0,9.869934322E0
8.920521490E-1,1.662246585E0,-6.585279942E0,7.200803757E0,9.898512533E0
8.944585550E-1,1.657458305E0,-6.582885742E0,7.219956398E0,9.910061711E0
8.968643360E-1,1.633517265E0,-6.580492020E0,7.196015358E0,9.887056736E0
8.992698570E-1,1.633517265E0,-6.566127300E0,7.210380554E0,9.887972194E0
9.016760030E-1,1.611970425E0,-6.580492020E0,7.200803757E0,9.887006555E0
9.040824090E-1,1.607182145E0,-6.587673664E0,7.222351074E0,9.906706506E0
9.064891280E-1,1.611970425E0,-6.599644184E0,7.219956398E0,9.913703768E0
9.088953780E-1,1.614364505E0,-6.592462540E0,7.212774277E0,9.904082383E0
9.113013150E-1,1.616758704E0,-6.561338902E0,7.219956398E0,9.889026609E0
9.137080860E-1,1.599999905E0,-6.570915222E0,7.239109516E0,9.906645908E0
9.161142840E-1,1.607182145E0,-6.599644184E0,7.234321594E0,9.923393912E0
9.185202740E-1,1.607182145E0,-6.580492020E0,7.224744797E0,9.903678460E0
9.209266280E-1,1.599999905E0,-6.587673664E0,7.258262157E0,9.931757828E0
9.233327220E-1,1.602393985E0,-6.570915222E0,7.229532719E0,9.900037205E0
9.257394920E-1,1.597605824E0,-6.573309422E0,7.246292114E0,9.913096919E0
9.281460550E-1,1.607182145E0,-6.578097820E0,7.227138996E0,9.903834785E0
9.305519400E-1,1.628728986E0,-6.558944702E0,7.215168476E0,9.885907639E0
9.329588150E-1,1.611970425E0,-6.578097820E0,7.219956398E0,9.899373211E0
9.353652740E-1,1.604788184E0,-6.573309422E0,7.210380554E0,9.888039725E0
9.377713670E-1,1.623940945E0,-6.558944702E0,7.205591679E0,9.878131971E0
9.401777740E-1,1.607182145E0,-6.556550980E0,7.203197956E0,9.872054294E0
9.425841280E-1,1.616758704E0,-6.573309422E0,7.179256916E0,9.867321588E0
9.449909510E-1,1.595211625E0,-6.561338902E0,7.224744797E0,9.889024506E0
9.473975130E-1,1.573664784E0,-6.549368382E0,7.198410034E0,9.858384963E0
9.498036070E-1,1.578453064E0,-6.566127300E0,7.205591679E0,9.875530023E0
9.522101690E-1,1.607182145E0,-6.558944702E0,7.198410034E0,9.870151826E0
9.546162110E-1,1.588029385E0,-6.570915222E0,7.210380554E0,9.883741798E0
9.570220440E-1,1.571270823E0,-6.546974182E0,7.198410034E0,9.856412631E0
9.594281380E-1,1.578453064E0,-6.575703144E0,7.217562199E0,9.890631426E0
9.618341280E-1,1.597605824E0,-6.568521500E0,7.203197956E0,9.878455338E0
9.642406900E-1,1.602393985E0,-6.556550980E0,7.207985878E0,9.874770258E0
9.666469920E-1,1.592817664E0,-6.532609940E0,7.234321594E0,9.876612256E0
9.690528780E-1,1.585635304E0,-6.542186260E0,7.219956398E0,9.871282124E0
9.714596490E-1,1.633517265E0,-6.537397861E0,7.236715317E0,9.888174656E0
9.738662110E-1,1.626335025E0,-6.535003662E0,7.251080036E0,9.895928464E0
9.762720970E-1,1.621546745E0,-6.539792061E0,7.246292114E0,9.894798808E0
9.786783990E-1,1.621546745E0,-6.544580460E0,7.260656357E0,9.908485150E0
9.810845970E-1,1.616758704E0,-6.542186260E0,7.241503239E0,9.892091737E0
9.834908990E-1,1.623940945E0,-6.542186260E0,7.229532719E0,9.884509527E0
9.858968360E-1,1.628728986E0,-6.537397861E0,7.236715317E0,9.887384765E0
9.883025650E-1,1.623940945E0,-6.525427341E0,7.248685837E0,9.887458346E0
9.907091800E-1,1.631123185E0,-6.561338902E0,7.236715317E0,9.903624569E0
9.931154300E-1,1.638305545E0,-6.535003662E0,7.260656357E0,9.904920426E0
9.955212110E-1,1.626335025E0,-6.537397861E0,7.251080036E0,9.897509692E0
9.979273570E-1,1.623940945E0,-6.544580460E0,7.263050556E0,9.910631714E0
1.000333399E0,1.631123185E0,-6.546974182E0,7.255867958E0,9.908130682E0
1.002739753E0,1.647881866E0,-6.542186260E0,7.246292114E0,9.900730534E0
1.005145899E0,1.628728986E0,-6.542186260E0,7.286991596E0,9.927396723E0
1.007551940E0,1.604788184E0,-6.542186260E0,7.248685837E0,9.895402596E0
1.009958815E0,1.619152665E0,-6.556550980E0,7.239109516E0,9.900238517E0
1.012365065E0,1.616758704E0,-6.532609940E0,7.234321594E0,9.880501519E0
1.014771055E0,1.635911465E0,-6.556550980E0,7.251080036E0,9.911747008E0
1.017177722E0,1.599999905E0,-6.573309422E0,7.246292114E0,9.913483033E0
1.019584492E0,1.595211625E0,-6.549368382E0,7.270232201E0,9.914393707E0
1.021991367E0,1.602393985E0,-6.561338902E0,7.258262157E0,9.914696375E0
1.024397617E0,1.604788184E0,-6.554156780E0,7.253473759E0,9.906825818E0
1.026803399E0,1.616758704E0,-6.563732624E0,7.248685837E0,9.911606380E0
1.029209857E0,1.599999905E0,-6.539792061E0,7.241503239E0,9.887782818E0
1.031616003E0,1.616758704E0,-6.554156780E0,7.210380554E0,9.877270248E0
1.034021784E0,1.633517265E0,-6.556550980E0,7.239109516E0,9.902597942E0
1.036427930E0,1.619152665E0,-6.542186260E0,7.198410034E0,9.860981870E0
1.038834024E0,1.614364505E0,-6.546974182E0,7.196015358E0,9.861626678E0
1.041240482E0,1.631123185E0,-6.525427341E0,7.186439514E0,9.843103054E0
1.043646628E0,1.638305545E0,-6.523033142E0,7.200803757E0,9.853201570E0
1.046052565E0,1.623940945E0,-6.535003662E0,7.188833237E0,9.850014231E0
1.048459440E0,1.628728986E0,-6.542186260E0,7.203197956E0,9.866053921E0
1.050865742E0,1.611970425E0,-6.525427341E0,7.205591679E0,9.853943479E0
1.053271576E0,1.621546745E0,-6.520639420E0,7.212774277E0,9.857599356E0
1.055677826E0,1.607182145E0,-6.532609940E0,7.215168476E0,9.864921855E0
1.058083972E0,1.602393985E0,-6.532609940E0,7.203197956E0,9.855390398E0
1.060490378E0,1.611970425E0,-6.496698380E0,7.188833237E0,9.822670807E0
1.062896367E0,1.590423584E0,-6.506274700E0,7.172074318E0,9.813241446E0
1.065302201E0,1.588029385E0,-6.520639420E0,7.181651115E0,9.829378847E0
1.067708919E0,1.599999905E0,-6.487122059E0,7.184044838E0,9.810874198E0
1.070115117E0,1.597605824E0,-6.501486301E0,7.150527954E0,9.795494807E0
1.072521003E0,1.611970425E0,-6.501486301E0,7.150527954E0,9.797847866E0
1.074927409E0,1.607182145E0,-6.508668900E0,7.143345356E0,9.796590640E0
1.077333711E0,1.607182145E0,-6.508668900E0,7.179256916E0,9.822806888E0
1.079740326E0,1.599999905E0,-6.491909981E0,7.179256916E0,9.810536416E0
1.082146784E0,1.599999905E0,-6.487122059E0,7.162498474E0,9.795107794E0
1.084552982E0,1.585635304E0,-6.513456821E0,7.193621159E0,9.832982480E0
1.086959909E0,1.585635304E0,-6.511062622E0,7.210380554E0,9.843666163E0
1.089366159E0,1.585635304E0,-6.530215740E0,7.198410034E0,9.847591784E0
1.091771940E0,1.614364505E0,-6.523033142E0,7.205591679E0,9.852750152E0
1.094178034E0,1.602393985E0,-6.513456821E0,7.176862717E0,9.823448717E0
1.096584336E0,1.604788184E0,-6.515851021E0,7.193621159E0,9.837674777E0
1.098990847E0,1.595211625E0,-6.527821541E0,7.203197956E0,9.851051466E0
1.101396680E0,1.611970425E0,-6.518245220E0,7.188833237E0,9.836935128E0
1.103802722E0,1.592817664E0,-6.520639420E0,7.205591679E0,9.847657487E0
1.106209701E0,1.595211625E0,-6.525427341E0,7.227138996E0,9.866987392E0
1.108616003E0,1.621546745E0,-6.523033142E0,7.200803757E0,9.850428923E0
1.111021940E0,1.609576344E0,-6.525427341E0,7.234321594E0,9.874580848E0
1.113428347E0,1.609576344E0,-6.535003662E0,7.215168476E0,9.866897436E0
1.115834753E0,1.614364505E0,-6.544580460E0,7.215168476E0,9.874024624E0
1.118241472E0,1.623940945E0,-6.549368382E0,7.215168476E0,9.878768472E0
1.120647774E0,1.599999905E0,-6.551762104E0,7.231926918E0,9.888698262E0
1.123053711E0,1.619152665E0,-6.556550980E0,7.246292114E0,9.905491684E0
1.125460430E0,1.626335025E0,-6.563732624E0,7.255867958E0,9.918425853E0
1.127866732E0,1.640699506E0,-6.549368382E0,7.227138996E0,9.890281044E0
1.130272826E0,1.635911465E0,-6.542186260E0,7.234321594E0,9.889985658E0
1.132679076E0,1.645487785E0,-6.539792061E0,7.217562199E0,9.877738321E0
1.135085117E0,1.664640546E0,-6.530215740E0,7.196015358E0,9.858873302E0
1.137491836E0,1.652670026E0,-6.511062622E0,7.210380554E0,9.854686318E0
1.139898347E0,1.650276065E0,-6.532609940E0,7.200803757E0,9.861540369E0
1.142304805E0,1.638305545E0,-6.527821541E0,7.210380554E0,9.863370969E0
1.144712097E0,1.633517265E0,-6.549368382E0,7.207985878E0,9.875103304E0
1.147118399E0,1.607182145E0,-6.554156780E0,7.203197956E0,9.870464343E0
1.149524024E0,1.597605824E0,-6.570915222E0,7.205591679E0,9.881792482E0
1.151929857E0,1.592817664E0,-6.575703144E0,7.219956398E0,9.894680911E0
1.154335794E0,1.583241105E0,-6.573309422E0,7.200803757E0,9.877581885E0
1.156742201E0,1.552117944E0,-6.599644184E0,7.330084801E0,9.984714150E0
1.159148242E0,1.568876624E0,-6.602038860E0,7.308538437E0,9.973115113E0
1.161553815E0,1.561694264E0,-6.597250462E0,6.944635391E0,9.705182293E0
1.163960065E0,1.566482544E0,-6.623585224E0,7.545553684E0,1.016174833E1
1.166366159E0,1.583241105E0,-6.585279942E0,6.906329155E0,9.673155985E0
1.168771888E0,1.576058865E0,-6.599644184E0,7.387543201E0,1.003070583E1
1.171177826E0,1.592817664E0,-6.597250462E0,7.267838478E0,9.943955848E0
1.173583867E0,1.611970425E0,-6.597250462E0,6.985334873E0,9.742538971E0
1.175990274E0,1.633517265E0,-6.602038860E0,7.528795242E0,1.014583922E1
1.178396419E0,1.638305545E0,-6.582885742E0,6.915905952E0,9.687527285E0
1.180801940E0,1.628728986E0,-6.594856262E0,7.397119999E0,1.004302103E1
1.183208138E0,1.659852386E0,-6.582885742E0,7.248685837E0,9.931411833E0
1.185614284E0,1.631123185E0,-6.592462540E0,7.028429031E0,9.773430300E0
1.188020169E0,1.619152665E0,-6.618797302E0,7.550342560E0,1.017043784E1
1.190426315E0,1.640699506E0,-6.602038860E0,6.927876472E0,9.709494549E0
1.192832357E0,1.599999905E0,-6.654708862E0,7.459366322E0,1.012360092E1
1.195238867E0,1.614364505E0,-6.633162022E0,7.121798515E0,9.865344660E0
1.197645117E0,1.602393985E0,-6.623585224E0,7.052370071E0,9.806909367E0
1.200050951E0,1.595211625E0,-6.628373623E0,7.476124763E0,1.011792857E1
1.202457461E0,1.626335025E0,-6.609220982E0,6.882388592E0,9.679568189E0
1.204863815E0,1.592817664E0,-6.597250462E0,7.476124763E0,1.009718888E1
1.207269857E0,1.623940945E0,-6.570915222E0,7.059551716E0,9.780152426E0
1.209676211E0,1.626335025E0,-6.549368382E0,7.100251198E0,9.795547911E0
1.212082669E0,1.643093705E0,-6.532609940E0,7.392332077E0,1.000106610E1
1.214489440E0,1.659852386E0,-6.511062622E0,6.863235950E0,9.604845346E0
1.216895794E0,1.633517265E0,-6.546974182E0,7.471336842E0,1.006737919E1
1.219302044E0,1.664640546E0,-6.523033142E0,6.994911194E0,9.708232184E0
1.221708867E0,1.645487785E0,-6.513456821E0,7.191227436E0,9.841062029E0
1.224114805E0,1.674216866E0,-6.525427341E0,7.375572681E0,9.989157947E0
1.226520378E0,1.683793426E0,-6.503880501E0,6.877600193E0,9.614416586E0
1.228926472E0,1.657458305E0,-6.527821541E0,7.519218922E0,1.009446756E1
1.231332565E0,1.702946186E0,-6.503880501E0,6.963788033E0,9.679609034E0
1.233739076E0,1.669428825E0,-6.518245220E0,7.275021076E0,9.909613767E0
1.236145169E0,1.693369746E0,-6.511062622E0,7.346843719E0,9.961804566E0
1.238550586E0,1.698157907E0,-6.513456821E0,6.968576431E0,9.688648901E0
1.240956888E0,1.698157907E0,-6.508668900E0,7.591042042E0,1.014250612E1
1.243363138E0,1.705340266E0,-6.484727859E0,7.004487991E0,9.696532001E0
1.245769024E0,1.712522507E0,-6.520639420E0,7.428243160E0,1.003146391E1
1.248175326E0,1.741251826E0,-6.496698380E0,7.375572681E0,9.981889607E0
1.250581836E0,1.736463547E0,-6.506274700E0,7.042793274E0,9.744118904E0
1.252988607E0,1.765192747E0,-6.515851021E0,7.521612644E0,1.010677380E1
1.255394701E0,1.753222227E0,-6.503880501E0,7.332479477E0,9.956882294E0
1.257800534E0,1.755616307E0,-6.530215740E0,7.143345356E0,9.836324980E0
1.260207305E0,1.741251826E0,-6.508668900E0,7.308538437E0,9.940294908E0
1.262613607E0,1.710128427E0,-6.546974182E0,7.253473759E0,9.919692119E0
1.265019649E0,1.702946186E0,-6.551762104E0,7.267838478E0,9.932124069E0
1.267426211E0,1.669428825E0,-6.537397861E0,7.284597397E0,9.929245824E0
1.269832617E0,1.674216866E0,-6.551762104E0,7.246292114E0,9.911475076E0
1.272239232E0,1.679005146E0,-6.537397861E0,7.272626877E0,9.922082985E0
1.274645430E0,1.688581586E0,-6.527821541E0,7.241503239E0,9.894601103E0
1.277051055E0,1.690975666E0,-6.501486301E0,7.231926918E0,9.870637759E0
1.279457513E0,1.681399345E0,-6.489515781E0,7.231926918E0,9.861119905E0
1.281863607E0,1.710128427E0,-6.503880501E0,7.224744797E0,9.870255224E0
1.284269284E0,1.717310786E0,-6.496698380E0,7.210380554E0,9.856258616E0
1.286675378E0,1.726887107E0,-6.494304180E0,7.227138996E0,9.868620164E0
1.289081524E0,1.717310786E0,-6.496698380E0,7.234321594E0,9.873786260E0
1.291488138E0,1.726887107E0,-6.484727859E0,7.224744797E0,9.860566509E0
1.293894284E0,1.700551987E0,-6.470363140E0,7.251080036E0,9.865882521E0
1.296299961E0,1.698157907E0,-6.477545261E0,7.236715317E0,9.859633942E0
1.298706472E0,1.671822906E0,-6.501486301E0,7.227138996E0,9.863866079E0
1.301112565E0,1.671822906E0,-6.491909981E0,7.234321594E0,9.862823934E0
1.303518242E0,1.674216866E0,-6.523033142E0,7.277414799E0,9.915328015E0
1.305924440E0,1.652670026E0,-6.515851021E0,7.294173241E0,9.919304210E0
1.308330326E0,1.657458305E0,-6.532609940E0,7.289385319E0,9.927602882E0
1.310736680E0,1.645487785E0,-6.525427341E0,7.277414799E0,9.912093532E0
1.313143034E0,1.657458305E0,-6.527821541E0,7.267838478E0,9.908637558E0
1.315548972E0,1.667034626E0,-6.530215740E0,7.248685837E0,9.897786036E0
1.317955742E0,1.652670026E0,-6.544580460E0,7.231926918E0,9.892604235E0
1.320362305E0,1.647881866E0,-6.537397861E0,7.236715317E0,9.890557821E0
1.322768399E0,1.640699506E0,-6.515851021E0,7.229532719E0,9.869870958E0
1.325174805E0,1.638305545E0,-6.520639420E0,7.198410034E0,9.849867538E0
1.327581107E0,1.650276065E0,-6.494304180E0,7.198410034E0,9.834454987E0
1.329987826E0,1.664640546E0,-6.472757339E0,7.191227436E0,9.817401273E0
1.332394232E0,1.652670026E0,-6.467968941E0,7.193621159E0,9.813976045E0
1.334799961E0,1.681399345E0,-6.448816299E0,7.174468994E0,9.792208166E0
1.337206159E0,1.683793426E0,-6.446422100E0,7.174468994E0,9.791043026E0
1.339612149E0,1.693369746E0,-6.439239979E0,7.193621159E0,9.802014996E0
1.342017982E0,1.705340266E0,-6.424875259E0,7.193621159E0,9.794661449E0
1.344424232E0,1.702946186E0,-6.444028378E0,7.215168476E0,9.822636285E0
1.346830482E0,1.683793426E0,-6.427269459E0,7.205591679E0,9.801301160E0
1.349236992E0,1.659852386E0,-6.448816299E0,7.236715317E0,9.834245786E0
1.351643242E0,1.645487785E0,-6.453604221E0,7.217562199E0,9.820888024E0
1.354049388E0,1.631123185E0,-6.484727859E0,7.236715317E0,9.853035412E0
1.356456315E0,1.614364505E0,-6.489515781E0,7.219956398E0,9.841125861E0
1.358862617E0,1.590423584E0,-6.499092102E0,7.229532719E0,9.850573012E0
1.361268815E0,1.602393985E0,-6.513456821E0,7.248685837E0,9.876043368E0
1.363675430E0,1.621546745E0,-6.520639420E0,7.236715317E0,9.875130423E0
1.366082201E0,1.602393985E0,-6.515851021E0,7.239109516E0,9.870597125E0
1.368489336E0,1.621546745E0,-6.506274700E0,7.243897438E0,9.870920647E0
1.370895899E0,1.635911465E0,-6.503880501E0,7.255867958E0,9.880500378E0
1.373302044E0,1.638305545E0,-6.506274700E0,7.234321594E0,9.866664303E0
1.375708815E0,1.674216866E0,-6.501486301E0,7.253473759E0,9.883582742E0
1.378115169E0,1.674216866E0,-6.506274700E0,7.260656357E0,9.892004009E0
1.380521211E0,1.688581586E0,-6.513456821E0,7.301355839E0,9.929059604E0
1.382927774E0,1.671822906E0,-6.525427341E0,7.277414799E0,9.916499381E0
1.385334284E0,1.657458305E0,-6.520639420E0,7.263050556E0,9.900394429E0
1.387741055E0,1.679005146E0,-6.530215740E0,7.279808998E0,9.922620367E0
1.390147357E0,1.667034626E0,-6.525427341E0,7.267838478E0,9.908667043E0
1.392553294E0,1.647881866E0,-6.518245220E0,7.258262157E0,9.893705319E0
1.394959805E0,1.655064106E0,-6.530215740E0,7.224744797E0,9.878253499E0
1.397365794E0,1.645487785E0,-6.520639420E0,7.227138996E0,9.872077115E0
1.399771524E0,1.640699506E0,-6.513456821E0,7.222351074E0,9.863030451E0
1.402178190E0,1.623940945E0,-6.527821541E0,7.210380554E0,9.860995183E0
1.404584805E0,1.643093705E0,-6.518245220E0,7.198410034E0,9.849080398E0
1.406991367E0,1.611970425E0,-6.499092102E0,7.184044838E0,9.820750839E0
1.409397826E0,1.611970425E0,-6.513456821E0,7.164892197E0,9.816274681E0
1.411803972E0,1.602393985E0,-6.508668900E0,7.148133278E0,9.799298275E0
1.414210794E0,1.607182145E0,-6.537397861E0,7.164892197E0,9.831392853E0
1.416617305E0,1.599999905E0,-6.527821541E0,7.186439514E0,9.839581630E0
1.419023451E0,1.580847144E0,-6.513456821E0,7.145739555E0,9.797233857E0
1.421429961E0,1.597605824E0,-6.520639420E0,7.193621159E0,9.839678256E0
1.423836472E0,1.588029385E0,-6.525427341E0,7.162498474E0,9.818575442E0
1.426243138E0,1.609576344E0,-6.523033142E0,7.172074318E0,9.827479199E0
1.428649076E0,1.607182145E0,-6.515851021E0,7.136162758E0,9.796130250E0
1.431054492E0,1.619152665E0,-6.535003662E0,7.155315876E0,9.824788726E0
1.433461159E0,1.599999905E0,-6.513456821E0,7.133769035E0,9.791617849E0
1.435867461E0,1.616758704E0,-6.491909981E0,7.150527954E0,9.792285429E0
1.438273138E0,1.631123185E0,-6.511062622E0,7.117010593E0,9.782961673E0
1.440679440E0,1.631123185E0,-6.513456821E0,7.107433796E0,9.777591614E0
1.443085586E0,1.631123185E0,-6.503880501E0,7.126586914E0,9.785155362E0
1.445492149E0,1.628728986E0,-6.487122059E0,7.140951157E0,9.784104156E0
1.447898294E0,1.616758704E0,-6.513456821E0,7.133769035E0,9.794370277E0
1.450303972E0,1.638305545E0,-6.511062622E0,7.124192238E0,9.789386935E0
1.452710638E0,1.621546745E0,-6.511062622E0,7.126586914E0,9.788339561E0
1.455116888E0,1.631123185E0,-6.530215740E0,7.150527954E0,9.820098293E0
1.457522774E0,1.633517265E0,-6.520639420E0,7.162498474E0,9.822856076E0
1.459929232E0,1.631123185E0,-6.525427341E0,7.193621159E0,9.848347588E0
1.462335430E0,1.621546745E0,-6.518245220E0,7.196015358E0,9.843758003E0
1.464741836E0,1.635911465E0,-6.532609940E0,7.212774277E0,9.867892972E0
1.467148086E0,1.626335025E0,-6.558944702E0,7.193621159E0,9.869797698E0
1.469553919E0,1.609576344E0,-6.542186260E0,7.198410034E0,9.859413983E0
1.471960326E0,1.614364505E0,-6.556550980E0,7.215168476E0,9.881962844E0
1.474366472E0,1.616758704E0,-6.558944702E0,7.203197956E0,9.875207598E0
1.476772357E0,1.611970425E0,-6.558944702E0,7.200803757E0,9.872678411E0
1.479178347E0,1.623940945E0,-6.575703144E0,7.188833237E0,9.877063295E0
1.481584440E0,1.614364505E0,-6.566127300E0,7.200803757E0,9.877842640E0
1.483991263E0,1.631123185E0,-6.573309422E0,7.179256916E0,9.869685378E0
1.486397305E0,1.602393985E0,-6.568521500E0,7.205591679E0,9.880976299E0
1.488802617E0,1.614364505E0,-6.573309422E0,7.251080036E0,9.919311024E0
1.491209232E0,1.616758704E0,-6.558944702E0,7.243897438E0,9.904933842E0
1.493615742E0,1.631123185E0,-6.570915222E0,7.251080036E0,9.920466289E0
1.496021680E0,1.623940945E0,-6.551762104E0,7.253473759E0,9.908362752E0
1.498427930E0,1.631123185E0,-6.520639420E0,7.253473759E0,9.888993015E0
1.500834180E0,1.650276065E0,-6.573309422E0,7.253473759E0,9.926967785E0
1.503240742E0,1.633517265E0,-6.539792061E0,7.265444279E0,9.910799131E0
1.505646680E0,1.662246585E0,-6.532609940E0,7.248685837E0,9.898560637E0
1.508052253E0,1.671822906E0,-6.561338902E0,7.253473759E0,9.922652951E0
1.510458919E0,1.662246585E0,-6.542186260E0,7.255867958E0,9.910140493E0
1.512865169E0,1.679005146E0,-6.554156780E0,7.253473759E0,9.919118456E0
1.515270951E0,1.664640546E0,-6.546974182E0,7.291779518E0,9.940017486E0
1.517677097E0,1.683793426E0,-6.549368382E0,7.275021076E0,9.932538354E0
1.520083190E0,1.688581586E0,-6.556550980E0,7.272626877E0,9.936335854E0
1.522489857E0,1.693369746E0,-6.575703144E0,7.272626877E0,9.949797718E0
1.524896055E0,1.669428825E0,-6.599644184E0,7.263050556E0,9.954606941E0
1.527301784E0,1.681399345E0,-6.592462540E0,7.248685837E0,9.941383830E0
1.529708294E0,1.667034626E0,-6.611614704E0,7.255867958E0,9.956910829E0
1.532114388E0,1.674216866E0,-6.616403103E0,7.258262157E0,9.963039781E0
1.534520013E0,1.667034626E0,-6.623585224E0,7.231926918E0,9.947444527E0
1.536925794E0,1.695763946E0,-6.628373623E0,7.241503239E0,9.962445553E0
1.539331576E0,1.688581586E0,-6.630767822E0,7.255867958E0,9.973264737E0
1.541738242E0,1.667034626E0,-6.602038860E0,7.239109516E0,9.938341318E0
1.544144649E0,1.662246585E0,-6.628373623E0,7.248685837E0,9.962020225E0
1.546550586E0,1.667034626E0,-6.606826782E0,7.258262157E0,9.955477594E0
1.548957097E0,1.650276065E0,-6.594856262E0,7.241503239E0,9.932517776E0
1.551363242E0,1.655064106E0,-6.602038860E0,7.222351074E0,9.924137713E0
1.553769076E0,1.657458305E0,-6.592462540E0,7.255867958E0,9.942602788E0
1.556175013E0,1.638305545E0,-6.582885742E0,7.239109516E0,9.920843530E0
1.558580951E0,1.626335025E0,-6.580492020E0,7.258262157E0,9.931274358E0
1.560987774E0,1.635911465E0,-6.566127300E0,7.265444279E0,9.928590767E0
1.563394128E0,1.626335025E0,-6.563732624E0,7.253473759E0,9.916674500E0
1.565799701E0,1.633517265E0,-6.573309422E0,7.217562199E0,9.897978556E0
1.568206263E0,1.638305545E0,-6.568521500E0,7.234321594E0,9.907821591E0
1.570612774E0,1.633517265E0,-6.582885742E0,7.234321594E0,9.916560507E0
1.573018503E0,1.626335025E0,-6.570915222E0,7.241503239E0,9.912681858E0
1.575424492E0,1.640699506E0,-6.551762104E0,7.205591679E0,9.876134516E0
1.577830742E0,1.635911465E0,-6.551762104E0,7.217562199E0,9.884077958E0
1.580237253E0,1.623940945E0,-6.539792061E0,7.172074318E0,9.840971213E0
1.582643399E0,1.623940945E0,-6.558944702E0,7.176862717E0,9.857195253E0
1.585049128E0,1.614364505E0,-6.535003662E0,7.196015358E0,9.853683710E0
1.587455742E0,1.590423584E0,-6.563732624E0,7.162498474E0,9.844461261E0
1.589861888E0,1.611970425E0,-6.563732624E0,7.172074318E0,9.854931995E0
1.592267409E0,1.607182145E0,-6.566127300E0,7.174468994E0,9.857487891E0
1.594673503E0,1.576058865E0,-6.554156780E0,7.160103798E0,9.834023543E0
1.597080013E0,1.588029385E0,-6.566127300E0,7.191227436E0,9.866590956E0
1.599486940E0,1.585635304E0,-6.551762104E0,7.203197956E0,9.865388324E0
1.601893503E0,1.561694264E0,-6.568521500E0,7.200803757E0,9.870964411E0
1.604299753E0,1.568876624E0,-6.582885742E0,7.205591679E0,9.885156043E0
1.606706784E0,1.568876624E0,-6.570915222E0,7.179256916E0,9.857993233E0
1.609113086E0,1.585635304E0,-6.563732624E0,7.174468994E0,9.852402277E0
1.611518867E0,1.592817664E0,-6.582885742E0,7.186439514E0,9.875037504E0
1.613925117E0,1.585635304E0,-6.570915222E0,7.188833237E0,9.867648630E0
1.616331211E0,1.604788184E0,-6.580492020E0,7.193621159E0,9.880607558E0
1.618737565E0,1.599999905E0,-6.580492020E0,7.188833237E0,9.876345388E0
1.621143711E0,1.602393985E0,-6.575703144E0,7.200803757E0,9.882262548E0
1.623549805E0,1.607182145E0,-6.570915222E0,7.217562199E0,9.892075889E0
1.625956836E0,1.614364505E0,-6.580492020E0,7.203197956E0,9.889140952E0
1.628363399E0,1.607182145E0,-6.592462540E0,7.215168476E0,9.904658143E0
1.630769544E0,1.623940945E0,-6.590068340E0,7.222351074E0,9.911031226E0
1.633176003E0,1.621546745E0,-6.594856262E0,7.217562199E0,9.910335366E0
1.635582201E0,1.635911465E0,-6.582885742E0,7.227138996E0,9.911716758E0
1.637988763E0,1.633517265E0,-6.602038860E0,7.236715317E0,9.931029370E0
1.640394961E0,1.621546745E0,-6.599644184E0,7.236715317E0,9.927475297E0
1.642800638E0,1.626335025E0,-6.604433060E0,7.212774277E0,9.914011016E0
1.645207409E0,1.655064106E0,-6.566127300E0,7.224744797E0,9.902030211E0
1.647613919E0,1.640699506E0,-6.578097820E0,7.191227436E0,9.883168411E0
1.650020169E0,1.650276065E0,-6.582885742E0,7.203197956E0,9.896658859E0
1.652426940E0,1.652670026E0,-6.580492020E0,7.200803757E0,9.893723676E0
1.654833711E0,1.645487785E0,-6.580492020E0,7.181651115E0,9.878593929E0
1.657240951E0,1.652670026E0,-6.568521500E0,7.215168476E0,9.896234084E0
1.659647617E0,1.667034626E0,-6.578097820E0,7.207985878E0,9.899769482E0
1.662053711E0,1.650276065E0,-6.580492020E0,7.217562199E0,9.905528275E0
1.664460847E0,1.657458305E0,-6.561338902E0,7.217562199E0,9.894015378E0
1.666867722E0,1.671822906E0,-6.568521500E0,7.215168476E0,9.899450624E0
1.669274076E0,1.669428825E0,-6.551762104E0,7.227138996E0,9.896672034E0
1.671680742E0,1.688581586E0,-6.563732624E0,7.234321594E0,9.913087443E0
1.674087357E0,1.674216866E0,-6.544580460E0,7.217562199E0,9.885734146E0
1.676494284E0,1.688581586E0,-6.556550980E0,7.207985878E0,9.889121748E0
1.678900586E0,1.690975666E0,-6.558944702E0,7.215168476E0,9.896353391E0
1.681306680E0,1.700551987E0,-6.525427341E0,7.222351074E0,9.881064421E0
1.683713867E0,1.700551987E0,-6.542186260E0,7.222351074E0,9.892139969E0
1.686120378E0,1.719704866E0,-6.530215740E0,7.234321594E0,9.896287757E0
1.688526211E0,1.705340266E0,-6.537397861E0,7.241503239E0,9.903793484E0
1.690932409E0,1.683793426E0,-6.544580460E0,7.229532719E0,9.896102113E0
1.693338451E0,1.695763946E0,-6.546974182E0,7.224744797E0,9.896232802E0
1.695745065E0,1.707734466E0,-6.544580460E0,7.234321594E0,9.903701294E0
1.698151315E0,1.686187387E0,-6.530215740E0,7.219956398E0,9.880015987E0
1.700556992E0,1.676611066E0,-6.558944702E0,7.224744797E0,9.900894790E0
1.702963347E0,1.671822906E0,-6.566127300E0,7.224744797E0,9.904845124E0
1.705369388E0,1.667034626E0,-6.582885742E0,7.217562199E0,9.909923977E0
1.707775274E0,1.647881866E0,-6.582885742E0,7.239109516E0,9.922429437E0
1.710181888E0,1.638305545E0,-6.575703144E0,7.227138996E0,9.907343487E0
1.712588294E0,1.628728986E0,-6.594856262E0,7.219956398E0,9.913256661E0
1.714994805E0,1.628728986E0,-6.587673664E0,7.243897438E0,9.925938369E0
1.717401263E0,1.616758704E0,-6.573309422E0,7.219956398E0,9.896973065E0
1.719807513E0,1.626335025E0,-6.575703144E0,7.217562199E0,9.898385805E0
1.722214284E0,1.628728986E0,-6.566127300E0,7.215168476E0,9.890674495E0
1.724620534E0,1.628728986E0,-6.570915222E0,7.212774277E0,9.892107851E0
1.727026576E0,1.626335025E0,-6.568521500E0,7.217562199E0,9.893616346E0
1.729433190E0,1.640699506E0,-6.566127300E0,7.198410034E0,9.880436712E0
1.731839597E0,1.638305545E0,-6.568521500E0,7.212774277E0,9.892099500E0
1.734246263E0,1.647881866E0,-6.551762104E0,7.234321594E0,9.898308453E0
1.736652305E0,1.635911465E0,-6.544580460E0,7.191227436E0,9.860095930E0
1.739057982E0,1.652670026E0,-6.549368382E0,7.207985878E0,9.878289570E0
1.741464649E0,1.623940945E0,-6.542186260E0,7.224744797E0,9.881008179E0
1.743871055E0,1.635911465E0,-6.558944702E0,7.198410034E0,9.874870579E0
1.746277044E0,1.626335025E0,-6.530215740E0,7.167286396E0,9.831514507E0
1.748683138E0,1.631123185E0,-6.523033142E0,7.188833237E0,9.843264069E0
1.751088919E0,1.628728986E0,-6.537397861E0,7.164892197E0,9.834938185E0
1.753495013E0,1.638305545E0,-6.532609940E0,7.181651115E0,9.845565013E0
1.755900794E0,1.640699506E0,-6.539792061E0,7.174468994E0,9.845495438E0
1.758306472E0,1.614364505E0,-6.527821541E0,7.164892197E0,9.826205118E0
1.760713190E0,1.609576344E0,-6.525427341E0,7.186439514E0,9.839555421E0
1.763119492E0,1.635911465E0,-6.537397861E0,7.186439514E0,9.851836885E0
1.765525430E0,1.626335025E0,-6.535003662E0,7.186439514E0,9.848662415E0
1.767931524E0,1.614364505E0,-6.518245220E0,7.191227436E0,9.839077474E0
1.770337565E0,1.647881866E0,-6.513456821E0,7.196015358E0,9.844961729E0
1.772744076E0,1.652670026E0,-6.499092102E0,7.224744797E0,9.857304588E0
1.775150013E0,1.655064106E0,-6.513456821E0,7.219956398E0,9.863677172E0
1.777555586E0,1.647881866E0,-6.523033142E0,7.219956398E0,9.868801670E0
1.779962357E0,1.652670026E0,-6.491909981E0,7.231926918E0,9.857838524E0
1.782368555E0,1.638305545E0,-6.511062622E0,7.253473759E0,9.883868832E0
1.784774128E0,1.652670026E0,-6.511062622E0,7.253473759E0,9.886259973E0
1.787180274E0,1.671822906E0,-6.511062622E0,7.258262157E0,9.892992360E0
1.789586315E0,1.662246585E0,-6.496698380E0,7.253473759E0,9.878412581E0
1.791992722E0,1.659852386E0,-6.487122059E0,7.255867958E0,9.873473673E0
1.794398815E0,1.674216866E0,-6.503880501E0,7.248685837E0,9.881645108E0
1.796804597E0,1.667034626E0,-6.513456821E0,7.248685837E0,9.886737104E0
1.799211211E0,1.676611066E0,-6.499092102E0,7.263050556E0,9.889445192E0
1.801617722E0,1.690975666E0,-6.523033142E0,7.248685837E0,9.897111015E0
1.804024024E0,1.671822906E0,-6.518245220E0,7.258262157E0,9.897721057E0
1.806430794E0,1.662246585E0,-6.554156780E0,7.243897438E0,9.909292856E0
1.808837461E0,1.662246585E0,-6.542186260E0,7.255867958E0,9.910140493E0
1.811244440E0,1.664640546E0,-6.549368382E0,7.236715317E0,9.901277843E0
1.813651211E0,1.657458305E0,-6.554156780E0,7.246292114E0,9.910241598E0
1.816057722E0,1.657458305E0,-6.551762104E0,7.227138996E0,9.894659811E0
1.818464857E0,1.662246585E0,-6.558944702E0,7.224744797E0,9.898472442E0
1.820871472E0,1.669428825E0,-6.558944702E0,7.212774277E0,9.890948437E0
1.823277669E0,1.674216866E0,-6.554156780E0,7.212774277E0,9.888583619E0
1.825684544E0,1.681399345E0,-6.539792061E0,7.205591679E0,9.875046096E0
1.828091315E0,1.683793426E0,-6.563732624E0,7.215168476E0,9.898303006E0
1.830498399E0,1.681399345E0,-6.542186260E0,7.219956398E0,9.887116628E0
1.832905013E0,1.669428825E0,-6.558944702E0,7.224744797E0,9.899681085E0
1.835310586E0,1.683793426E0,-6.556550980E0,7.251080036E0,9.919762232E0
1.837716992E0,1.664640546E0,-6.568521500E0,7.236715317E0,9.913957404E0
1.840123607E0,1.628728986E0,-6.539792061E0,7.234321594E0,9.887216354E0
1.842529909E0,1.679005146E0,-6.546974182E0,7.227138996E0,9.895123410E0
1.844936315E0,1.671822906E0,-6.535003662E0,7.217562199E0,9.878991284E0
1.847342617E0,1.686187387E0,-6.537397861E0,7.248685837E0,9.905768272E0
1.849749597E0,1.688581586E0,-6.525427341E0,7.217562199E0,9.875510815E0
1.852156315E0,1.676611066E0,-6.515851021E0,7.227138996E0,9.874151977E0
1.854562461E0,1.681399345E0,-6.506274700E0,7.200803757E0,9.849380132E0
1.856969440E0,1.705340266E0,-6.503880501E0,7.196015358E0,9.848415305E0
1.859376159E0,1.683793426E0,-6.515851021E0,7.193621159E0,9.850871038E0
1.861782305E0,1.683793426E0,-6.527821541E0,7.205591679E0,9.867530887E0
1.864188815E0,1.688581586E0,-6.535003662E0,7.191227436E0,9.862623012E0
1.866595169E0,1.657458305E0,-6.520639420E0,7.184044838E0,9.842581303E0
1.869002097E0,1.659852386E0,-6.530215740E0,7.181651115E0,9.847585506E0
1.871408711E0,1.671822906E0,-6.520639420E0,7.179256916E0,9.841517166E0
1.873814597E0,1.659852386E0,-6.539792061E0,7.176862717E0,9.850449157E0
1.876221315E0,1.676611066E0,-6.539792061E0,7.169680595E0,9.848056900E0
1.878627722E0,1.671822906E0,-6.546974182E0,7.176862717E0,9.857242070E0
1.881033555E0,1.638305545E0,-6.539792061E0,7.188833237E0,9.855569418E0
1.883439857E0,1.633517265E0,-6.537397861E0,7.215168476E0,9.872416401E0
1.885845899E0,1.628728986E0,-6.561338902E0,7.222351074E0,9.892738818E0
1.888252044E0,1.628728986E0,-6.544580460E0,7.251080036E0,9.902648797E0
1.890658190E0,1.607182145E0,-6.544580460E0,7.243897438E0,9.893867693E0
1.893064492E0,1.599999905E0,-6.544580460E0,7.246292114E0,9.894457160E0
1.895471419E0,1.623940945E0,-6.544580460E0,7.234321594E0,9.889596883E0
1.897877669E0,1.611970425E0,-6.539792061E0,7.207985878E0,9.865211060E0
1.900283659E0,1.619152665E0,-6.523033142E0,7.227138996E0,9.869303663E0
1.902690169E0,1.611970425E0,-6.535003662E0,7.224744797E0,9.874292830E0
1.905096315E0,1.614364505E0,-6.537397861E0,7.217562199E0,9.871015533E0
1.907502826E0,1.626335025E0,-6.525427341E0,7.210380554E0,9.859805035E0
1.909908972E0,1.631123185E0,-6.532609940E0,7.222351074E0,9.874103023E0
1.912314857E0,1.628728986E0,-6.518245220E0,7.222351074E0,9.864209745E0
1.914721732E0,1.619152665E0,-6.535003662E0,7.212774277E0,9.866713788E0
1.917128034E0,1.607182145E0,-6.527821541E0,7.227138996E0,9.870512985E0
1.919533763E0,1.599999905E0,-6.525427341E0,7.205591679E0,9.851992343E0
1.921939753E0,1.633517265E0,-6.525427341E0,7.207985878E0,9.859241404E0
1.924345899E0,1.647881866E0,-6.546974182E0,7.196015358E0,9.867168926E0
1.926752565E0,1.650276065E0,-6.549368382E0,7.210380554E0,9.879636887E0
1.929158763E0,1.652670026E0,-6.539792061E0,7.203197956E0,9.868447659E0
1.931564649E0,1.635911465E0,-6.549368382E0,7.184044838E0,9.858038991E0
1.933971263E0,1.638305545E0,-6.568521500E0,7.215168476E0,9.893845354E0
1.936377461E0,1.631123185E0,-6.573309422E0,7.205591679E0,9.888857924E0
1.938783138E0,1.640699506E0,-6.582885742E0,7.205591679E0,9.896809132E0
1.941189232E0,1.635911465E0,-6.561338902E0,7.200803757E0,9.878205770E0
1.943595378E0,1.607182145E0,-6.558944702E0,7.200803757E0,9.871897730E0
1.946001992E0,1.643093705E0,-6.551762104E0,7.222351074E0,9.888766285E0
1.948408242E0,1.633517265E0,-6.590068340E0,7.205591679E0,9.900400539E0
1.950813972E0,1.631123185E0,-6.580492020E0,7.212774277E0,9.898866139E0
1.953220690E0,1.611970425E0,-6.582885742E0,7.210380554E0,9.895575834E0
1.955627097E0,1.640699506E0,-6.580492020E0,7.227138996E0,9.910918633E0
1.958032930E0,1.595211625E0,-6.570915222E0,7.241503239E0,9.907623133E0
1.960438815E0,1.595211625E0,-6.570915222E0,7.229532719E0,9.898877225E0
1.962844753E0,1.607182145E0,-6.580492020E0,7.234321594E0,9.910666910E0
1.965251576E0,1.609576344E0,-6.573309422E0,7.253473759E0,9.920282976E0
1.967657982E0,1.597605824E0,-6.582885742E0,7.275021076E0,9.940455760E0
1.970063919E0,1.647881866E0,-6.590068340E0,7.289385319E0,9.963917588E0
1.972470534E0,1.643093705E0,-6.597250462E0,7.275021076E0,9.957379286E0
1.974876628E0,1.657458305E0,-6.578097820E0,7.263050556E0,9.938331970E0
1.977282461E0,1.667034626E0,-6.609220982E0,7.253473759E0,9.953576643E0
1.979688659E0,1.659852386E0,-6.580492020E0,7.248685837E0,9.929825352E0
1.982094701E0,1.631123185E0,-6.594856262E0,7.234321594E0,9.924117134E0
1.984501107E0,1.650276065E0,-6.590068340E0,7.255867958E0,9.939820504E0
1.986907253E0,1.667034626E0,-6.599644184E0,7.255867958E0,9.948966159E0
1.989313138E0,1.662246585E0,-6.590068340E0,7.219956398E0,9.915635876E0
1.991719857E0,1.657458305E0,-6.611614704E0,7.258262157E0,9.957057124E0
1.994125847E0,1.638305545E0,-6.585279942E0,7.246292114E0,9.927673764E0
1.996531211E0,1.655064106E0,-6.602038860E0,7.234321594E0,9.932852724E0
1.998937253E0,1.633517265E0,-6.606826782E0,7.234321594E0,9.932469366E0
2.001343555E0,1.643093705E0,-6.592462540E0,7.234321594E0,9.924501408E0
2.003750065E0,1.633517265E0,-6.592462540E0,7.224744797E0,9.915940620E0
2.006156315E0,1.633517265E0,-6.604433060E0,7.210380554E0,9.913450582E0
2.008562201E0,1.619152665E0,-6.592462540E0,7.186439514E0,9.885703343E0
2.010969076E0,1.638305545E0,-6.585279942E0,7.184044838E0,9.882330555E0
2.013375690E0,1.609576344E0,-6.580492020E0,7.176862717E0,9.869192960E0
2.015781732E0,1.602393985E0,-6.582885742E0,7.150527954E0,9.850487358E0
2.018188086E0,1.599999905E0,-6.578097820E0,7.155315876E0,9.850376435E0
2.020594544E0,1.588029385E0,-6.585279942E0,7.148133278E0,9.848023080E0
2.023001524E0,1.597605824E0,-6.558944702E0,7.138557434E0,9.825024286E0
2.025407930E0,1.578453064E0,-6.554156780E0,7.143345356E0,9.822212991E0
2.027813919E0,1.590423584E0,-6.546974182E0,7.131374836E0,9.810648560E0
2.030220638E0,1.585635304E0,-6.558944702E0,7.112221718E0,9.803963111E0
2.032626680E0,1.566482544E0,-6.566127300E0,7.107433796E0,9.802219669E0
2.035032513E0,1.588029385E0,-6.563732624E0,7.126586914E0,9.817976590E0
2.037439336E0,1.564088464E0,-6.563732624E0,7.138557434E0,9.822828560E0
2.039845847E0,1.566482544E0,-6.580492020E0,7.126586914E0,9.825730702E0
2.042252201E0,1.571270823E0,-6.587673664E0,7.128981113E0,9.833041646E0
2.044658294E0,1.540147424E0,-6.582885742E0,7.131374836E0,9.826644688E0
2.047064024E0,1.583241105E0,-6.597250462E0,7.138557434E0,9.848318044E0
2.049470326E0,1.559300303E0,-6.606826782E0,7.148133278E0,9.857859145E0
2.051876159E0,1.554512024E0,-6.604433060E0,7.126586914E0,9.839882353E0
2.054281836E0,1.568876624E0,-6.602038860E0,7.143345356E0,9.852698810E0
2.056687930E0,1.556906104E0,-6.621191502E0,7.148133278E0,9.867114212E0
2.059094128E0,1.552117944E0,-6.590068340E0,7.188833237E0,9.875089577E0
2.061500794E0,1.568876624E0,-6.621191502E0,7.234321594E0,9.931614153E0
2.063907201E0,1.576058865E0,-6.628373623E0,7.241503239E0,9.942769613E0
2.066313294E0,1.588029385E0,-6.628373623E0,7.243897438E0,9.946417662E0
2.068719857E0,1.592817664E0,-6.628373623E0,7.236715317E0,9.941954213E0
2.071125847E0,1.614364505E0,-6.597250462E0,7.219956398E0,9.912500028E0
2.073531315E0,1.609576344E0,-6.594856262E0,7.193621159E0,9.890958017E0
2.075936992E0,1.635911465E0,-6.597250462E0,7.203197956E0,9.903836669E0
2.078342826E0,1.633517265E0,-6.585279942E0,7.188833237E0,9.885019670E0
2.080749440E0,1.664640546E0,-6.597250462E0,7.179256916E0,9.891232060E0
2.083155742E0,1.667034626E0,-6.616403103E0,7.193621159E0,9.914836350E0
2.085561472E0,1.667034626E0,-6.602038860E0,7.186439514E0,9.900042144E0
2.087967722E0,1.664640546E0,-6.590068340E0,7.186439514E0,9.891660213E0
2.090373555E0,1.671822906E0,-6.611614704E0,7.186439514E0,9.907237441E0
2.092779180E0,1.645487785E0,-6.606826782E0,7.198410034E0,9.908324642E0
2.095185586E0,1.638305545E0,-6.594856262E0,7.203197956E0,9.902637778E0
2.097592044E0,1.623940945E0,-6.606826782E0,7.174468994E0,9.887383358E0
2.099998659E0,1.650276065E0,-6.602038860E0,7.212774277E0,9.916372370E0
2.102404701E0,1.633517265E0,-6.602038860E0,7.203197956E0,9.906631949E0
2.104810274E0,1.638305545E0,-6.618797302E0,7.193621159E0,9.911645078E0
2.107216836E0,1.631123185E0,-6.623585224E0,7.188833237E0,9.910185032E0
2.109623034E0,1.631123185E0,-6.606826782E0,7.203197956E0,9.909429034E0
2.112028815E0,1.652670026E0,-6.594856262E0,7.198410034E0,9.901543029E0
2.114435117E0,1.635911465E0,-6.611614704E0,7.186439514E0,9.901240741E0
2.116841315E0,1.638305545E0,-6.621191502E0,7.203197956E0,9.920195701E0
2.119247878E0,1.650276065E0,-6.590068340E0,7.191227436E0,9.892732881E0
2.121654180E0,1.626335025E0,-6.597250462E0,7.193621159E0,9.895295076E0
2.124060326E0,1.633517265E0,-6.597250462E0,7.179256916E0,9.886041785E0
2.126467097E0,1.609576344E0,-6.578097820E0,7.184044838E0,9.872821642E0
2.128873086E0,1.621546745E0,-6.578097820E0,7.162498474E0,9.859116044E0
2.131278711E0,1.628728986E0,-6.563732624E0,7.167286396E0,9.854204095E0
2.133684857E0,1.628728986E0,-6.549368382E0,7.176862717E0,9.851616251E0
2.136091107E0,1.604788184E0,-6.563732624E0,7.169680595E0,9.852017606E0
2.138497774E0,1.602393985E0,-6.537397861E0,7.181651115E0,9.842832419E0
2.140903867E0,1.616758704E0,-6.518245220E0,7.176862717E0,9.828976951E0
2.143309805E0,1.597605824E0,-6.520639420E0,7.167286396E0,9.820441797E0
2.145716263E0,1.597605824E0,-6.525427341E0,7.136162758E0,9.800936959E0
2.148122149E0,1.611970425E0,-6.511062622E0,7.174468994E0,9.821679615E0
2.150527669E0,1.585635304E0,-6.511062622E0,7.164892197E0,9.810395302E0
2.152933607E0,1.578453064E0,-6.494304180E0,7.203197956E0,9.826167190E0
2.155339440E0,1.595211625E0,-6.487122059E0,6.894359112E0,9.599981265E0
2.157745690E0,1.580847144E0,-6.525427341E0,7.411484241E0,1.000051890E1
2.160151576E0,1.588029385E0,-6.520639420E0,7.318114281E0,9.929520250E0
2.162557149E0,1.532965183E0,-6.508668900E0,6.930270195E0,9.630233542E0
2.164964024E0,1.528176904E0,-6.530215740E0,7.569494724E0,1.011317421E1
2.167370430E0,1.549723744E0,-6.508668900E0,6.920694351E0,9.626028508E0
2.169776055E0,1.518600583E0,-6.535003662E0,7.349237919E0,9.951066203E0
2.172181992E0,1.542541504E0,-6.535003662E0,7.260656357E0,9.889531732E0
2.174588190E0,1.540147424E0,-6.525427341E0,6.951817513E0,9.658210124E0
2.176994857E0,1.542541504E0,-6.523033142E0,7.531189442E0,1.008207370E1
2.179401315E0,1.561694264E0,-6.503880501E0,6.887176991E0,9.600654011E0
2.181807461E0,1.525782943E0,-6.523033142E0,7.416272640E0,9.993951913E0
2.184214128E0,1.578453064E0,-6.491909981E0,7.200803757E0,9.822829736E0
2.186620638E0,1.568876624E0,-6.513456821E0,7.042793274E0,9.720464532E0
2.189026836E0,1.583241105E0,-6.518245220E0,7.521612644E0,1.007813623E1
2.191433086E0,1.590423584E0,-6.496698380E0,6.951817513E0,9.646984178E0
2.193839492E0,1.578453064E0,-6.513456821E0,7.547947884E0,1.009396607E1
2.196246263E0,1.607182145E0,-6.508668900E0,7.227138996E0,9.857856935E0
2.198652253E0,1.592817664E0,-6.513456821E0,7.200803757E0,9.839398489E0
2.201058086E0,1.595211625E0,-6.525427341E0,7.588647842E0,1.013476582E1
2.203464753E0,1.611970425E0,-6.518245220E0,6.959000111E0,9.670245702E0
2.205870847E0,1.609576344E0,-6.501486301E0,7.559918404E0,1.010012012E1
2.208276419E0,1.628728986E0,-6.484727859E0,7.128981113E0,9.773782545E0
2.210682409E0,1.643093705E0,-6.487122059E0,7.217562199E0,9.842546094E0
2.213088711E0,1.657458305E0,-6.467968941E0,7.476124763E0,1.002368354E1
2.215495378E0,1.659852386E0,-6.467968941E0,6.942240715E0,9.632467924E0
2.217901524E0,1.633517265E0,-6.487122059E0,7.574283600E0,1.010548877E1
2.220307409E0,1.659852386E0,-6.477545261E0,7.057157993E0,9.721994728E0
2.222714128E0,1.652670026E0,-6.494304180E0,7.279808998E0,9.894590646E0
2.225120430E0,1.667034626E0,-6.484727859E0,7.449790001E0,1.001648995E1
2.227526263E0,1.679005146E0,-6.477545261E0,6.970970154E0,9.662922735E0
2.229932253E0,1.655064106E0,-6.484727859E0,7.595829964E0,1.012361425E1
2.232338347E0,1.683793426E0,-6.467968941E0,6.987729073E0,9.669443630E0
2.234745013E0,1.640699506E0,-6.503880501E0,7.303750038E0,9.916507503E0
2.237151003E0,1.626335025E0,-6.499092102E0,7.356420517E0,9.949878722E0
2.239556524E0,1.659852386E0,-6.491909981E0,6.966181755E0,9.665800194E0
2.241963086E0,1.645487785E0,-6.523033142E0,7.545553684E0,1.010905395E1
2.244369180E0,1.657458305E0,-6.496698380E0,6.939846992E0,9.649649431E0
2.246774961E0,1.638305545E0,-6.503880501E0,7.365996361E0,9.962048435E0
2.249181367E0,1.650276065E0,-6.484727859E0,7.301355839E0,9.903782287E0
2.251587513E0,1.643093705E0,-6.494304180E0,7.038004875E0,9.716442576E0
2.253993972E0,1.633517265E0,-6.518245220E0,7.610194683E0,1.015238704E1
2.256400326E0,1.652670026E0,-6.523033142E0,7.095463276E0,9.778899666E0
2.258806472E0,1.674216866E0,-6.508668900E0,7.265444279E0,9.897093186E0
2.261213399E0,1.676611066E0,-6.523033142E0,7.248685837E0,9.894666867E0
2.263619701E0,1.679005146E0,-6.520639420E0,7.286991596E0,9.921594793E0
2.266025326E0,1.695763946E0,-6.494304180E0,7.258262157E0,9.886049347E0
2.268431315E0,1.693369746E0,-6.501486301E0,7.313326359E0,9.930839222E0
2.270837201E0,1.717310786E0,-6.511062622E0,7.248685837E0,9.893762639E0
2.273243347E0,1.729281306E0,-6.513456821E0,7.236715317E0,9.888659271E0
2.275648919E0,1.726887107E0,-6.515851021E0,7.270232201E0,9.914369867E0
2.278054284E0,1.729281306E0,-6.513456821E0,7.263050556E0,9.907948172E0
2.280460430E0,1.719704866E0,-6.520639420E0,7.253473759E0,9.903989339E0
2.282866211E0,1.707734466E0,-6.525427341E0,7.263050556E0,9.912086681E0
2.285271940E0,1.726887107E0,-6.515851021E0,7.255867958E0,9.903841347E0
2.287678086E0,1.710128427E0,-6.527821541E0,7.243897438E0,9.900052697E0
2.290084076E0,1.698157907E0,-6.532609940E0,7.219956398E0,9.883648278E0
2.292490326E0,1.702946186E0,-6.535003662E0,7.210380554E0,9.879063028E0
2.294896472E0,1.722098947E0,-6.546974182E0,7.236715317E0,9.909517864E0
2.297302461E0,1.698157907E0,-6.549368382E0,7.193621159E0,9.875532990E0
2.299709284E0,1.688581586E0,-6.558944702E0,7.193621159E0,9.880245379E0
2.302115742E0,1.705340266E0,-6.530215740E0,7.203197956E0,9.871067006E0
2.304521836E0,1.674216866E0,-6.527821541E0,7.186439514E0,9.851922101E0
2.306928294E0,1.690975666E0,-6.532609940E0,7.215168476E0,9.878919347E0
2.309335065E0,1.671822906E0,-6.539792061E0,7.203197956E0,9.871673253E0
2.311742305E0,1.657458305E0,-6.544580460E0,7.203197956E0,9.872424333E0
2.314149128E0,1.647881866E0,-6.527821541E0,7.210380554E0,9.864966115E0
2.316555482E0,1.638305545E0,-6.561338902E0,7.186439514E0,9.868136913E0
2.318962305E0,1.638305545E0,-6.546974182E0,7.196015358E0,9.865574136E0
2.321368294E0,1.647881866E0,-6.537397861E0,7.198410034E0,9.862565207E0
2.323773867E0,1.643093705E0,-6.546974182E0,7.176862717E0,9.852410178E0
2.326179753E0,1.657458305E0,-6.535003662E0,7.179256916E0,9.848612631E0
2.328585690E0,1.674216866E0,-6.539792061E0,7.217562199E0,9.882564769E0
2.330992149E0,1.669428825E0,-6.523033142E0,7.212774277E0,9.867171162E0
2.333398451E0,1.664640546E0,-6.525427341E0,7.217562199E0,9.871445397E0
2.335804544E0,1.671822906E0,-6.523033142E0,7.215168476E0,9.869326691E0
2.338211263E0,1.683793426E0,-6.518245220E0,7.205591679E0,9.861198329E0
2.340617409E0,1.686187387E0,-6.499092102E0,7.184044838E0,9.833205291E0
2.343023190E0,1.695763946E0,-6.523033142E0,7.215168476E0,9.873410397E0
2.345429440E0,1.690975666E0,-6.506274700E0,7.200803757E0,9.851019436E0
2.347835742E0,1.681399345E0,-6.511062622E0,7.188833237E0,9.843798227E0
2.350242513E0,1.681399345E0,-6.501486301E0,7.198410034E0,9.844467223E0
2.352649024E0,1.657458305E0,-6.527821541E0,7.188833237E0,9.850834757E0
2.355055222E0,1.662246585E0,-6.539792061E0,7.184044838E0,9.856086655E0
2.357461888E0,1.647881866E0,-6.549368382E0,7.193621159E0,9.867012021E0
2.359868034E0,1.621546745E0,-6.549368382E0,7.200803757E0,9.867888061E0
2.362274128E0,1.621546745E0,-6.523033142E0,7.231926918E0,9.873203237E0
2.364680638E0,1.635911465E0,-6.546974182E0,7.229532719E0,9.889652198E0
2.367086784E0,1.650276065E0,-6.556550980E0,7.227138996E0,9.896631240E0
2.369492930E0,1.628728986E0,-6.554156780E0,7.246292114E0,9.905477203E0
2.371898919E0,1.626335025E0,-6.554156780E0,7.243897438E0,9.903332106E0
2.374305013E0,1.604788184E0,-6.558944702E0,7.241503239E0,9.901235775E0
2.376712097E0,1.645487785E0,-6.551762104E0,7.222351074E0,9.889164361E0
2.379118919E0,1.647881866E0,-6.549368382E0,7.210380554E0,9.879237247E0
2.381525117E0,1.659852386E0,-6.558944702E0,7.229532719E0,9.901565981E0
2.383931472E0,1.631123185E0,-6.554156780E0,7.217562199E0,9.884874204E0
2.386337565E0,1.659852386E0,-6.549368382E0,7.203197956E0,9.876001060E0
2.388744232E0,1.681399345E0,-6.544580460E0,7.200803757E0,9.874725915E0
2.391150586E0,1.662246585E0,-6.554156780E0,7.196015358E0,9.874344122E0
2.393556419E0,1.657458305E0,-6.539792061E0,7.203197956E0,9.869250682E0
2.395963294E0,1.647881866E0,-6.542186260E0,7.203197956E0,9.869233836E0
2.398369961E0,1.623940945E0,-6.542186260E0,7.193621159E0,9.858274222E0
2.400776211E0,1.650276065E0,-6.542186260E0,7.196015358E0,9.864392996E0
2.403182617E0,1.640699506E0,-6.542186260E0,7.188833237E0,9.857556454E0
2.405588867E0,1.621546745E0,-6.551762104E0,7.176862717E0,9.852023090E0
2.407995586E0,1.628728986E0,-6.546974182E0,7.198410034E0,9.865735455E0
2.410401992E0,1.599999905E0,-6.558944702E0,7.205591679E0,9.874224361E0
2.412807722E0,1.604788184E0,-6.544580460E0,7.200803757E0,9.861970049E0
2.415214128E0,1.609576344E0,-6.563732624E0,7.196015358E0,9.871978474E0
2.417620169E0,1.614364505E0,-6.551762104E0,7.200803757E0,9.868299457E0
2.420026003E0,1.604788184E0,-6.558944702E0,7.169680595E0,9.848828385E0
2.422432201E0,1.597605824E0,-6.546974182E0,7.174468994E0,9.843181430E0
2.424838086E0,1.607182145E0,-6.563732624E0,7.152921677E0,9.840218947E0
2.427244284E0,1.607182145E0,-6.558944702E0,7.184044838E0,9.859680030E0
2.429650169E0,1.595211625E0,-6.563732624E0,7.164892197E0,9.846977520E0
2.432055690E0,1.607182145E0,-6.558944702E0,7.179256916E0,9.856191958E0
2.434461888E0,1.609576344E0,-6.544580460E0,7.193621159E0,9.857507534E0
2.436867826E0,1.599999905E0,-6.535003662E0,7.207985878E0,9.860087879E0
2.439273607E0,1.609576344E0,-6.530215740E0,7.196015358E0,9.849725410E0
2.441679701E0,1.607182145E0,-6.535003662E0,7.207985878E0,9.861255890E0
2.444085742E0,1.619152665E0,-6.542186260E0,7.243897438E0,9.894236025E0
2.446492357E0,1.633517265E0,-6.530215740E0,7.234321594E0,9.881675222E0
2.448898711E0,1.611970425E0,-6.554156780E0,7.279808998E0,9.927287585E0
2.451304753E0,1.635911465E0,-6.558944702E0,7.327691078E0,9.969504424E0
2.453711784E0,1.643093705E0,-6.573309422E0,7.370784760E0,1.001182409E1
2.456118242E0,1.640699506E0,-6.604433060E0,7.413878441E0,1.006359898E1
2.458524336E0,1.662246585E0,-6.609220982E0,7.421061039E0,1.007556513E1
2.460931003E0,1.674216866E0,-6.625979900E0,7.447395802E0,1.010793332E1
2.463337409E0,1.659852386E0,-6.657103062E0,7.435425282E0,1.011719725E1
2.465744128E0,1.674216866E0,-6.681043625E0,7.445002079E0,1.014235683E1
2.468150378E0,1.686187387E0,-6.731319904E0,7.442607880E0,1.017577061E1
2.470556419E0,1.674216866E0,-6.769625187E0,7.464154243E0,1.021491194E1
2.472963399E0,1.659852386E0,-6.812719345E0,7.440213680E0,1.022374855E1
2.475369805E0,1.671822906E0,-6.836660385E0,7.430637360E0,1.023470999E1
2.477775847E0,1.683793426E0,-6.882148266E0,7.401907921E0,1.024633427E1
2.480182097E0,1.671822906E0,-6.906089306E0,7.382755280E0,1.024666467E1
2.482588294E0,1.679005146E0,-6.946788788E0,7.380361557E0,1.027359087E1
2.484995065E0,1.650276065E0,-6.989882946E0,7.401907921E0,1.031358888E1
2.487401419E0,1.626335025E0,-6.994670868E0,7.382755280E0,1.029929423E1
2.489807513E0,1.626335025E0,-7.056917191E0,7.334873199E0,1.030754145E1
2.492214440E0,1.621546745E0,-7.068887711E0,7.315720558E0,1.030137634E1
2.494620690E0,1.626335025E0,-7.073675632E0,7.260656357E0,1.026640070E1
2.497026211E0,1.595211625E0,-7.097616673E0,7.212774277E0,1.024426548E1
2.499432305E0,1.566482544E0,-7.097616673E0,7.181651115E0,1.021793241E1
2.501838555E0,1.544935703E0,-7.092828751E0,7.112221718E0,1.016261501E1
2.504245065E0,1.497053623E0,-7.102405548E0,7.100251198E0,1.015376291E1
2.506650951E0,1.485083103E0,-7.116769791E0,7.088280678E0,1.015369918E1
2.509056211E0,1.441989422E0,-7.128740311E0,7.083492756E0,1.015254360E1
2.511462357E0,1.413260102E0,-7.107193470E0,7.085886955E0,1.013505289E1
2.513868138E0,1.355801821E0,-7.085646152E0,7.105040073E0,1.012552095E1
2.516273763E0,1.353407741E0,-7.092828751E0,7.160103798E0,1.016892416E1
2.518679753E0,1.355801821E0,-7.088040829E0,7.270232201E0,1.024376872E1
2.521085586E0,1.327072620E0,-7.092828751E0,7.346843719E0,1.029783735E1
2.523492044E0,1.341437340E0,-7.090435028E0,7.454578400E0,1.037518492E1
2.525898190E0,1.360589981E0,-7.100011349E0,7.559918404E0,1.046010194E1
2.528304024E0,1.398895621E0,-7.095222950E0,7.636529922E0,1.051739925E1
2.530710742E0,1.449171662E0,-7.126346111E0,7.765810966E0,1.063920708E1
2.533116836E0,1.499447823E0,-7.138316631E0,7.871151447E0,1.073121304E1
2.535522357E0,1.540147424E0,-7.159863949E0,7.981280327E0,1.083219929E1
2.537928034E0,1.568876624E0,-7.212533951E0,8.074649811E0,1.093992639E1
2.540333763E0,1.583241105E0,-7.250839233E0,8.134502411E0,1.101142368E1
2.542739857E0,1.614364505E0,-7.329844952E0,8.184778214E0,1.110510667E1
2.545145742E0,1.650276065E0,-7.360967636E0,8.215902328E0,1.115384717E1
2.547551472E0,1.695763946E0,-7.399273396E0,8.218296051E0,1.118772775E1
2.549958034E0,1.755616307E0,-7.439973354E0,8.199142456E0,1.120987641E1
2.552364284E0,1.827439308E0,-7.468702316E0,8.153655052E0,1.120728064E1
2.554770065E0,1.856168628E0,-7.485460758E0,8.091408730E0,1.117803113E1
2.557175794E0,1.925597310E0,-7.480672836E0,8.033949852E0,1.114507700E1
2.559581524E0,2.009390593E0,-7.490249157E0,8.005220413E0,1.114562860E1
2.561987826E0,2.071637154E0,-7.475884914E0,7.945368767E0,1.110447750E1
2.564393919E0,2.131489754E0,-7.454338074E0,7.911850929E0,1.107735482E1
2.566799597E0,2.174583435E0,-7.404061794E0,7.816087246E0,1.098363164E1
2.569205899E0,2.239224195E0,-7.351391315E0,7.729899406E0,1.089992771E1
2.571611836E0,2.277529716E0,-7.305903912E0,7.689199924E0,1.084837172E1
2.574017409E0,2.263165236E0,-7.269992352E0,7.677229404E0,1.081270350E1
2.576423294E0,2.258376837E0,-7.212533951E0,7.626953602E0,1.073738018E1
2.578829024E0,2.224859715E0,-7.167046070E0,7.643712044E0,1.071181049E1
2.581235169E0,2.196130514E0,-7.131134510E0,7.665258884E0,1.069730164E1
2.583641263E0,2.131489754E0,-7.100011349E0,7.658076286E0,1.065830860E1
2.586046992E0,2.090790033E0,-7.047340870E0,7.598224163E0,1.057210607E1
2.588453659E0,2.066849232E0,-6.999458790E0,7.555130482E0,1.050448884E1
2.590859961E0,2.069243193E0,-6.987488270E0,7.689199924E0,1.059389235E1
2.593265638E0,2.042908192E0,-6.963547230E0,7.624559402E0,1.052608047E1
2.595671784E0,2.023755074E0,-6.922847748E0,7.593435764E0,1.047290181E1
2.598078086E0,2.040513992E0,-6.879754066E0,7.583859444E0,1.044076805E1
2.600484649E0,2.040513992E0,-6.870177746E0,7.610194683E0,1.045361673E1
2.602890690E0,2.028543472E0,-6.858207226E0,7.643712044E0,1.046787126E1
2.605296367E0,2.033331633E0,-6.841448307E0,7.665258884E0,1.047358803E1
2.607702565E0,2.057272673E0,-6.846236706E0,7.691593647E0,1.050066382E1
2.610108503E0,2.050090313E0,-6.860601425E0,7.741869926E0,1.054548587E1
2.612514597E0,2.062060833E0,-6.867783546E0,7.813693047E0,1.060529796E1
2.614920847E0,2.081213713E0,-6.910877228E0,7.837634087E0,1.065458505E1
2.617326836E0,2.045302153E0,-6.953971386E0,7.825663567E0,1.066686407E1
2.619732982E0,2.028543472E0,-6.963547230E0,7.849604607E0,1.068748198E1
2.622138867E0,2.023755074E0,-6.997065067E0,7.916639328E0,1.075768016E1
2.624544701E0,1.990238070E0,-7.056917191E0,7.971703529E0,1.083093648E1
2.626951211E0,1.949538350E0,-7.100011349E0,8.021980286E0,1.088866514E1
2.629357201E0,1.930385470E0,-7.150287151E0,8.072256088E0,1.095510442E1
2.631762826E0,1.906444430E0,-7.174228191E0,8.091408730E0,1.098066372E1
2.634169232E0,1.927991509E0,-7.202957153E0,8.086620331E0,1.099968960E1
2.636575847E0,1.968690991E0,-7.219716549E0,8.129714012E0,1.104953851E1
2.638982826E0,2.038120031E0,-7.222110271E0,8.168020248E0,1.109186030E1
2.641389284E0,2.078819513E0,-7.238868713E0,8.187171936E0,1.112440988E1
2.643795430E0,2.165007114E0,-7.262809753E0,8.160837173E0,1.113709678E1
2.646202149E0,2.191342115E0,-7.286750793E0,8.136896133E0,1.114036786E1
2.648608347E0,2.222465515E0,-7.344209194E0,8.098590851E0,1.115634059E1
2.651014128E0,2.234436035E0,-7.396879196E0,8.124925613E0,1.121253506E1
2.653420430E0,2.220071316E0,-7.463914394E0,8.227871895E0,1.132857496E1
2.655826784E0,2.176977634E0,-7.507007599E0,8.330818176E0,1.142352512E1
2.658233503E0,2.141066074E0,-7.559678555E0,8.448128700E0,1.153706125E1
2.660639961E0,2.097972393E0,-7.607560158E0,8.510375977E0,1.160616039E1
2.663046055E0,2.074031353E0,-7.631500721E0,8.596563339E0,1.168085230E1
2.665452878E0,2.071637154E0,-7.619530201E0,8.654022217E0,1.171499131E1
2.667859440E0,2.057272673E0,-7.629106998E0,8.716267586E0,1.176473396E1
2.670265222E0,2.069243193E0,-7.595589638E0,8.778514862E0,1.179139824E1
2.672671315E0,2.114730835E0,-7.550101757E0,8.833579063E0,1.181136072E1
2.675077357E0,2.176977634E0,-7.497431278E0,8.819214821E0,1.177833848E1
2.677483659E0,2.253588676E0,-7.439973354E0,8.807244301E0,1.174731534E1
2.679889753E0,2.294288397E0,-7.337027073E0,8.807244301E0,1.169030700E1
2.682295430E0,2.344564438E0,-7.262809753E0,8.773726463E0,1.162857102E1
2.684701680E0,2.402022839E0,-7.186198711E0,8.819214821E0,1.162711124E1
2.687107617E0,2.423569679E0,-7.097616673E0,8.895826340E0,1.163553087E1
2.689513399E0,2.471451759E0,-7.018611908E0,8.948495865E0,1.163806535E1
2.691919440E0,2.473845959E0,-6.944395065E0,9.039471626E0,1.166432955E1
2.694325378E0,2.504969120E0,-6.865389347E0,9.084959984E0,1.165954283E1
2.696731732E0,2.536092520E0,-6.781595707E0,9.094535828E0,1.162464569E1
2.699137617E0,2.550457001E0,-6.721743107E0,9.116083145E0,1.160989376E1
2.701543190E0,2.572003841E0,-6.661890984E0,9.149600029E0,1.160651437E1
2.703949649E0,2.581580162E0,-6.590068340E0,9.197482109E0,1.160548293E1
2.706355742E0,2.615097761E0,-6.546974182E0,9.257334709E0,1.163614426E1
2.708761472E0,2.646220922E0,-6.494304180E0,9.281275749E0,1.163273620E1
2.711167617E0,2.674950123E0,-6.427269459E0,9.290851593E0,1.160969742E1
2.713573659E0,2.698891163E0,-6.405722141E0,9.295639992E0,1.160716212E1
2.715980169E0,2.753955364E0,-6.355446339E0,9.317187309E0,1.160973504E1
2.718386159E0,2.794655085E0,-6.300382137E0,9.290851593E0,1.156826847E1
2.720791576E0,2.828172445E0,-6.271652699E0,9.288457870E0,1.155887696E1
2.723197982E0,2.844931126E0,-6.223770618E0,9.290851593E0,1.153901543E1
2.725604024E0,2.876054525E0,-6.180677414E0,9.276487350E0,1.151197987E1
2.728009544E0,2.916754246E0,-6.144765854E0,9.240575790E0,1.147405088E1
2.730415378E0,2.928724766E0,-6.128006935E0,9.230999947E0,1.146042136E1
2.732821211E0,2.935906887E0,-6.106460571E0,9.223816872E0,1.144496429E1
2.735227565E0,2.950271368E0,-6.068154812E0,9.211847305E0,1.141861352E1
2.737633607E0,2.983788967E0,-6.032243252E0,9.197482109E0,1.139669392E1
2.740039336E0,2.940695286E0,-6.010696411E0,9.197482109E0,1.137408622E1
2.742446159E0,2.964636087E0,-5.974784851E0,9.192693710E0,1.135749703E1
2.744852878E0,2.952665567E0,-5.931690693E0,9.195087433E0,1.133370290E1
2.747259232E0,2.986182928E0,-5.912538528E0,9.197482109E0,1.133442003E1
2.749665794E0,2.950271368E0,-5.883808613E0,9.178328514E0,1.129446852E1
2.752072409E0,2.983788967E0,-5.838321209E0,9.173541069E0,1.127576369E1
2.754479440E0,3.000547647E0,-5.797621250E0,9.168752670E0,1.125529759E1
2.756885951E0,2.971818447E0,-5.756921768E0,9.163965225E0,1.122283885E1
2.759292044E0,3.000547647E0,-5.718616486E0,9.123265266E0,1.117764867E1
2.761698972E0,3.000547647E0,-5.675522327E0,9.123265266E0,1.115566264E1
2.764105482E0,3.014912128E0,-5.630034447E0,9.135235786E0,1.114627812E1
2.766511784E0,3.041247129E0,-5.574970245E0,9.108901024E0,1.110412334E1
2.768918659E0,3.069976330E0,-5.536664963E0,9.089747429E0,1.107713509E1
2.771325274E0,3.079552889E0,-5.491176605E0,9.072988510E0,1.104335941E1
2.773732253E0,3.081946850E0,-5.421747684E0,9.034684181E0,1.097812655E1
2.776138867E0,3.098705769E0,-5.385836124E0,8.974830627E0,1.091589634E1
2.778544961E0,3.108281851E0,-5.347530842E0,8.960465431E0,1.088794944E1
2.780951992E0,3.098705769E0,-5.297255039E0,9.029894829E0,1.091796176E1
2.783358763E0,3.117858410E0,-5.266131401E0,9.072988510E0,1.094405325E1
2.785765274E0,3.132222891E0,-5.215855122E0,9.104111671E0,1.094992302E1
2.788172201E0,3.103493929E0,-5.139244556E0,9.123265266E0,1.092142291E1
2.790578763E0,3.139405251E0,-5.127274036E0,9.144811630E0,1.094405702E1
2.792985794E0,3.151375771E0,-5.055450916E0,9.132842064E0,1.090401565E1
2.795392565E0,3.177711010E0,-5.000386238E0,9.087353706E0,1.084811998E1
2.797798919E0,3.196863651E0,-4.935745716E0,9.017925262E0,1.076589518E1
2.800206315E0,3.225592852E0,-4.878287315E0,8.953284264E0,1.069408413E1
2.802613347E0,3.256716251E0,-4.820829391E0,8.871885300E0,1.060928582E1
2.805019857E0,3.297415972E0,-4.751400471E0,8.800062180E0,1.053042510E1
2.807426419E0,3.311780453E0,-4.698730469E0,8.723450661E0,1.044722687E1
2.809832826E0,3.323750973E0,-4.648453712E0,8.704298019E0,1.041250433E1
2.812239440E0,3.369238615E0,-4.567054749E0,8.668385506E0,1.036101661E1
2.814645326E0,3.352480173E0,-4.516778946E0,8.665991783E0,1.033149694E1
2.817051003E0,3.400362253E0,-4.459320545E0,8.649233818E0,1.030811568E1
2.819457513E0,3.385997534E0,-4.416226387E0,8.630081177E0,1.026870663E1
2.821863763E0,3.405150175E0,-4.349191666E0,8.637263298E0,1.025245498E1
2.824269649E0,3.436273336E0,-4.294127464E0,8.601351738E0,1.020934654E1
2.826675742E0,3.467396975E0,-4.236669064E0,8.615715981E0,1.020797572E1
2.829081888E0,3.529643536E0,-4.183999062E0,8.610927582E0,1.020354377E1
2.831488607E0,3.589495897E0,-4.104993820E0,8.586986542E0,1.017210858E1
2.833895065E0,3.601466417E0,-4.071476460E0,8.565440178E0,1.014466591E1
2.836301159E0,3.658924580E0,-3.994865417E0,8.563045502E0,1.013274035E1
2.838708034E0,3.709200621E0,-3.946983337E0,8.594168663E0,1.015857183E1
2.841114336E0,3.771447420E0,-3.875160217E0,8.570227623E0,1.013358199E1
2.843520169E0,3.833693743E0,-3.829672575E0,8.563045502E0,1.013357528E1
2.845926315E0,3.876787901E0,-3.760243654E0,8.586986542E0,1.014422272E1
2.848332357E0,3.946216822E0,-3.697997093E0,8.663598061E0,1.021301822E1
2.850738867E0,4.027616024E0,-3.659691572E0,8.701904297E0,1.026343859E1
2.853145117E0,4.063527584E0,-3.595050812E0,8.768939018E0,1.031168940E1
2.855550899E0,4.130562782E0,-3.539986610E0,8.773726463E0,1.032333910E1
2.857957669E0,4.204779625E0,-3.496892929E0,8.835972786E0,1.039147953E1
2.860364128E0,4.259843826E0,-3.444222689E0,8.907795906E0,1.045742642E1
2.862770169E0,4.341243267E0,-3.401128769E0,8.979619026E0,1.053791383E1
2.865176836E0,4.355607510E0,-3.360429049E0,9.025106430E0,1.056959537E1
2.867583555E0,4.437006950E0,-3.341276407E0,9.135235786E0,1.069129045E1
2.869990690E0,4.487283230E0,-3.293394327E0,9.276487350E0,1.081828889E1
2.872397357E0,4.525588512E0,-3.286211967E0,9.374646187E0,1.091623248E1
2.874803294E0,4.585441113E0,-3.281423807E0,9.477591515E0,1.102808929E1
2.877209649E0,4.645293713E0,-3.247906685E0,9.578144073E0,1.112962243E1
2.879615794E0,4.666840553E0,-3.219177246E0,9.580537796E0,1.113234959E1
2.882021784E0,4.724298477E0,-3.216783285E0,9.594902992E0,1.116820730E1
2.884427982E0,4.793727875E0,-3.216783285E0,9.573355675E0,1.117929607E1
2.886834024E0,4.812880516E0,-3.202418566E0,9.556596756E0,1.116905748E1
2.889240378E0,4.872733116E0,-3.214389086E0,9.513503075E0,1.116165606E1
2.891646211E0,4.872733116E0,-3.211995125E0,9.439286232E0,1.109777299E1
2.894051472E0,4.879915237E0,-3.209600925E0,9.398587227E0,1.106564741E1
2.896457722E0,4.867944717E0,-3.188054085E0,9.384222031E0,1.104192908E1
2.898863659E0,4.875127316E0,-3.180871725E0,9.377039909E0,1.103692388E1
2.901269128E0,4.887097836E0,-3.156930923E0,9.408163071E0,1.106180232E1
2.903674857E0,4.872733116E0,-3.154536486E0,9.434497833E0,1.107720081E1
2.906080794E0,4.855974197E0,-3.111442804E0,9.417738914E0,1.104334044E1
2.908487305E0,4.829638958E0,-3.056378603E0,9.381828308E0,1.098569820E1
2.910893711E0,4.851186275E0,-3.042014122E0,9.295639992E0,1.091772783E1
2.913299492E0,4.867944717E0,-3.001314402E0,9.219028473E0,1.084874462E1
2.915705794E0,4.906250000E0,-2.941461802E0,9.075383186E0,1.072781742E1
2.918112097E0,4.918220520E0,-2.907944679E0,8.910189629E0,1.058473025E1
2.920518190E0,4.915826797E0,-2.843303919E0,8.785696983E0,1.046127152E1
2.922924492E0,4.915826797E0,-2.802603960E0,8.620503426E0,1.031179041E1
2.925330638E0,4.908644676E0,-2.737963676E0,8.522345543E0,1.020889863E1
2.927736992E0,4.930191040E0,-2.692475557E0,8.457705498E0,1.015327487E1
2.930143034E0,4.920615196E0,-2.627834797E0,8.421793938E0,1.010171187E1
2.932548659E0,4.954132080E0,-2.584741116E0,8.405035973E0,1.009301447E1
2.934954961E0,4.975678921E0,-2.512917995E0,8.361942291E0,1.004958787E1
2.937360899E0,5.004408836E0,-2.472218513E0,8.282936096E0,9.988143098E0
2.939766992E0,5.021167278E0,-2.419548273E0,8.213507652E0,9.926129288E0
2.942173711E0,5.037925720E0,-2.371666431E0,8.086620331E0,9.818295453E0
2.944580117E0,5.071443081E0,-2.328572512E0,7.938186646E0,9.703431975E0
2.946987044E0,5.136083603E0,-2.278296471E0,7.849604607E0,9.653304204E0
2.949393607E0,5.124113083E0,-2.237596750E0,7.763416767E0,9.567341010E0
2.951799597E0,5.126507759E0,-2.201685429E0,7.758628845E0,9.556402152E0
2.954206419E0,5.152842522E0,-2.175350428E0,7.720323563E0,9.533484748E0
2.956612930E0,5.176783562E0,-2.137044668E0,7.739475727E0,9.553299560E0
2.959018867E0,5.176783562E0,-2.093950987E0,7.770599365E0,9.569009002E0
2.961424961E0,5.207906723E0,-2.053251028E0,7.844816208E0,9.637389354E0
2.963830847E0,5.236636162E0,-1.979034066E0,7.885515690E0,9.670589011E0
2.966237201E0,5.279729843E0,-1.971851707E0,7.916639328E0,9.717866259E0
2.968643451E0,5.308459282E0,-1.907211065E0,7.902275085E0,9.708920925E0
2.971049232E0,5.368311882E0,-1.868905425E0,7.892698288E0,9.726575256E0
2.973455742E0,5.406617165E0,-1.849752665E0,7.878334045E0,9.732483826E0
2.975862044E0,5.449710846E0,-1.797082543E0,7.808904648E0,9.690606058E0
2.978267930E0,5.456892967E0,-1.761171103E0,7.837634087E0,9.711226111E0
2.980674180E0,5.521533489E0,-1.732441783E0,7.861574650E0,9.761815537E0
2.983080586E0,5.567021847E0,-1.684559941E0,7.859180927E0,9.777330888E0
2.985487826E0,5.600539207E0,-1.648648500E0,7.868757248E0,9.798031533E0
2.987894909E0,5.626873970E0,-1.603160620E0,7.883121967E0,9.817099704E0
2.990301524E0,5.691514492E0,-1.593584180E0,7.902275085E0,9.868069683E0
2.992708763E0,5.727426052E0,-1.543308139E0,7.923821449E0,9.898088480E0
2.995115222E0,5.753761292E0,-1.516972899E0,7.933398247E0,9.916944263E0
2.997521055E0,5.784884453E0,-1.469091058E0,7.919033051E0,9.916360276E0
2.999927201E0,5.811219692E0,-1.469091058E0,7.931003571E0,9.941293703E0
3.002333607E0,5.820796013E0,-1.442755938E0,7.942974091E0,9.952590031E0
3.004740378E0,5.808825493E0,-1.399662256E0,7.981280327E0,9.970072402E0
3.007146732E0,5.794461250E0,-1.387691736E0,8.002826691E0,9.977309486E0
3.009552513E0,5.792067051E0,-1.363750696E0,7.990856171E0,9.963013551E0
3.011958919E0,5.787278652E0,-1.332627296E0,8.031556129E0,9.988712808E0
3.014365169E0,5.801643372E0,-1.306292295E0,7.986068726E0,9.957045700E0
3.016771107E0,5.789672852E0,-1.279957175E0,7.933398247E0,9.904413655E0
3.019177044E0,5.808825493E0,-1.258410335E0,7.830451965E0,9.830667737E0
3.021582982E0,5.792067051E0,-1.234469295E0,7.703564167E0,9.716833643E0
3.023989649E0,5.796854973E0,-1.200951934E0,7.626953602E0,9.654855481E0
3.026395951E0,5.789672852E0,-1.155464053E0,7.543159962E0,9.578865857E0
3.028801992E0,5.804037571E0,-1.112370372E0,7.490489960E0,9.541051295E0
3.031208815E0,5.792067051E0,-1.107582092E0,7.449790001E0,9.501270961E0
3.033614961E0,5.851919651E0,-1.059700131E0,7.413878441E0,9.504394852E0
3.036020586E0,5.890224934E0,-9.830890298E-1,7.382755280E0,9.495593153E0
3.038426472E0,5.950077534E0,-9.304189086E-1,7.279808998E0,9.448000902E0
3.040832357E0,6.017112255E0,-8.753545880E-1,7.181651115E0,9.409994596E0
3.043238763E0,6.096117496E0,-8.250784874E-1,7.076310158E0,9.376436876E0
3.045645013E0,6.182305336E0,-7.508614659E-1,7.002093315E0,9.370912602E0
3.048050794E0,6.290039539E0,-7.005853653E-1,6.930270195E0,9.385310982E0
3.050457253E0,6.349892139E0,-6.431270242E-1,6.891964912E0,9.393291378E0
3.052863242E0,6.438473701E0,-5.952450037E-1,6.853659153E0,9.422361912E0
3.055269024E0,6.507902622E0,-5.401807427E-1,6.829718590E0,9.449319964E0
3.057675222E0,6.586907864E0,-4.922987819E-1,6.786624908E0,9.470374382E0
3.060081159E0,6.608454704E0,-4.372345209E-1,6.789019108E0,9.484388649E0
3.062487722E0,6.668307304E0,-3.869584203E-1,6.777048588E0,9.515484574E0
3.064894024E0,6.725765705E0,-3.510469198E-1,6.777048588E0,9.554451623E0
3.067300013E0,6.785618305E0,-3.007708788E-1,6.824930191E0,9.628849932E0
3.069706940E0,6.828711510E0,-2.576770782E-1,6.796200752E0,9.637740556E0
3.072113607E0,6.833499432E0,-2.265538126E-1,6.822536469E0,9.658936017E0
3.074519909E0,6.847864628E0,-2.074010372E-1,6.805777550E0,9.656856280E0
3.076926524E0,6.852652550E0,-1.762777418E-1,6.784230232E0,9.644464768E0
3.079333034E0,6.840682030E0,-1.427603662E-1,6.779442310E0,9.632037645E0
3.081739805E0,6.809558868E0,-1.236075610E-1,6.815353870E0,9.635061971E0
3.084146159E0,6.792799950E0,-1.283957660E-1,6.844082832E0,9.643655243E0
3.086551992E0,6.776041508E0,-9.248428047E-2,6.810565948E0,9.607658424E0
3.088958711E0,6.744918346E0,-6.614919752E-2,6.781836510E0,9.565124446E0
3.091365117E0,6.706612587E0,-1.587312669E-2,6.729166508E0,9.500557154E0
3.093771367E0,6.704218864E0,1.764425635E-2,6.642978668E0,9.438009721E0
3.096178034E0,6.718583107E0,8.707313240E-2,6.544820786E0,9.379851801E0
3.098584440E0,6.764070988E0,1.588960737E-1,6.434692383E0,9.337192852E0
3.100991263E0,6.816740990E0,2.163544744E-1,6.348504543E0,9.317632581E0
3.103397617E0,6.893352032E0,3.025419712E-1,6.286257744E0,9.334177537E0
3.105803503E0,6.946022511E0,3.743649721E-1,6.257528782E0,9.356497438E0
3.108210169E0,7.008269310E0,4.485819936E-1,6.216829300E0,9.379020795E0
3.110616315E0,7.082486153E0,5.204049945E-1,6.214435101E0,9.436717389E0
3.113022305E0,7.204585075E0,6.257452965E-1,6.180917740E0,9.513219612E0
3.115429180E0,7.309925556E0,7.047505975E-1,6.006148338E0,9.487123005E0
3.117836159E0,7.432024479E0,7.885440588E-1,5.812226295E0,9.467775034E0
3.120243399E0,7.602005482E0,8.962785006E-1,5.673368931E0,9.527902052E0
3.122650274E0,7.728892803E0,9.776778817E-1,5.512964249E0,9.543815422E0
3.125056315E0,7.898873806E0,1.054289103E0,5.388470650E0,9.619737463E0
3.127463138E0,8.001819611E0,1.133294344E0,5.326224327E0,9.678953390E0
3.129869805E0,8.088006973E0,1.183570385E0,5.254401207E0,9.717274705E0
3.132275534E0,8.171800613E0,1.241028786E0,5.208913326E0,9.769915852E0
3.134681419E0,8.219682693E0,1.320034027E0,5.156243324E0,9.792472550E0
3.137087930E0,8.272352219E0,1.343975067E0,5.141879082E0,9.832446323E0
3.139495013E0,8.351357460E0,1.399039268E0,5.101179600E0,9.885571082E0
3.141901992E0,8.435152054E0,1.458891749E0,5.132302284E0,9.981016083E0
3.144308503E0,8.538097382E0,1.513956070E0,5.151455402E0,1.008606279E1
3.146715638E0,8.585979462E0,1.571414471E0,5.182578564E0,1.015123181E1
3.149122461E0,8.643437386E0,1.607325912E0,5.187366962E0,1.020790294E1
3.151528815E0,8.657802582E0,1.664784312E0,5.146667004E0,1.020868422E1
3.153935222E0,8.664984703E0,1.698301673E0,5.125120163E0,1.020945861E1
3.156341628E0,8.684137344E0,1.772518635E0,5.098784924E0,1.022514897E1
3.158748294E0,8.629074097E0,1.803641915E0,5.429171085E0,1.035325758E1
3.161154440E0,8.609920502E0,1.853918076E0,5.749979973E0,1.051808029E1
3.163560222E0,8.581192017E0,1.887435436E0,5.529722691E0,1.038157512E1
3.165966888E0,8.518944740E0,1.911376476E0,6.434692383E0,1.084578469E1
3.168373190E0,8.497397423E0,1.992775798E0,5.936719418E0,1.055564095E1
3.170778659E0,8.463880539E0,2.004746199E0,6.453845024E0,1.083090009E1
3.173184492E0,8.471062660E0,2.028687239E0,6.472997665E0,1.085238100E1
3.175590638E0,8.451910019E0,2.081357479E0,6.233587742E0,1.070628078E1
3.177997409E0,8.435152054E0,2.081357479E0,6.834506989E0,1.105415419E1
3.180403763E0,8.466274261E0,2.134027481E0,6.121065617E0,1.066298820E1
3.182809544E0,8.425574303E0,2.131633520E0,6.561579227E0,1.088983406E1
3.185216003E0,8.451910019E0,2.174727201E0,6.307805061E0,1.076813011E1
3.187621940E0,8.437545776E0,2.162756681E0,5.958266258E0,1.055322851E1
3.190027409E0,8.404028893E0,2.160362720E0,6.310198784E0,1.072909490E1
3.192433451E0,8.399239540E0,2.186697721E0,5.541693211E0,1.029753541E1
3.194839649E0,8.317840576E0,2.153180122E0,6.030089378E0,1.049688689E1
3.197246263E0,8.289112091E0,2.179515362E0,5.587181568E0,1.023114189E1
3.199652201E0,8.174194336E0,2.160362720E0,5.517752171E0,1.009604918E1
3.202057565E0,8.047307968E0,2.165150642E0,5.936719418E0,1.023189524E1
3.204464076E0,7.953938007E0,2.189091682E0,5.323830605E0,9.818371786E0
3.206870430E0,7.798321724E0,2.174727201E0,6.001360416E0,1.007767766E1
3.209276211E0,7.704951763E0,2.184303522E0,5.647033691E0,9.799308805E0
3.211682201E0,7.594823360E0,2.196274042E0,5.738009453E0,9.768813338E0
3.214088399E0,7.513423920E0,2.220214844E0,6.034877777E0,9.889420748E0
3.216494857E0,7.482300758E0,2.260914564E0,5.407623768E0,9.504680643E0
3.218900794E0,7.391324520E0,2.258520603E0,6.022907257E0,9.798367482E0
3.221306472E0,7.360201836E0,2.308796644E0,5.465082169E0,9.453583242E0
3.223713190E0,7.288378716E0,2.301614523E0,5.572816372E0,9.459079026E0
3.226119440E0,7.293166637E0,2.356678724E0,5.764344215E0,9.590196997E0
3.228525326E0,7.271620274E0,2.416531086E0,5.182578564E0,9.250686702E0
3.230931524E0,7.254861355E0,2.430895567E0,5.800255775E0,9.601314160E0
3.233337253E0,7.302742958E0,2.488354206E0,5.110755444E0,9.254284552E0
3.235743451E0,7.309925556E0,2.521871328E0,5.290312767E0,9.369218527E0
3.238149492E0,7.360201836E0,2.584117889E0,5.201731205E0,9.375939625E0
3.240555117E0,7.417660236E0,2.617635489E0,4.564900875E0,9.094614831E0
3.242961784E0,7.432024479E0,2.670305729E0,5.058085442E0,9.378152743E0
3.245367878E0,7.506241798E0,2.742128611E0,4.244091988E0,9.048494463E0
3.247773294E0,7.520606041E0,2.775645971E0,4.545748234E0,9.215614618E0
3.250179180E0,7.558911800E0,2.847468853E0,4.385344028E0,9.191108134E0
3.252585274E0,7.549335480E0,2.869015694E0,4.004682064E0,9.014499191E0
3.254991784E0,7.563700199E0,2.921685934E0,4.294367790E0,9.175369427E0
3.257397774E0,7.592429161E0,2.988720655E0,4.208180428E0,9.180752378E0
3.259803607E0,7.606793880E0,3.053361416E0,4.263244152E0,9.239133064E0
3.262210586E0,7.637917042E0,3.108425617E0,4.193815708E0,9.251387828E0
3.264617044E0,7.671434879E0,3.163489819E0,4.265638828E0,9.330287003E0
3.267022930E0,7.714528084E0,3.228130579E0,4.227333069E0,9.370438382E0
3.269429597E0,7.769592762E0,3.314318180E0,4.251274109E0,9.456458546E0
3.271836107E0,7.817474842E0,3.355017900E0,4.222544670E0,9.497312331E0
3.274242669E0,7.848598003E0,3.405293941E0,4.234515190E0,9.546079632E0
3.276648711E0,7.882114887E0,3.469934702E0,4.251274109E0,9.604244555E0
3.279054544E0,7.927603245E0,3.524998903E0,4.251274109E0,9.661565195E0
3.281461211E0,7.929996967E0,3.580063105E0,4.196209908E0,9.659703998E0
3.283867253E0,7.953938007E0,3.649492025E0,4.119598866E0,9.672384229E0
3.286273034E0,7.970696926E0,3.709344387E0,4.066928387E0,9.686648119E0
3.288679336E0,7.968302250E0,3.757226467E0,4.023834705E0,9.685134857E0
3.291085378E0,7.961120129E0,3.829049349E0,3.949617863E0,9.676803908E0
3.293491628E0,7.968302250E0,3.888901949E0,3.925676823E0,9.696821006E0
3.295897617E0,7.937180042E0,3.941571951E0,3.906523705E0,9.684820283E0
3.298303190E0,7.903662205E0,4.008606911E0,3.906523705E0,9.684922977E0
3.300709857E0,7.903662205E0,4.066065311E0,3.944829464E0,9.724322232E0
3.303116003E0,7.860568523E0,4.128312111E0,3.961587906E0,9.722431647E0
3.305521524E0,7.815080166E0,4.228864193E0,3.968770504E0,9.731901647E0
3.307927826E0,7.795927525E0,4.262381554E0,4.011864185E0,9.748817196E0
3.310334336E0,7.762410164E0,4.307868958E0,4.019046783E0,9.745023528E0
3.312740847E0,7.750439644E0,4.372509956E0,4.090869427E0,9.794047716E0
3.315146836E0,7.726498604E0,4.434756756E0,4.157904148E0,9.831277387E0
3.317552617E0,7.690587044E0,4.444333076E0,4.220150948E0,9.833966626E0
3.319959440E0,7.678616524E0,4.504185677E0,4.246485710E0,9.863137493E0
3.322365742E0,7.685799122E0,4.537702560E0,4.263244152E0,9.891284212E0
3.324771576E0,7.666646004E0,4.571220398E0,4.299155712E0,9.907383949E0
3.327178086E0,7.657069683E0,4.602343559E0,4.332673550E0,9.928964823E0
3.329584388E0,7.625946522E0,4.604737759E0,4.306338310E0,9.894605592E0
3.331991211E0,7.606793880E0,4.607131481E0,4.327885151E0,9.890377319E0
3.334397669E0,7.551729679E0,4.609525681E0,4.318308830E0,9.845005805E0
3.336803659E0,7.496665001E0,4.609525681E0,4.284791470E0,9.788112743E0
3.339210378E0,7.439206600E0,4.607131481E0,4.301550388E0,9.750425174E0
3.341616732E0,7.333866596E0,4.576008797E0,4.349432468E0,9.676932291E0
3.344022878E0,7.269225597E0,4.554461479E0,4.373373508E0,9.628663251E0
3.346429544E0,7.173462391E0,4.544885159E0,4.378161430E0,9.554205424E0
3.348836159E0,7.082486153E0,4.530520439E0,4.418860912E0,9.498081770E0
3.351242878E0,7.005875111E0,4.513761520E0,4.433225155E0,9.439799490E0
3.353648972E0,6.895746708E0,4.525732040E0,4.428437233E0,9.361871046E0
3.356054649E0,6.826317787E0,4.516156197E0,4.433225155E0,9.308478211E0
3.358461107E0,6.706612587E0,4.528126717E0,4.426043510E0,9.223472508E0
3.360867565E0,6.618031025E0,4.535308838E0,4.433225155E0,9.166288571E0
3.363273867E0,6.534237862E0,4.535308838E0,4.430831432E0,9.104809601E0
3.365680430E0,6.452837944E0,4.547279358E0,4.416466713E0,9.045553898E0
3.368086888E0,6.388197422E0,4.566431999E0,4.390131950E0,8.996367381E0
3.370493763E0,6.342709541E0,4.604737759E0,4.332673550E0,8.955759836E0
3.372900065E0,6.309192181E0,4.638255119E0,4.244091988E0,8.906830712E0
3.375305847E0,6.294827461E0,4.669378281E0,4.126780987E0,8.857667165E0
3.377712461E0,6.263704300E0,4.722048759E0,3.978346825E0,8.795395358E0
3.380118867E0,6.275674820E0,4.762748241E0,3.815548420E0,8.753643527E0
3.382524909E0,6.275674820E0,4.822600842E0,3.676690578E0,8.726948317E0
3.384931159E0,6.273280621E0,4.872876644E0,3.561773777E0,8.705470060E0
3.387337305E0,6.275674820E0,4.944699764E0,3.492344856E0,8.719554048E0
3.389743867E0,6.273280621E0,5.028492928E0,3.430098057E0,8.741016162E0
3.392149961E0,6.325951099E0,5.062010765E0,3.398974895E0,8.786048067E0
3.394555586E0,6.335526943E0,5.150592327E0,3.413339615E0,8.849767810E0
3.396961784E0,6.361862659E0,5.217626572E0,3.413339615E0,8.907738819E0
3.399367669E0,6.397774220E0,5.260720730E0,3.413339615E0,8.958659771E0
3.401773451E0,6.450444221E0,5.339725971E0,3.427704334E0,9.048207618E0
3.404179701E0,6.491143703E0,5.387607574E0,3.511497974E0,9.137389123E0
3.406586107E0,6.524661064E0,5.435489655E0,3.564167976E0,9.209725466E0
3.408992826E0,6.539025784E0,5.497736454E0,3.578532696E0,9.262281607E0
3.411399076E0,6.553390026E0,5.540830135E0,3.645567417E0,9.324048542E0
3.413804961E0,6.553390026E0,5.559983253E0,3.691054821E0,9.353299969E0
3.416211211E0,6.517478466E0,5.576741695E0,3.729360580E0,9.353379273E0
3.418617253E0,6.462414742E0,5.559983253E0,3.767666340E0,9.320489672E0
3.421023190E0,6.402562141E0,5.595894814E0,3.849065781E0,9.333924583E0
3.423429544E0,6.311586380E0,5.574347496E0,3.892159462E0,9.276765488E0
3.425835899E0,6.254127979E0,5.564771175E0,3.971164703E0,9.265578456E0
3.428242878E0,6.146393776E0,5.552800655E0,4.004682064E0,9.200501617E0
3.430649128E0,6.053023815E0,5.540830135E0,4.081293106E0,9.164979504E0
3.433054805E0,5.947683334E0,5.536042213E0,4.071716785E0,9.088541028E0
3.435461628E0,5.866284370E0,5.512101173E0,4.081293106E0,9.025159560E0
3.437868190E0,5.780096531E0,5.495342255E0,4.069322586E0,8.953641087E0
3.440274336E0,5.674756050E0,5.466613293E0,4.052563667E0,8.860586290E0
3.442680274E0,5.586174488E0,5.464219093E0,4.042987823E0,8.798226313E0
3.445086003E0,5.483228207E0,5.449854851E0,4.031017303E0,8.718704603E0
3.447492722E0,5.394646645E0,5.471401215E0,3.973558426E0,8.650295384E0
3.449899284E0,5.303670883E0,5.454642773E0,3.949617863E0,8.572137066E0
3.452305326E0,5.234241962E0,5.452248573E0,3.899341583E0,8.504655678E0
3.454712044E0,5.145659924E0,5.466613293E0,3.880188942E0,8.450890081E0
3.457118138E0,5.066655159E0,5.454642773E0,3.834701061E0,8.374309196E0
3.459523763E0,5.025955200E0,5.473795891E0,3.825124741E0,8.357885283E0
3.461929701E0,4.970890999E0,5.497736454E0,3.777242661E0,8.318799526E0
3.464335742E0,4.899068356E0,5.521677494E0,3.724572659E0,8.268145777E0
3.466742253E0,4.839215755E0,5.543224335E0,3.679084778E0,8.226846902E0
3.469148503E0,4.793727875E0,5.588712215E0,3.667114258E0,8.225646366E0
3.471554388E0,4.755422115E0,5.607865334E0,3.626414299E0,8.198357992E0
3.473960951E0,4.714722633E0,5.653352737E0,3.559379578E0,8.176685738E0
3.476367097E0,4.697963715E0,5.715599537E0,3.528256416E0,8.196800258E0
3.478773034E0,4.671628475E0,5.773057461E0,3.487556934E0,8.204593739E0
3.481179440E0,4.657264233E0,5.825727940E0,3.434886456E0,8.211434778E0
3.483585794E0,4.654870033E0,5.904733181E0,3.391792774E0,8.248511817E0
3.485992617E0,4.671628475E0,5.962191582E0,3.365457535E0,8.288434441E0
3.488399128E0,4.705146313E0,6.019649982E0,3.346304893E0,8.341003787E0
3.490805222E0,4.721904755E0,6.089078426E0,3.348699093E0,8.401609739E0
3.493211836E0,4.743451595E0,6.153719902E0,3.370245934E0,8.469188823E0
3.495617878E0,4.779363155E0,6.206389427E0,3.370245934E0,8.527610424E0
3.498023815E0,4.779363155E0,6.244695187E0,3.406157017E0,8.569739539E0
3.500430378E0,4.796121597E0,6.297365665E0,3.485162735E0,8.649043646E0
3.502836836E0,4.820062637E0,6.326094627E0,3.566562176E0,8.716240177E0
3.505243399E0,4.853579998E0,6.364400387E0,3.616837978E0,8.783185529E0
3.507649388E0,4.844003677E0,6.402705669E0,3.671902180E0,8.828469694E0
3.510055169E0,4.834427834E0,6.431435108E0,3.707813740E0,8.859059361E0
3.512461940E0,4.879915237E0,6.462558270E0,3.726966381E0,8.914511233E0
3.514868294E0,4.877521038E0,6.500863552E0,3.719784260E0,8.938021780E0
3.517274440E0,4.879915237E0,6.531987190E0,3.717390060E0,8.960994266E0
3.519681107E0,4.872733116E0,6.565504551E0,3.695843220E0,8.972660427E0
3.522087617E0,4.870338917E0,6.599021435E0,3.707813740E0,9.000842616E0
3.524494597E0,4.870338917E0,6.610991955E0,3.710207939E0,9.010608123E0
3.526901315E0,4.834427834E0,6.630145073E0,3.734148979E0,9.015230711E0
3.529307774E0,4.827245235E0,6.666056633E0,3.770060539E0,9.052732409E0
3.531714961E0,4.781757355E0,6.692391872E0,3.762877941E0,9.045029728E0
3.534121576E0,4.712327957E0,6.706756115E0,3.796395302E0,9.033229193E0
3.536527878E0,4.666840553E0,6.711544514E0,3.789213181E0,9.010125806E0
3.538934701E0,4.626140594E0,6.752243996E0,3.808365822E0,9.027603559E0
3.541341576E0,4.554317474E0,6.773791313E0,3.851459980E0,9.025508318E0
3.543748763E0,4.508830070E0,6.802520275E0,3.894553661E0,9.042752840E0
3.546155378E0,4.432218552E0,6.843220234E0,3.887371063E0,9.032490146E0
3.548561419E0,4.391519070E0,6.871949196E0,3.923282623E0,9.049932156E0
3.550968190E0,4.343636990E0,6.917437077E0,3.952012062E0,9.073947176E0
3.553374701E0,4.314908028E0,6.946166039E0,3.954405785E0,9.083225145E0
3.555780430E0,4.271814346E0,6.979683876E0,3.940041542E0,9.082307646E0
3.558186628E0,4.250267029E0,7.008412838E0,3.973558426E0,9.108885052E0
3.560593294E0,4.214355469E0,7.053900719E0,3.949617863E0,9.116895778E0
3.563000378E0,4.180838585E0,7.092206001E0,3.925676823E0,9.120840737E0
3.565407097E0,4.176050186E0,7.132905483E0,3.932858944E0,9.153420960E0
3.567813399E0,4.171262264E0,7.173605442E0,3.899341583E0,9.168691766E0
3.570220638E0,4.171262264E0,7.216699123E0,3.868218422E0,9.189302959E0
3.572627669E0,4.173655987E0,7.223881721E0,3.865824223E0,9.195024108E0
3.575034128E0,4.180838585E0,7.266975880E0,3.822730541E0,9.214207427E0
3.577440899E0,4.161685467E0,7.322039604E0,3.798789501E0,9.239193231E0
3.579847669E0,4.168868065E0,7.338798046E0,3.784424782E0,9.249826411E0
3.582254649E0,4.180838585E0,7.369921684E0,3.755695820E0,9.268247299E0
3.584661107E0,4.180838585E0,7.424986362E0,3.746119499E0,9.308235335E0
3.587067044E0,4.202384949E0,7.453715324E0,3.736543179E0,9.337005212E0
3.589473555E0,4.204779625E0,7.470473766E0,3.762877941E0,9.362019034E0
3.591879597E0,4.202384949E0,7.489626884E0,3.748513699E0,9.370480515E0
3.594285482E0,4.216750145E0,7.494414806E0,3.784424782E0,9.395163969E0
3.596692097E0,4.235902786E0,7.532720089E0,3.825124741E0,9.450731381E0
3.599098451E0,4.231114864E0,7.549479008E0,3.863430023E0,9.477502721E0
3.601504857E0,4.214355469E0,7.563843727E0,3.899341583E0,9.496177585E0
3.603911107E0,4.216750145E0,7.575814247E0,3.942435265E0,9.524533538E0
3.606317253E0,4.185626507E0,7.609331608E0,3.983135223E0,9.554410656E0
3.608724232E0,4.176050186E0,7.616513729E0,4.002287865E0,9.563941901E0
3.611130690E0,4.159291744E0,7.635666847E0,3.999893665E0,9.570907238E0
3.613536784E0,4.149714947E0,7.642848969E0,4.014258385E0,9.578493873E0
3.615943503E0,4.152109146E0,7.685942650E0,3.997499466E0,9.606962411E0
3.618350117E0,4.132956505E0,7.707489491E0,3.956799984E0,9.599114013E0
3.620756732E0,4.156897545E0,7.721854210E0,3.923282623E0,9.607235616E0
3.623162826E0,4.137744427E0,7.709883690E0,3.851459980E0,9.560176747E0
3.625568763E0,4.128168106E0,7.755371571E0,3.832306862E0,9.585099686E0
3.627975794E0,4.132956505E0,7.752977848E0,3.789213181E0,9.568078778E0
3.630382357E0,4.104227066E0,7.762553692E0,3.779636860E0,9.559684849E0
3.632788503E0,4.077892303E0,7.769736290E0,3.772454262E0,9.551409258E0
3.635195430E0,4.068315506E0,7.776918888E0,3.786818981E0,9.558852256E0
3.637602513E0,4.034798622E0,7.769736290E0,3.760484219E0,9.528359958E0
3.640009544E0,3.994098425E0,7.769736290E0,3.774848461E0,9.516885265E0
3.642415690E0,3.955793142E0,7.769736290E0,3.724572659E0,9.481009592E0
3.644821524E0,3.919881582E0,7.776918888E0,3.710207939E0,9.466339417E0
3.647228399E0,3.871999502E0,7.772130013E0,3.667114258E0,9.425821559E0
3.649634649E0,3.814541101E0,7.781706810E0,3.633596897E0,9.397271471E0
3.652040638E0,3.804964781E0,7.784100533E0,3.583320618E0,9.376042061E0
3.654447513E0,3.764265060E0,7.808041573E0,3.552197456E0,9.367673746E0
3.656854336E0,3.749900341E0,7.810435772E0,3.499527454E0,9.344054362E0
3.659261367E0,3.740324259E0,7.841558933E0,3.449251175E0,9.347588231E0
3.661667930E0,3.723565340E0,7.851135731E0,3.391792774E0,9.327889865E0
3.664074024E0,3.716383219E0,7.865499973E0,3.351092815E0,9.322414769E0
3.666480794E0,3.718777180E0,7.877470493E0,3.327151775E0,9.324901288E0
3.668887149E0,3.737929821E0,7.891835213E0,3.279270172E0,9.327743309E0
3.671293399E0,3.749900341E0,7.889441013E0,3.257723331E0,9.322971274E0
3.673700326E0,3.728353739E0,7.882258892E0,3.243358612E0,9.303225351E0
3.676107044E0,3.733141661E0,7.879864693E0,3.240964413E0,9.302282761E0
3.678513919E0,3.725959301E0,7.884652615E0,3.291240692E0,9.321093544E0
3.680920430E0,3.725959301E0,7.879864693E0,3.327151775E0,9.329789881E0
3.683326472E0,3.709200621E0,7.903805733E0,3.365457535E0,9.357062505E0
3.685733034E0,3.716383219E0,7.891835213E0,3.410945415E0,9.366275454E0
3.688139024E0,3.709200621E0,7.891835213E0,3.418127537E0,9.366046558E0
3.690544909E0,3.735535860E0,7.901411533E0,3.458827496E0,9.399469135E0
3.692951107E0,3.728353739E0,7.884652615E0,3.499527454E0,9.397609316E0
3.695357149E0,3.754688740E0,7.906199455E0,3.494739056E0,9.424376819E0
3.697763555E0,3.792994261E0,7.901411533E0,3.513891697E0,9.442803849E0
3.700169701E0,3.826511621E0,7.910988331E0,3.509103298E0,9.462543713E0
3.702575638E0,3.876787901E0,7.934929371E0,3.513891697E0,9.504736893E0
3.704982513E0,3.910305262E0,7.939716816E0,3.566562176E0,9.542010067E0
3.707389180E0,3.939034224E0,7.963657856E0,3.592896938E0,9.583566428E0
3.709795117E0,3.986916304E0,7.970840931E0,3.628808498E0,9.622788467E0
3.712201003E0,3.986916304E0,7.994781971E0,3.633596897E0,9.644431906E0
3.714606940E0,4.030010223E0,8.011539459E0,3.650355339E0,9.682501795E0
3.717013607E0,4.056344986E0,8.028298378E0,3.633596897E0,9.701058494E0
3.719419909E0,4.087468624E0,8.045057297E0,3.609655857E0,9.719051500E0
3.721825690E0,4.073104382E0,8.078574181E0,3.578532696E0,9.729308113E0
3.724232253E0,4.080286026E0,8.085756302E0,3.494739056E0,9.707800477E0
3.726638659E0,4.065921783E0,8.116880417E0,3.432492733E0,9.705538316E0
3.729044597E0,4.013251781E0,8.143215179E0,3.408551693E0,9.697235068E0
3.731450847E0,3.958187342E0,8.176733017E0,3.389398575E0,9.696093675E0
3.733857201E0,3.893546343E0,8.191097260E0,3.377428055E0,9.677850883E0
3.736264076E0,3.814541101E0,8.203067780E0,3.398974895E0,9.664061007E0
3.738670534E0,3.749900341E0,8.205461502E0,3.418127537E0,9.647535794E0
3.741076628E0,3.699624300E0,8.248556137E0,3.466009617E0,9.681896559E0
3.743483659E0,3.639771938E0,8.241373062E0,3.485162735E0,9.659944565E0
3.745890117E0,3.606254578E0,8.246161461E0,3.513891697E0,9.661867613E0
3.748295899E0,3.606254578E0,8.262920380E0,3.578532696E0,9.699836160E0
3.750702461E0,3.584707737E0,8.258131981E0,3.602473736E0,9.696632941E0
3.753109180E0,3.582313776E0,8.277284622E0,3.631202698E0,9.722759163E0
3.755516107E0,3.582313776E0,8.262920380E0,3.657537937E0,9.720411974E0
3.757922669E0,3.596678257E0,8.265314102E0,3.674296379E0,9.734062131E0
3.760328659E0,3.611042738E0,8.294043541E0,3.679084778E0,9.765574879E0
3.762735169E0,3.608648777E0,8.303619385E0,3.743725300E0,9.797342497E0
3.765141367E0,3.618224859E0,8.313196182E0,3.760484219E0,9.815397264E0
3.767547097E0,3.584707737E0,8.334742546E0,3.825124741E0,9.846300937E0
3.769953451E0,3.553584337E0,8.365866661E0,3.865824223E0,9.877260934E0
3.772360065E0,3.505702496E0,8.382624626E0,3.877794743E0,9.879050444E0
3.774766940E0,3.469790936E0,8.423324585E0,3.882583141E0,9.902842928E0
3.777173399E0,3.364450693E0,8.435295105E0,3.932858944E0,9.896520169E0
3.779579388E0,3.297415972E0,8.444871902E0,3.992711544E0,9.906086968E0
3.781986159E0,3.184893131E0,8.444871902E0,4.054958344E0,9.894548644E0
3.784392722E0,3.086735249E0,8.440083504E0,4.112416267E0,9.883061854E0
3.786798972E0,2.957453728E0,8.461630821E0,4.110022545E0,9.860933730E0
3.789205326E0,2.854507446E0,8.478388786E0,4.105233669E0,9.842978851E0
3.791611784E0,2.744378805E0,8.454447746E0,4.110022545E0,9.792935568E0
3.794018867E0,2.646220922E0,8.420930862E0,4.050169945E0,9.711768034E0
3.796425274E0,2.526515961E0,8.420930862E0,4.007076263E0,9.661884892E0
3.798831159E0,2.435540199E0,8.430506706E0,3.985528946E0,9.637932370E0
3.801237878E0,2.373293638E0,8.394596100E0,3.990317345E0,9.592934842E0
3.803643867E0,2.301470757E0,8.385018349E0,3.959194183E0,9.554083888E0
3.806049492E0,2.248800755E0,8.385018349E0,3.916100502E0,9.523732497E0
3.808456003E0,2.224859715E0,8.373048782E0,3.889765263E0,9.496747889E0
3.810862461E0,2.184159994E0,8.361077309E0,3.853853703E0,9.462048246E0
3.813269180E0,2.181765556E0,8.382624626E0,3.834701061E0,9.472773026E0
3.815675534E0,2.167401075E0,8.358683586E0,3.801183701E0,9.434734561E0
3.818081315E0,2.155430555E0,8.368260384E0,3.784424782E0,9.433744413E0
3.820487774E0,2.155430555E0,8.377836227E0,3.796395302E0,9.447043877E0
3.822893815E0,2.119519234E0,8.396989822E0,3.779636860E0,9.449203916E0
3.825299544E0,2.119519234E0,8.389807701E0,3.789213181E0,9.446659281E0
3.827705690E0,2.131489754E0,8.408959389E0,3.820336342E0,9.478861553E0
3.830111628E0,2.102760315E0,8.435295105E0,3.786818981E0,9.482394341E0
3.832518190E0,2.076425314E0,8.449659348E0,3.746119499E0,9.473209407E0
3.834924440E0,2.018967152E0,8.459236145E0,3.726966381E0,9.461774829E0
3.837330222E0,1.973479390E0,8.468812943E0,3.710207939E0,9.454155515E0
3.839736784E0,1.887291789E0,8.483176231E0,3.710207939E0,9.449433434E0
3.842142826E0,1.822651029E0,8.480782509E0,3.729360580E0,9.442132125E0
3.844548607E0,1.789133668E0,8.487965584E0,3.774848461E0,9.460234666E0
3.846954961E0,1.710128427E0,8.461630821E0,3.803577900E0,9.433500953E0
3.849361211E0,1.662246585E0,8.456841469E0,3.880188942E0,9.451830382E0
3.851767617E0,1.583241105E0,8.447265625E0,3.911312103E0,9.442526744E0
3.854173607E0,1.571270823E0,8.444871902E0,3.980741024E0,9.467367773E0
3.856579284E0,1.523388743E0,8.440083504E0,4.014258385E0,9.469424121E0
3.858985899E0,1.523388743E0,8.418537140E0,4.069322586E0,9.473746205E0
3.861392044E0,1.497053623E0,8.430506706E0,4.078898907E0,9.484304359E0
3.863797513E0,1.489871383E0,8.418537140E0,4.107628345E0,9.484940429E0
3.866203503E0,1.513812423E0,8.428112984E0,4.074110985E0,9.482778962E0
3.868609857E0,1.520994663E0,8.442477226E0,4.090869427E0,9.503897051E0
3.871016524E0,1.544935703E0,8.437689781E0,4.114810467E0,9.513837309E0
3.873422461E0,1.561694264E0,8.475995064E0,4.110022545E0,9.548490279E0
3.875828138E0,1.573664784E0,8.490359306E0,4.121993065E0,9.568356642E0
3.878234701E0,1.604788184E0,8.519088745E0,4.117204189E0,9.596957252E0
3.880640742E0,1.614364505E0,8.559788704E0,4.100445747E0,9.627554764E0
3.883046367E0,1.633517265E0,8.571758270E0,4.126780987E0,9.652654547E0
3.885452461E0,1.652670026E0,8.612458229E0,4.121993065E0,9.690024860E0
3.887858607E0,1.676611066E0,8.653157234E0,4.095657825E0,9.719185553E0
3.890265222E0,1.695763946E0,8.674704552E0,4.088475227E0,9.738672605E0
3.892671211E0,1.679005146E0,8.729769707E0,4.083687305E0,9.782864582E0
3.895076732E0,1.707734466E0,8.751316071E0,4.083687305E0,9.807058274E0
3.897483242E0,1.705340266E0,8.780045509E0,4.121993065E0,9.848259308E0
3.899889336E0,1.731675267E0,8.772862434E0,4.143539906E0,9.855492756E0
3.902294909E0,1.769980907E0,8.799198151E0,4.198604107E0,9.908935208E0
3.904700951E0,1.784345508E0,8.820744514E0,4.258456230E0,9.956097235E0
3.907106992E0,1.801104188E0,8.832715988E0,4.335067272E0,1.000268245E1
3.909513294E0,1.825045109E0,8.830321312E0,4.399708271E0,1.003308512E1
3.911919232E0,1.829833388E0,8.832715988E0,4.469136715E0,1.006669484E1
3.914325065E0,1.856168628E0,8.835109711E0,4.509836674E0,1.009173684E1
3.916731784E0,1.887291789E0,8.825533867E0,4.560112953E0,1.011170354E1
3.919137930E0,1.896868110E0,8.796803474E0,4.607995033E0,1.011016707E1
3.921543555E0,1.930385470E0,8.801592827E0,4.655877113E0,1.014256457E1
3.923949440E0,1.906444430E0,8.756104469E0,4.682211876E0,1.011073706E1
3.926355274E0,1.908838630E0,8.713010788E0,4.696576595E0,1.008057804E1
3.928761940E0,1.927991509E0,8.724980354E0,4.710940838E0,1.010125720E1
3.931168086E0,1.925597310E0,8.701039314E0,4.739670277E0,1.009358630E1
3.933573763E0,1.939962029E0,8.679493904E0,4.737276554E0,1.007664906E1
3.935980690E0,1.949538350E0,8.650763512E0,4.744458199E0,1.005715132E1
3.938387097E0,1.983055711E0,8.607670784E0,4.742064476E0,1.002555144E1
3.940793294E0,1.975873590E0,8.602881432E0,4.756428719E0,1.002682699E1
3.943200013E0,2.004602432E0,8.629217148E0,4.756428719E0,1.005511977E1
3.945606524E0,2.040513992E0,8.612458229E0,4.751640797E0,1.004570676E1
3.948013138E0,2.057272673E0,8.619640350E0,4.768399239E0,1.006321032E1
3.950419180E0,2.064455032E0,8.617246628E0,4.751640797E0,1.005470061E1
3.952824753E0,2.078819513E0,8.619640350E0,4.722911358E0,1.004617251E1
3.955231315E0,2.097972393E0,8.645976067E0,4.679817677E0,1.005261577E1
3.957637826E0,2.114730835E0,8.674704552E0,4.624753475E0,1.005539309E1
3.960043919E0,2.119519234E0,8.689069748E0,4.567295551E0,1.004253372E1
3.962450482E0,2.138671875E0,8.701039314E0,4.533777714E0,1.004176991E1
3.964856940E0,2.136277914E0,8.727375984E0,4.502654552E0,1.005010810E1
3.967263294E0,2.186553955E0,8.736951828E0,4.473925591E0,1.005640868E1
3.969669440E0,2.196130514E0,8.765680313E0,4.471531391E0,1.008239721E1
3.972075586E0,2.193736076E0,8.777651787E0,4.449984550E0,1.008275812E1
3.974482565E0,2.205706596E0,8.751316071E0,4.421255112E0,1.004978464E1
3.976889076E0,2.212889194E0,8.770468712E0,4.356614590E0,1.003982523E1
3.979295169E0,2.186553955E0,8.751316071E0,4.327885151E0,1.000485587E1
3.981701784E0,2.200918674E0,8.744133949E0,4.299155712E0,9.989327373E0
3.984108190E0,2.188948154E0,8.729769707E0,4.323096752E0,9.984464867E0
3.986514857E0,2.169795513E0,8.713010788E0,4.315915108E0,9.962514380E0
3.988921055E0,2.179371595E0,8.710617065E0,4.370978832E0,9.986489181E0
3.991326628E0,2.162612915E0,8.703434944E0,4.347037792E0,9.966113185E0
3.993733242E0,2.148248434E0,8.684281349E0,4.368585110E0,9.955714427E0
3.996139492E0,2.133883953E0,8.662734985E0,4.368585110E0,9.933829776E0
3.998545222E0,2.124307394E0,8.638793945E0,4.368585110E0,9.910902007E0
4.000951159E0,2.121913433E0,8.634005547E0,4.387737751E0,9.914676544E0
4.003356940E0,2.129095554E0,8.626822472E0,4.390131950E0,9.911022772E0
4.005763399E0,2.145854473E0,8.629217148E0,4.394919872E0,9.918840693E0
4.008169544E0,2.155430555E0,8.619640350E0,4.430831432E0,9.928562224E0
4.010575117E0,2.155430555E0,8.648369789E0,4.428437233E0,9.952448805E0
4.012981628E0,2.157824993E0,8.650763512E0,4.452378273E0,9.965720763E0
4.015387982E0,2.165007114E0,8.667522430E0,4.466742992E0,9.988242781E0
4.017794128E0,2.131489754E0,8.681887627E0,4.464348793E0,9.992438715E0
4.020200534E0,2.117125273E0,8.722586632E0,4.485896111E0,1.003439091E1
4.022606784E0,2.083607674E0,8.727375984E0,4.505048275E0,1.004011815E1
4.025013451E0,2.050090313E0,8.744133949E0,4.540959835E0,1.006394878E1
4.027419701E0,2.042908192E0,8.770468712E0,4.600812435E0,1.011247103E1
4.029825534E0,1.985449672E0,8.794409752E0,4.639117718E0,1.013928333E1
4.032232253E0,1.939962029E0,8.818350792E0,4.639117718E0,1.015126478E1
4.034638711E0,1.884897590E0,8.806380272E0,4.677423954E0,1.014807702E1
4.037045065E0,1.848986268E0,8.811168671E0,4.698970318E0,1.015557805E1
4.039451680E0,1.798710108E0,8.813562393E0,4.770793438E0,1.018207789E1
4.041858086E0,1.769980907E0,8.827927589E0,4.809098721E0,1.020747611E1
4.044264701E0,1.736463547E0,8.787227631E0,4.833039761E0,1.017786561E1
4.046671003E0,1.643093705E0,8.746527672E0,4.871345997E0,1.014551699E1
4.049077097E0,1.595211625E0,8.715404510E0,4.916833401E0,1.013302653E1
4.051483919E0,1.513812423E0,8.660340309E0,4.940774441E0,1.008485867E1
4.053890117E0,1.449171662E0,8.610064507E0,4.916833401E0,1.002040718E1
4.056296055E0,1.396501541E0,8.566970825E0,4.924015999E0,9.979435817E0
4.058702669E0,1.334254861E0,8.497541428E0,4.964715481E0,9.931608437E0
4.061109128E0,1.274402499E0,8.425718307E0,4.967109680E0,9.863519113E0
4.063515899E0,1.236096859E0,8.377836227E0,4.974291801E0,9.821387592E0
4.065922305E0,1.171456337E0,8.301225662E0,4.931198597E0,9.726221108E0
4.068328399E0,1.104421377E0,8.205461502E0,4.931198597E0,9.636704034E0
4.070735378E0,1.066115856E0,8.155185699E0,4.861769199E0,9.554080623E0
