"Time (s)","Acceleration x (m/s^2)","Acceleration y (m/s^2)","Acceleration z (m/s^2)","Absolute acceleration (m/s^2)"
1.137179000E-2,5.657491684E-1,-7.765570641E0,6.099518299E0,9.890818115E0
1.377475900E-2,5.657491684E-1,-7.765570641E0,6.099518299E0,9.890818115E0
1.620278000E-2,5.513846874E-1,-7.772752762E0,6.101912498E0,9.897123153E0
1.865590500E-2,5.513846874E-1,-7.772752762E0,6.101912498E0,9.897123153E0
2.110923800E-2,5.609610081E-1,-7.775146961E0,6.101912498E0,9.899541588E0
2.356278000E-2,5.585669279E-1,-7.770359039E0,6.109095097E0,9.900076743E0
2.601632200E-2,5.537787676E-1,-7.803876400E0,6.104306221E0,9.923190627E0
2.846975900E-2,5.753256083E-1,-7.813452244E0,6.111488819E0,9.936364079E0
3.092319700E-2,5.705374479E-1,-7.818240643E0,6.111488819E0,9.939853888E0
3.337663400E-2,5.633550882E-1,-7.803876400E0,6.075577259E0,9.906083729E0
3.583012400E-2,5.801137686E-1,-7.801481724E0,6.044454098E0,9.886105118E0
3.828366500E-2,5.561728477E-1,-7.818240643E0,6.082759857E0,9.921400227E0
4.073715500E-2,5.465964079E-1,-7.799088001E0,6.092335701E0,9.911664622E0
4.319064500E-2,5.442023277E-1,-7.808664322E0,6.075577259E0,9.908785682E0
4.564418600E-2,5.346258879E-1,-7.760782242E0,6.094730377E0,9.882373410E0
4.809772800E-2,5.777196884E-1,-7.763176441E0,6.121065617E0,9.902934554E0
5.055127000E-2,5.872961283E-1,-7.739235401E0,6.097124577E0,9.869934622E0
5.300481100E-2,5.992666483E-1,-7.732053280E0,6.097124577E0,9.865023900E0
5.545840500E-2,6.327840090E-1,-7.717689037E0,6.149794579E0,9.888534423E0
5.791199900E-2,6.327840090E-1,-7.698535919E0,6.154582500E0,9.876576161E0
6.036559200E-2,6.495426893E-1,-7.688959122E0,6.130641460E0,9.855291107E0
6.281918600E-2,6.591190100E-1,-7.739235401E0,6.137824059E0,9.899650834E0
6.527283200E-2,6.399662495E-1,-7.712900162E0,6.156976700E0,9.889729409E0
6.772647800E-2,6.495426893E-1,-7.710506439E0,6.166553020E0,9.894452557E0
7.018012400E-2,6.423603296E-1,-7.741629601E0,6.142611980E0,9.903390208E0
7.263377000E-2,6.016607285E-1,-7.736841202E0,6.130641460E0,9.889664915E0
7.508741500E-2,5.801137686E-1,-7.724870682E0,6.128247261E0,9.877528716E0
7.754106100E-2,5.657491684E-1,-7.727264881E0,6.118670940E0,9.872630285E0
7.999470700E-2,5.537787676E-1,-7.736841202E0,6.099518299E0,9.867598805E0
8.244835300E-2,5.250495672E-1,-7.744023800E0,6.075577259E0,9.856886968E0
8.490199900E-2,5.322318077E-1,-7.724870682E0,6.099518299E0,9.857029026E0
8.735564500E-2,4.891380966E-1,-7.736841202E0,6.099518299E0,9.864182244E0
8.980929000E-2,4.604088962E-1,-7.763176441E0,6.087547779E0,9.876088435E0
9.226293600E-2,4.532265961E-1,-7.744023800E0,6.082759857E0,9.857752606E0
9.471658200E-2,4.508325160E-1,-7.729659557E0,6.058818817E0,9.831590527E0
9.717022800E-2,4.508325160E-1,-7.734447479E0,6.077971458E0,9.847165319E0
9.962387400E-2,4.556206763E-1,-7.729659557E0,6.066000938E0,9.836238837E0
1.020775200E-1,4.843498766E-1,-7.724870682E0,6.025301456E0,9.808796027E0
1.045311650E-1,4.843498766E-1,-7.722476959E0,5.989389896E0,9.784888171E0
1.069848110E-1,4.867439568E-1,-7.722476959E0,5.998966217E0,9.790871552E0
1.094384570E-1,5.178672075E-1,-7.691353321E0,5.998966217E0,9.767942364E0
1.118921030E-1,5.154731274E-1,-7.686565399E0,6.020513058E0,9.777299098E0
1.143457490E-1,5.106849670E-1,-7.691353321E0,6.030089378E0,9.786710017E0
1.167993950E-1,5.226554871E-1,-7.669806957E0,5.986995697E0,9.743881413E0
1.192530400E-1,5.154731274E-1,-7.672200680E0,5.773921013E0,9.615952354E0
1.217066860E-1,4.963203967E-1,-7.662624359E0,5.642245293E0,9.528750073E0
1.241603320E-1,4.508325160E-1,-7.724870682E0,5.759556293E0,9.646209914E0
1.266139780E-1,4.197091758E-1,-7.772752762E0,5.953478336E0,9.799782936E0
1.290676240E-1,3.430980146E-1,-7.837393284E0,6.061213017E0,9.913664961E0
1.315212700E-1,2.449400127E-1,-7.851758480E0,6.063606739E0,9.923579673E0
1.339749670E-1,1.970579922E-1,-7.851758480E0,6.030089378E0,9.902066501E0
1.364286650E-1,1.276291609E-1,-7.858940125E0,5.986995697E0,9.880452751E0
1.388781970E-1,1.036881506E-1,-7.839787960E0,5.994177818E0,9.869305660E0
1.413040300E-1,1.539642215E-1,-7.787117481E0,6.027695179E0,9.848655381E0
1.437096030E-1,2.425458729E-1,-7.736841202E0,6.001360416E0,9.794583561E0
1.461149150E-1,3.526744545E-1,-7.708112240E0,5.991784096E0,9.769383308E0
1.485205400E-1,5.082908869E-1,-7.650653839E0,6.073183537E0,9.781330281E0
1.509259050E-1,6.782718897E-1,-7.590801239E0,6.128247261E0,9.779352264E0
1.533318420E-1,8.291000128E-1,-7.521372318E0,6.097124577E0,9.717683699E0
1.557375720E-1,9.583814144E-1,-7.463914394E0,6.075577259E0,9.671667491E0
1.581428320E-1,1.037386656E0,-7.466308117E0,6.070789337E0,9.678657507E0
1.605489260E-1,1.080480576E0,-7.466308117E0,6.121065617E0,9.714969864E0
1.629548110E-1,1.087662816E0,-7.466308117E0,6.176129341E0,9.750555930E0
1.653602800E-1,1.008657575E0,-7.533342838E0,6.204858780E0,9.811672482E0
1.677660090E-1,9.535932541E-1,-7.559678555E0,6.097124577E0,9.758740085E0
1.701718950E-1,8.386765718E-1,-7.629106998E0,6.470603943E0,1.003869351E1
1.725780920E-1,7.620652914E-1,-7.662624359E0,6.183311939E0,9.875722865E0
1.749837700E-1,6.830600500E-1,-7.748811722E0,6.245558262E0,9.975853454E0
1.773891860E-1,5.777196884E-1,-7.789511681E0,6.475391865E0,1.014598206E1
1.797954360E-1,5.681433678E-1,-7.832605362E0,6.006148338E0,9.886673430E0
1.822011650E-1,5.106849670E-1,-7.880487442E0,6.501727104E0,1.022914155E1
1.846063740E-1,5.442023277E-1,-7.873304844E0,6.037271976E0,9.936485206E0
1.870119990E-1,5.250495672E-1,-7.882881165E0,6.197676182E0,1.004124905E1
1.894174670E-1,5.489904881E-1,-7.897245884E0,6.298228264E0,1.011610411E1
1.918230400E-1,5.801137686E-1,-7.863729000E0,5.884049416E0,9.838536644E0
1.942283530E-1,5.609610081E-1,-7.870910645E0,6.379627705E0,1.014719475E1
1.966334570E-1,5.777196884E-1,-7.858940125E0,5.905596256E0,9.847475162E0
1.990391860E-1,5.681433678E-1,-7.856546402E0,6.147400379E0,9.991928726E0
2.014446550E-1,5.489904881E-1,-7.832605362E0,6.224011421E0,1.001945186E1
2.038499150E-1,5.585669279E-1,-7.837393284E0,5.891232014E0,9.820557272E0
2.062555920E-1,5.226554871E-1,-7.806270123E0,6.396386147E0,1.010568047E1
2.086612170E-1,5.322318077E-1,-7.796693802E0,5.910384178E0,9.798180753E0
2.110670510E-1,5.226554871E-1,-7.806270123E0,6.221617222E0,9.995976332E0
2.134726240E-1,5.130790472E-1,-7.794299603E0,6.214435101E0,9.981661185E0
2.158778840E-1,5.250495672E-1,-7.799088001E0,5.967843056E0,9.834459896E0
2.182837170E-1,5.154731274E-1,-7.777541161E0,6.456238747E0,1.012120931E1
2.206891860E-1,5.585669279E-1,-7.734447479E0,5.927143574E0,9.760364018E0
2.230945510E-1,5.346258879E-1,-7.784723282E0,6.307805061E0,1.003375035E1
2.255002280E-1,5.753256083E-1,-7.760782242E0,6.185705662E0,9.941010768E0
2.279057490E-1,5.657491684E-1,-7.779935360E0,6.008542538E0,9.846321636E0
2.303116860E-1,5.394141674E-1,-7.799088001E0,6.425116062E0,1.011923207E1
2.327172070E-1,5.489904881E-1,-7.770359039E0,5.888837814E0,9.765156474E0
2.351223630E-1,5.322318077E-1,-7.796693802E0,6.317381382E0,1.004893091E1
2.375282490E-1,5.513846874E-1,-7.806270123E0,6.101912498E0,9.923467864E0
2.399336130E-1,5.035026073E-1,-7.818240643E0,5.998966217E0,9.867421005E0
2.423388740E-1,5.322318077E-1,-7.825422764E0,6.346110344E0,1.008928286E1
2.447446550E-1,5.250495672E-1,-7.827817440E0,5.840955734E0,9.780959401E0
2.471502280E-1,5.322318077E-1,-7.851758480E0,6.310198784E0,1.008721917E1
2.495563740E-1,5.465964079E-1,-7.820634842E0,6.034877777E0,9.893474958E0
2.519621550E-1,5.465964079E-1,-7.832605362E0,6.039665699E0,9.905858678E0
2.543674150E-1,5.537787676E-1,-7.832605362E0,6.326957703E0,1.008398589E1
2.567734570E-1,5.849020481E-1,-7.825422764E0,5.840955734E0,9.782439150E0
2.591791340E-1,5.609610081E-1,-7.837393284E0,6.413145542E0,1.014237874E1
2.615841340E-1,5.872961283E-1,-7.825422764E0,6.046848297E0,9.906893181E0
2.639896030E-1,6.016607285E-1,-7.832605362E0,6.137824059E0,9.969181840E0
2.663952800E-1,6.279958487E-1,-7.808664322E0,6.360475063E0,1.009085033E1
2.688013220E-1,6.279958487E-1,-7.815846920E0,5.891232014E0,9.807571387E0
2.712069470E-1,5.896902084E-1,-7.827817440E0,6.432297707E0,1.014873954E1
2.736120510E-1,6.112370491E-1,-7.799088001E0,5.955872536E0,9.832181957E0
2.760177280E-1,5.849020481E-1,-7.823029041E0,6.149794579E0,9.968042293E0
2.784230920E-1,5.992666483E-1,-7.811058521E0,6.262316704E0,1.002937517E1
2.808282490E-1,5.585669279E-1,-7.806270123E0,5.843349934E0,9.767015342E0
2.832340820E-1,5.202612877E-1,-7.813452244E0,6.391598225E0,1.010807774E1
2.856399670E-1,5.681433678E-1,-7.818240643E0,5.896019936E0,9.808706577E0
2.880463740E-1,5.274436474E-1,-7.789511681E0,6.166553020E0,9.948922815E0
2.904524670E-1,5.346258879E-1,-7.794299603E0,6.171341419E0,9.956022602E0
2.928578320E-1,5.537787676E-1,-7.767964840E0,5.812226295E0,9.717506017E0
2.952636650E-1,5.298377275E-1,-7.789511681E0,6.331746101E0,1.005227481E1
2.976691340E-1,5.418082476E-1,-7.755994320E0,5.769133091E0,9.681523676E0
3.000745510E-1,5.322318077E-1,-7.777541161E0,6.137824059E0,9.922010954E0
3.024803320E-1,5.489904881E-1,-7.755994320E0,6.037271976E0,9.844058684E0
3.048859570E-1,5.489904881E-1,-7.739235401E0,5.788285255E0,9.679948417E0
3.072918950E-1,5.346258879E-1,-7.758388519E0,6.238375664E0,9.969741630E0
3.096972070E-1,5.537787676E-1,-7.727264881E0,5.706886292E0,9.622153845E0
3.121022590E-1,5.322318077E-1,-7.748811722E0,6.130641460E0,9.895055256E0
3.145081450E-1,5.561728477E-1,-7.729659557E0,5.970236778E0,9.782673065E0
3.169132490E-1,5.442023277E-1,-7.708112240E0,5.819408894E0,9.673503520E0
3.193182490E-1,5.465964079E-1,-7.734447479E0,6.238375664E0,9.951772524E0
3.217237700E-1,5.777196884E-1,-7.724870682E0,5.706886292E0,9.621639062E0
3.241290300E-1,5.968724489E-1,-7.732053280E0,6.188099861E0,9.921365054E0
3.265347590E-1,6.136312485E-1,-7.710506439E0,5.948689938E0,9.757836073E0
3.289400200E-1,5.825079679E-1,-7.712900162E0,5.919960976E0,9.740332766E0
3.313446550E-1,6.088429689E-1,-7.734447479E0,6.262316704E0,9.970405111E0
3.337500720E-1,6.136312485E-1,-7.727264881E0,5.728432655E0,9.638573885E0
3.361554880E-1,5.920842886E-1,-7.767964840E0,6.264711380E0,9.996922038E0
3.385605920E-1,6.423603296E-1,-7.741629601E0,5.931931496E0,9.774112079E0
3.409659570E-1,6.256016493E-1,-7.760782242E0,5.960660458E0,9.805640801E0
3.433713220E-1,6.232075691E-1,-7.748811722E0,6.247952461E0,9.973433748E0
3.457771030E-1,6.519367695E-1,-7.748811722E0,5.747585773E0,9.669738718E0
3.481827800E-1,6.016607285E-1,-7.777541161E0,6.276681900E0,1.001243616E1
3.505880400E-1,6.303899288E-1,-7.751205921E0,5.893625736E0,9.757735855E0
3.529940820E-1,6.327840090E-1,-7.779935360E0,5.984601498E0,9.835815416E0
3.553997590E-1,6.256016493E-1,-7.779935360E0,6.183311939E0,9.957515662E0
3.578050720E-1,6.303899288E-1,-7.772752762E0,5.745192051E0,9.686088409E0
3.602109050E-1,5.944783688E-1,-7.813452244E0,6.305410862E0,1.005791463E1
3.626169990E-1,6.160253286E-1,-7.789511681E0,5.843349934E0,9.757085522E0
3.650236130E-1,5.801137686E-1,-7.787117481E0,6.056424141E0,9.882105243E0
3.674296030E-1,5.872961283E-1,-7.799088001E0,6.190494061E0,9.974613131E0
3.698348630E-1,5.849020481E-1,-7.791905880E0,5.819408894E0,9.742762828E0
3.722408530E-1,5.609610081E-1,-7.789511681E0,6.360475063E0,1.007208084E1
3.746465300E-1,5.729315281E-1,-7.796693802E0,5.867290974E0,9.774547977E0
3.770515820E-1,5.442023277E-1,-7.789511681E0,6.168947220E0,9.951309371E0
3.794568950E-1,5.992666483E-1,-7.784723282E0,6.185705662E0,9.961124014E0
3.818625200E-1,5.729315281E-1,-7.787117481E0,5.879261494E0,9.774106860E0
3.842684050E-1,5.681433678E-1,-7.779935360E0,6.372445583E0,1.007264830E1
3.866737170E-1,5.777196884E-1,-7.760782242E0,5.850532055E0,9.736129948E0
3.890785610E-1,5.561728477E-1,-7.758388519E0,6.255135059E0,9.981414492E0
3.914841340E-1,5.801137686E-1,-7.748811722E0,6.154582500E0,9.912593043E0
3.938892380E-1,6.016607285E-1,-7.746417999E0,5.927143574E0,9.772411084E0
3.962939260E-1,5.944783688E-1,-7.727264881E0,6.425116062E0,1.006708217E1
3.986990820E-1,6.208134890E-1,-7.705718517E0,5.886443615E0,9.716672563E0
4.011041860E-1,5.872961283E-1,-7.729659557E0,6.322169304E0,1.000311843E1
4.035097070E-1,6.136312485E-1,-7.710506439E0,6.166553020E0,9.892159977E0
4.059150200E-1,5.968724489E-1,-7.729659557E0,5.984601498E0,9.793842386E0
4.083198110E-1,5.944783688E-1,-7.739235401E0,6.439480305E0,1.008543880E1
4.107253320E-1,5.849020481E-1,-7.739235401E0,5.874473095E0,9.733822946E0
4.131305920E-1,5.442023277E-1,-7.751205921E0,6.382021904E0,1.005522516E1
4.155355920E-1,5.920842886E-1,-7.755994320E0,6.111488819E0,9.892234696E0
4.179409050E-1,5.801137686E-1,-7.763176441E0,6.032483578E0,9.848568351E0
4.203465300E-1,5.681433678E-1,-7.784723282E0,6.382021904E0,1.008240582E1
4.227527280E-1,5.968724489E-1,-7.784723282E0,5.838561535E0,9.749203767E0
4.251581970E-1,5.753256083E-1,-7.782329559E0,6.350898743E0,1.006129056E1
4.275633010E-1,5.944783688E-1,-7.782329559E0,5.994177818E0,9.841149609E0
4.299694470E-1,5.729315281E-1,-7.803876400E0,6.034877777E0,9.881724909E0
4.323750720E-1,5.801137686E-1,-7.796693802E0,6.310198784E0,1.004706798E1
4.347802800E-1,5.992666483E-1,-7.760782242E0,5.790679455E0,9.701589049E0
4.371859570E-1,5.777196884E-1,-7.796693802E0,6.350898743E0,1.007254234E1
4.395915820E-1,6.016607285E-1,-7.784723282E0,5.939114094E0,9.810045282E0
4.419975200E-1,5.920842886E-1,-7.779935360E0,6.058818817E0,9.878625586E0
4.444031450E-1,5.896902084E-1,-7.777541161E0,6.226405144E0,9.980280660E0
4.468082490E-1,6.064488888E-1,-7.782329559E0,5.783497334E0,9.715002575E0
4.492140820E-1,5.872961283E-1,-7.799088001E0,6.329351902E0,1.006138091E1
4.516197070E-1,6.088429689E-1,-7.775146961E0,5.896019936E0,9.776842594E0
4.540251240E-1,6.064488888E-1,-7.803876400E0,6.109095097E0,9.929214975E0
4.564305400E-1,5.992666483E-1,-7.799088001E0,6.224011421E0,9.996159880E0
4.588358010E-1,6.160253286E-1,-7.794299603E0,5.833773613E0,9.755178526E0
4.612414780E-1,6.136312485E-1,-7.808664322E0,6.398780823E0,1.011415730E1
4.636469990E-1,6.351780891E-1,-7.782329559E0,5.876867294E0,9.772700434E0
4.660523630E-1,6.208134890E-1,-7.794299603E0,6.176129341E0,9.963989629E0
4.684585610E-1,6.351780891E-1,-7.796693802E0,6.183311939E0,9.971220185E0
4.708642380E-1,6.495426893E-1,-7.787117481E0,5.896019936E0,9.788981329E0
4.732698110E-1,6.303899288E-1,-7.823029041E0,6.377233982E0,1.011267957E1
4.756758010E-1,6.663013697E-1,-7.801481724E0,5.852926254E0,9.775674930E0
4.780810610E-1,6.399662495E-1,-7.815846920E0,6.219223499E0,1.000878418E1
4.804863740E-1,6.543308496E-1,-7.806270123E0,6.125853539E0,9.944449892E0
4.828915820E-1,6.256016493E-1,-7.808664322E0,5.917566776E0,9.817546153E0
4.852962700E-1,6.256016493E-1,-7.825422764E0,6.389204502E0,1.012178606E1
4.877018950E-1,6.351780891E-1,-7.784723282E0,5.833773613E0,9.748757990E0
4.901073110E-1,6.064488888E-1,-7.818240643E0,6.257528782E0,1.003241414E1
4.925123110E-1,5.992666483E-1,-7.801481724E0,6.077971458E0,9.907773446E0
4.949174670E-1,5.657491684E-1,-7.782329559E0,5.951084614E0,9.813263146E0
4.973223110E-1,5.681433678E-1,-7.811058521E0,6.370051384E0,1.009519573E1
4.997276760E-1,5.849020481E-1,-7.794299603E0,5.840955734E0,9.757560176E0
5.021327800E-1,5.681433678E-1,-7.784723282E0,6.295834541E0,1.002807240E1
5.045372590E-1,5.896902084E-1,-7.796693802E0,6.049242496E0,9.885823363E0
5.069424670E-1,5.825079679E-1,-7.808664322E0,5.970236778E0,9.846739624E0
5.093476760E-1,5.681433678E-1,-7.808664322E0,6.310198784E0,1.005567671E1
5.117525720E-1,5.992666483E-1,-7.803876400E0,5.793073654E0,9.737520719E0
5.141574670E-1,5.825079679E-1,-7.830211163E0,6.286257744E0,1.005825824E1
5.165622590E-1,5.992666483E-1,-7.803876400E0,5.946295738E0,9.829447614E0
5.189677280E-1,5.849020481E-1,-7.815846920E0,5.958266258E0,9.845329364E0
5.213730920E-1,5.849020481E-1,-7.823029041E0,6.224011421E0,1.001400080E1
5.237780920E-1,5.777196884E-1,-7.801481724E0,5.733221531E0,9.698799217E0
5.261837170E-1,5.585669279E-1,-7.827817440E0,6.271893501E0,1.004606246E1
5.285889780E-1,5.585669279E-1,-7.813452244E0,5.891232014E0,9.801461504E0
5.309937700E-1,5.370200872E-1,-7.832605362E0,6.003754616E0,9.883479489E0
5.333987700E-1,5.442023277E-1,-7.823029041E0,6.171341419E0,9.979047774E0
5.358039260E-1,5.418082476E-1,-7.799088001E0,5.718856812E0,9.686312666E0
5.382097590E-1,5.035026073E-1,-7.803876400E0,6.310198784E0,1.004851285E1
5.406151240E-1,5.370200872E-1,-7.777541161E0,5.872078896E0,9.760115145E0
5.430200720E-1,5.442023277E-1,-7.791905880E0,6.089941978E0,9.904410468E0
5.454260090E-1,5.513846874E-1,-7.794299603E0,6.195282459E0,9.971793024E0
5.478313740E-1,5.633550882E-1,-7.789511681E0,5.809832573E0,9.733859240E0
5.502361130E-1,5.418082476E-1,-7.799088001E0,6.307805061E0,1.004528419E1
5.526413740E-1,5.896902084E-1,-7.760782242E0,5.845743656E0,9.733971155E0
5.550468950E-1,5.872961283E-1,-7.777541161E0,6.142611980E0,9.928078625E0
5.574524150E-1,5.896902084E-1,-7.796693802E0,6.140217781E0,9.941752521E0
5.598577280E-1,5.825079679E-1,-7.787117481E0,5.807438374E0,9.731641930E0
5.622629360E-1,5.801137686E-1,-7.815846920E0,6.307805061E0,1.006043735E1
5.646686650E-1,6.040548086E-1,-7.799088001E0,5.785891533E0,9.729706917E0
5.670738220E-1,5.753256083E-1,-7.844575882E0,6.123459339E0,9.968205686E0
5.694787700E-1,5.920842886E-1,-7.830211163E0,6.058818817E0,9.918268806E0
5.718842900E-1,5.585669279E-1,-7.846969604E0,5.826591015E0,9.789590995E0
5.742898110E-1,5.705374479E-1,-7.894851685E0,6.276681900E0,1.010202612E1
5.766953840E-1,5.681433678E-1,-7.846969604E0,5.771526814E0,9.757471016E0
5.791004880E-1,5.298377275E-1,-7.892457962E0,6.192888260E0,1.004606817E1
5.815055920E-1,5.633550882E-1,-7.890063763E0,6.046848297E0,9.956648506E0
5.839115300E-1,5.489904881E-1,-7.894851685E0,5.840955734E0,9.835997030E0
5.863167900E-1,5.585669279E-1,-7.906822205E0,6.233587742E0,1.008401956E1
5.887214260E-1,5.801137686E-1,-7.897245884E0,5.721251011E0,9.769121642E0
5.911266860E-1,5.609610081E-1,-7.909216404E0,6.190494061E0,1.005945317E1
5.935322590E-1,6.136312485E-1,-7.887670040E0,5.991784096E0,9.924382027E0
5.959383530E-1,5.992666483E-1,-7.911610603E0,5.905596256E0,9.890842734E0
5.983440820E-1,5.753256083E-1,-7.887670040E0,6.262316704E0,1.008776232E1
6.007490820E-1,6.208134890E-1,-7.866122723E0,5.778708935E0,9.780325814E0
6.031545510E-1,5.944783688E-1,-7.875699520E0,6.298228264E0,1.010186749E1
6.055602800E-1,6.423603296E-1,-7.861334324E0,5.972630978E0,9.893711383E0
6.079657490E-1,6.423603296E-1,-7.832605362E0,6.022907257E0,9.901401182E0
6.103713740E-1,6.495426893E-1,-7.827817440E0,6.322169304E0,1.008297854E1
6.127770510E-1,6.639072895E-1,-7.806270123E0,5.826591015E0,9.763595084E0
6.151829360E-1,6.375721693E-1,-7.815846920E0,6.331746101E0,1.007893695E1
6.175884570E-1,6.663013697E-1,-7.808664322E0,5.943902016E0,9.836115452E0
6.199939260E-1,6.591190100E-1,-7.791905880E0,6.054030418E0,9.889363954E0
6.224001240E-1,6.902424097E-1,-7.787117481E0,6.288652420E0,1.003308440E1
6.248055920E-1,6.974246502E-1,-7.758388519E0,5.833773613E0,9.732004322E0
6.272108530E-1,6.686954498E-1,-7.803876400E0,6.377233982E0,1.010033434E1
6.296166340E-1,6.878482103E-1,-7.755994320E0,5.900808334E0,9.769755475E0
6.320225200E-1,6.639072895E-1,-7.806270123E0,6.085154057E0,9.920066835E0
6.344287170E-1,6.567250490E-1,-7.801481724E0,6.166553020E0,9.965981188E0
6.368346550E-1,6.734837294E-1,-7.799088001E0,5.781103611E0,9.731418856E0
6.392402280E-1,6.256016493E-1,-7.808664322E0,6.341322422E0,1.007864009E1
6.416464780E-1,6.208134890E-1,-7.791905880E0,5.852926254E0,9.765037244E0
6.440522590E-1,5.920842886E-1,-7.827817440E0,6.161765099E0,9.979611155E0
6.464576240E-1,5.896902084E-1,-7.837393284E0,6.164158821E0,9.988459441E0
6.488631970E-1,5.609610081E-1,-7.832605362E0,5.872078896E0,9.805391097E0
6.512685610E-1,5.561728477E-1,-7.856546402E0,6.382021904E0,1.013730009E1
6.536743950E-1,5.992666483E-1,-7.827817440E0,5.826591015E0,9.776656343E0
6.560800720E-1,5.609610081E-1,-7.849363804E0,6.212040901E0,1.002579880E1
6.584855920E-1,5.705374479E-1,-7.830211163E0,6.142611980E0,9.968420224E0
6.608918950E-1,5.896902084E-1,-7.844575882E0,5.915173054E0,9.842478223E0
6.632976760E-1,5.753256083E-1,-7.854152203E0,6.367657185E0,1.012747572E1
6.657030400E-1,6.064488888E-1,-7.815846920E0,5.814620495E0,9.760381900E0
6.681088220E-1,6.016607285E-1,-7.827817440E0,6.149794579E0,9.972797745E0
6.705147590E-1,5.968724489E-1,-7.844575882E0,6.125853539E0,9.970943238E0
6.729212700E-1,5.944783688E-1,-7.827817440E0,6.104306221E0,9.944379561E0
6.753271550E-1,6.232075691E-1,-7.815846920E0,6.082759857E0,9.923498286E0
6.777325200E-1,6.064488888E-1,-7.820634842E0,6.118670940E0,9.948278427E0
6.801386130E-1,6.303899288E-1,-7.823029041E0,6.121065617E0,9.953121075E0
6.825438740E-1,6.040548086E-1,-7.815846920E0,6.109095097E0,9.938480175E0
6.849487700E-1,6.184194088E-1,-7.815846920E0,6.116276741E0,9.943779302E0
6.873543950E-1,6.256016493E-1,-7.787117481E0,6.094730377E0,9.908396160E0
6.897602800E-1,6.279958487E-1,-7.842181683E0,6.085154057E0,9.946018913E0
6.921667380E-1,6.208134890E-1,-7.815846920E0,6.130641460E0,9.952770327E0
6.945725200E-1,5.992666483E-1,-7.832605362E0,6.097124577E0,9.944031143E0
6.969776240E-1,5.944783688E-1,-7.830211163E0,6.077971458E0,9.930123284E0
6.993835610E-1,6.040548086E-1,-7.820634842E0,6.075577259E0,9.921685874E0
7.017890300E-1,5.968724489E-1,-7.832605362E0,6.056424141E0,9.918983660E0
7.041942900E-1,5.968724489E-1,-7.830211163E0,6.080365181E0,9.931732191E0
7.066001240E-1,6.160253286E-1,-7.844575882E0,6.094730377E0,9.953019459E0
7.090061650E-1,5.849020481E-1,-7.832605362E0,6.061213017E0,9.921195512E0
7.114125200E-1,6.112370491E-1,-7.844575882E0,6.051636219E0,9.926393223E0
7.138180400E-1,6.040548086E-1,-7.837393284E0,6.039665699E0,9.912980251E0
7.162228840E-1,6.327840090E-1,-7.811058521E0,6.073183537E0,9.914464640E0
7.186289260E-1,6.471486092E-1,-7.813452244E0,6.042059898E0,9.898248588E0
7.210345510E-1,6.543308496E-1,-7.820634842E0,6.063606739E0,9.917550347E0
7.234395510E-1,6.591190100E-1,-7.830211163E0,6.054030418E0,9.919573026E0
7.258451760E-1,6.902424097E-1,-7.811058521E0,6.070789337E0,9.916831802E0
7.282507490E-1,6.758778095E-1,-7.794299603E0,6.068394661E0,9.901178257E0
7.306566340E-1,6.830600500E-1,-7.789511681E0,6.099518299E0,9.917015011E0
7.330621550E-1,6.806659698E-1,-7.808664322E0,6.082759857E0,9.921618423E0
7.354670510E-1,6.950305700E-1,-7.820634842E0,6.092335701E0,9.937904765E0
7.378726760E-1,6.926364899E-1,-7.815846920E0,6.087547779E0,9.931034505E0
7.402781970E-1,6.974246502E-1,-7.818240643E0,6.075577259E0,9.925921968E0
7.426832490E-1,7.117892504E-1,-7.803876400E0,6.058818817E0,9.905373101E0
7.450884050E-1,6.878482103E-1,-7.820634842E0,6.056424141E0,9.915429283E0
7.474937170E-1,6.806659698E-1,-7.825422764E0,6.046848297E0,9.912866484E0
7.498996550E-1,6.806659698E-1,-7.827817440E0,6.042059898E0,9.911837360E0
7.523055400E-1,6.591190100E-1,-7.827817440E0,6.046848297E0,9.913301068E0
7.547109570E-1,6.543308496E-1,-7.839787960E0,6.025301456E0,9.909322972E0
7.571169470E-1,6.471486092E-1,-7.863729000E0,5.989389896E0,9.906049992E0
7.595226760E-1,6.399662495E-1,-7.858940125E0,6.018118858E0,9.919186019E0
7.619278320E-1,6.160253286E-1,-7.856546402E0,6.018118858E0,9.915773453E0
7.643333530E-1,6.279958487E-1,-7.882881165E0,5.996572018E0,9.924367496E0
7.667389780E-1,6.160253286E-1,-7.873304844E0,5.994177818E0,9.914564241E0
7.691449670E-1,6.256016493E-1,-7.875699520E0,6.027695179E0,9.937360290E0
7.715506970E-1,6.064488888E-1,-7.880487442E0,6.025301456E0,9.938517003E0
7.739563220E-1,6.160253286E-1,-7.878093243E0,6.063606739E0,9.960480261E0
7.763626760E-1,6.375721693E-1,-7.861334324E0,6.068394661E0,9.951506890E0
7.787685090E-1,6.447545290E-1,-7.866122723E0,6.077971458E0,9.961592852E0
7.811737700E-1,6.806659698E-1,-7.854152203E0,6.104306221E0,9.970635257E0
7.835792380E-1,6.639072895E-1,-7.837393284E0,6.068394661E0,9.934330382E0
7.859847590E-1,6.902424097E-1,-7.839787960E0,6.032483578E0,9.916126661E0
7.883907490E-1,6.974246502E-1,-7.844575882E0,6.042059898E0,9.926240967E0
7.907965300E-1,7.141833305E-1,-7.837393284E0,6.027695179E0,9.913016720E0
7.932017900E-1,7.093951702E-1,-7.856546402E0,6.039665699E0,9.935095602E0
7.956077280E-1,7.237597704E-1,-7.851758480E0,6.049242496E0,9.938172579E0
7.980130400E-1,7.070010900E-1,-7.854152203E0,6.056424141E0,9.943230398E0
8.004179880E-1,6.950305700E-1,-7.870910645E0,6.044454098E0,9.948352990E0
8.028233530E-1,6.950305700E-1,-7.866122723E0,6.046848297E0,9.946020737E0
8.052286650E-1,6.878482103E-1,-7.875699520E0,6.058818817E0,9.960374669E0
8.076344470E-1,6.950305700E-1,-7.890063763E0,5.991784096E0,9.931648923E0
8.100398110E-1,6.974246502E-1,-7.870910645E0,5.972630978E0,9.905047012E0
8.124450200E-1,6.758778095E-1,-7.882881165E0,5.994177818E0,9.926066390E0
8.148509050E-1,6.710895300E-1,-7.882881165E0,6.006148338E0,9.932975107E0
8.172564780E-1,6.782718897E-1,-7.875699520E0,5.991784096E0,9.919081224E0
8.196618950E-1,6.591190100E-1,-7.894851685E0,6.003754616E0,9.940230907E0
8.220673630E-1,6.471486092E-1,-7.866122723E0,5.998966217E0,9.913742163E0
8.244725200E-1,6.591190100E-1,-7.894851685E0,5.998966217E0,9.937339516E0
8.268782490E-1,6.615132093E-1,-7.887670040E0,6.015724659E0,9.941925445E0
8.292839260E-1,6.279958487E-1,-7.887670040E0,6.001360416E0,9.931064610E0
8.316891860E-1,6.232075691E-1,-7.875699520E0,6.018118858E0,9.931403989E0
8.340951240E-1,6.136312485E-1,-7.870910645E0,6.020513058E0,9.928461873E0
8.365007490E-1,6.136312485E-1,-7.858940125E0,5.994177818E0,9.903012214E0
8.389059570E-1,6.088429689E-1,-7.854152203E0,6.039665699E0,9.926528010E0
8.413117380E-1,6.232075691E-1,-7.844575882E0,6.046848297E0,9.924219504E0
8.437172070E-1,6.016607285E-1,-7.851758480E0,6.034877777E0,9.921283014E0
8.461227800E-1,6.064488888E-1,-7.849363804E0,6.042059898E0,9.924050594E0
8.485280920E-1,6.232075691E-1,-7.849363804E0,6.058818817E0,9.935299958E0
8.509330920E-1,6.447545290E-1,-7.834999561E0,6.044454098E0,9.916569562E0
8.533387700E-1,6.543308496E-1,-7.830211163E0,6.046848297E0,9.914874182E0
8.557440820E-1,6.519367695E-1,-7.818240643E0,6.034877777E0,9.897962320E0
8.581492900E-1,6.686954498E-1,-7.823029041E0,6.003754616E0,9.883926673E0
8.605548630E-1,6.854541302E-1,-7.839787960E0,6.032483578E0,9.915794509E0
8.629604360E-1,6.830600500E-1,-7.813452244E0,5.986995697E0,9.867153818E0
8.653663740E-1,6.854541302E-1,-7.815846920E0,5.998966217E0,9.876482477E0
8.677717900E-1,6.902424097E-1,-7.813452244E0,6.010936737E0,9.882197681E0
8.701769470E-1,6.639072895E-1,-7.827817440E0,6.015724659E0,9.894667348E0
8.725831970E-1,6.902424097E-1,-7.842181683E0,5.991784096E0,9.893317178E0
8.749892900E-1,6.686954498E-1,-7.830211163E0,6.022907257E0,9.901251046E0
8.773949670E-1,6.591190100E-1,-7.806270123E0,6.032483578E0,9.887524928E0
8.798008530E-1,6.567250490E-1,-7.844575882E0,6.022907257E0,9.911814687E0
8.822070510E-1,6.686954498E-1,-7.839787960E0,6.018118858E0,9.905916588E0
8.846138220E-1,6.686954498E-1,-7.837393284E0,6.022907257E0,9.906931862E0
8.870198110E-1,6.830600500E-1,-7.834999561E0,6.042059898E0,9.917674978E0
8.894251760E-1,6.567250490E-1,-7.830211163E0,6.015724659E0,9.896081943E0
8.918314780E-1,6.950305700E-1,-7.832605362E0,6.025301456E0,9.906413674E0
8.942373630E-1,6.950305700E-1,-7.854152203E0,6.020513058E0,9.920551990E0
8.966428320E-1,6.806659698E-1,-7.825422764E0,6.027695179E0,9.901194714E0
8.990489260E-1,6.878482103E-1,-7.830211163E0,6.058818817E0,9.924445953E0
9.014549150E-1,6.854541302E-1,-7.844575882E0,6.049242496E0,9.929781111E0
9.038612700E-1,6.710895300E-1,-7.844575882E0,6.056424141E0,9.933176999E0
9.062672590E-1,6.806659698E-1,-7.846969604E0,6.051636219E0,9.932801169E0
9.086728840E-1,6.471486092E-1,-7.842181683E0,6.046848297E0,9.923859592E0
9.110792380E-1,6.663013697E-1,-7.830211163E0,6.063606739E0,9.925900012E0
9.134850200E-1,6.567250490E-1,-7.863729000E0,6.042059898E0,9.938612046E0
9.158904360E-1,6.327840090E-1,-7.863729000E0,6.063606739E0,9.950174676E0
9.182960090E-1,6.471486092E-1,-7.885275364E0,6.039665699E0,9.953588832E0
9.207014780E-1,6.184194088E-1,-7.870910645E0,6.032483578E0,9.936022094E0
9.231075200E-1,6.208134890E-1,-7.844575882E0,6.022907257E0,9.909500087E0
9.255133010E-1,6.160253286E-1,-7.858940125E0,6.013330936E0,9.914765556E0
9.279184570E-1,6.160253286E-1,-7.861334324E0,5.979813576E0,9.896374839E0
9.303243950E-1,6.184194088E-1,-7.832605362E0,5.979813576E0,9.873718637E0
9.327298110E-1,6.471486092E-1,-7.830211163E0,5.977419376E0,9.872211028E0
9.351345510E-1,6.495426893E-1,-7.787117481E0,5.982207298E0,9.841133498E0
9.375395510E-1,6.639072895E-1,-7.794299603E0,5.989389896E0,9.852140403E0
9.399447590E-1,6.806659698E-1,-7.799088001E0,5.975025177E0,9.848350404E0
9.423506970E-1,6.974246502E-1,-7.787117481E0,5.972630978E0,9.838593426E0
9.447564260E-1,7.093951702E-1,-7.779935360E0,5.955872536E0,9.823596764E0
9.471616860E-1,7.046068907E-1,-7.753600121E0,5.970236778E0,9.811142283E0
9.495676760E-1,7.046068907E-1,-7.794299603E0,5.977419376E0,9.847696155E0
9.519734570E-1,6.950305700E-1,-7.767964840E0,5.984601498E0,9.830554427E0
9.543788740E-1,6.974246502E-1,-7.772752762E0,5.989389896E0,9.837422323E0
9.567844470E-1,6.998187304E-1,-7.799088001E0,5.989389896E0,9.858413221E0
9.591900720E-1,6.830600500E-1,-7.763176441E0,6.003754616E0,9.837608905E0
9.615961650E-1,6.710895300E-1,-7.803876400E0,6.037271976E0,9.889363020E0
9.640016860E-1,6.734837294E-1,-7.808664322E0,6.030089378E0,9.888922931E0
9.664068420E-1,6.567250490E-1,-7.825422764E0,6.058818817E0,9.918559103E0
9.688126760E-1,6.663013697E-1,-7.813452244E0,6.049242496E0,9.903904698E0
9.712177800E-1,6.950305700E-1,-7.801481724E0,6.070789337E0,9.909625006E0
9.736224150E-1,6.758778095E-1,-7.823029041E0,6.032483578E0,9.901891350E0
9.760276760E-1,6.854541302E-1,-7.806270123E0,6.075577259E0,9.915661331E0
9.784332490E-1,6.878482103E-1,-7.818240643E0,6.063606739E0,9.917930661E0
9.808390820E-1,6.782718897E-1,-7.820634842E0,6.066000938E0,9.920622434E0
9.832447070E-1,6.830600500E-1,-7.818240643E0,6.063606739E0,9.917599733E0
9.856501240E-1,6.806659698E-1,-7.830211163E0,6.075577259E0,9.934191061E0
9.880561650E-1,6.686954498E-1,-7.834999561E0,6.077971458E0,9.938617046E0
9.904616860E-1,6.710895300E-1,-7.837393284E0,6.073183537E0,9.937738823E0
9.928669990E-1,6.854541302E-1,-7.834999561E0,6.094730377E0,9.950015269E0
9.952727800E-1,6.854541302E-1,-7.834999561E0,6.094730377E0,9.950015269E0
9.976784570E-1,6.686954498E-1,-7.832605362E0,6.077971458E0,9.936729714E0
1.000084655E0,6.663013697E-1,-7.856546402E0,6.085154057E0,9.959838291E0
1.002490540E0,6.686954498E-1,-7.832605362E0,6.073183537E0,9.933801822E0
1.004896061E0,6.854541302E-1,-7.830211163E0,6.073183537E0,9.933056553E0
1.007302467E0,6.854541302E-1,-7.839787960E0,6.082759857E0,9.946461185E0
1.009708457E0,6.974246502E-1,-7.849363804E0,6.061213017E0,9.941690827E0
1.012113874E0,7.022129297E-1,-7.856546402E0,6.080365181E0,9.959380759E0
1.014519499E0,6.974246502E-1,-7.839787960E0,6.075577259E0,9.942902767E0
1.016925176E0,6.926364899E-1,-7.846969604E0,6.066000938E0,9.942386266E0
1.019331478E0,7.070010900E-1,-7.830211163E0,6.051636219E0,9.921409089E0
1.021737415E0,6.878482103E-1,-7.834999561E0,6.018118858E0,9.903439195E0
1.024142884E0,6.639072895E-1,-7.858940125E0,6.042059898E0,9.935300729E0
1.026549134E0,6.806659698E-1,-7.849363804E0,6.042059898E0,9.928862276E0
1.028954863E0,6.519367695E-1,-7.870910645E0,6.027695179E0,9.935258683E0
1.031360020E0,6.303899288E-1,-7.854152203E0,6.020513058E0,9.916232942E0
1.033765488E0,6.495426893E-1,-7.861334324E0,6.010936737E0,9.917350630E0
1.036170957E0,6.399662495E-1,-7.873304844E0,6.032483578E0,9.939282876E0
1.038577259E0,6.567250490E-1,-7.858940125E0,6.006148338E0,9.913024036E0
1.040983197E0,6.447545290E-1,-7.844575882E0,5.996572018E0,9.895047000E0
1.043388613E0,6.447545290E-1,-7.842181683E0,5.994177818E0,9.891698017E0
1.045794811E0,6.615132093E-1,-7.839787960E0,5.948689938E0,9.863406458E0
1.048200540E0,6.567250490E-1,-7.830211163E0,5.960660458E0,9.862705903E0
1.050605957E0,6.639072895E-1,-7.837393284E0,5.975025177E0,9.877572184E0
1.053011582E0,6.830600500E-1,-7.815846920E0,5.977419376E0,9.863243711E0
1.055417363E0,6.902424097E-1,-7.825422764E0,6.010936737E0,9.891665000E0
1.057823457E0,7.093951702E-1,-7.834999561E0,6.018118858E0,9.904959072E0
1.060228874E0,6.830600500E-1,-7.832605362E0,6.030089378E0,9.908494119E0
1.062633978E0,6.758778095E-1,-7.827817440E0,6.030089378E0,9.904217011E0
1.065039759E0,6.974246502E-1,-7.830211163E0,6.037271976E0,9.911975631E0
1.067445020E0,6.567250490E-1,-7.827817440E0,6.008542538E0,9.889822905E0
1.069850072E0,6.423603296E-1,-7.834999561E0,6.025301456E0,9.904751514E0
1.072255905E0,6.256016493E-1,-7.820634842E0,6.037271976E0,9.899614117E0
1.074661582E0,6.423603296E-1,-7.830211163E0,6.027695179E0,9.902421058E0
1.077067572E0,6.375721693E-1,-7.842181683E0,6.018118858E0,9.905759254E0
1.079473457E0,6.208134890E-1,-7.832605362E0,6.008542538E0,9.891294130E0
1.081878822E0,6.232075691E-1,-7.820634842E0,6.032483578E0,9.896543595E0
1.084284863E0,6.279958487E-1,-7.811058521E0,5.996572018E0,9.867415567E0
1.086690332E0,6.423603296E-1,-7.808664322E0,6.008542538E0,9.873725169E0
1.089095540E0,6.543308496E-1,-7.815846920E0,6.008542538E0,9.880192071E0
1.091501322E0,6.663013697E-1,-7.808664322E0,5.991784096E0,9.865124057E0
1.093906947E0,6.471486092E-1,-7.796693802E0,5.986995697E0,9.851464512E0
1.096313197E0,6.495426893E-1,-7.796693802E0,5.998966217E0,9.858901339E0
1.098719238E0,6.615132093E-1,-7.801481724E0,5.996572018E0,9.862027823E0
1.101124707E0,6.495426893E-1,-7.801481724E0,6.006148338E0,9.867058359E0
1.103531009E0,6.327840090E-1,-7.818240643E0,6.003754616E0,9.877771603E0
1.105937051E0,6.232075691E-1,-7.794299603E0,6.008542538E0,9.861139761E0
1.108342207E0,6.184194088E-1,-7.820634842E0,6.013330936E0,9.884579953E0
1.110747311E0,6.208134890E-1,-7.823029041E0,6.018118858E0,9.889537267E0
1.113152520E0,6.399662495E-1,-7.830211163E0,6.032483578E0,9.905181562E0
1.115558197E0,6.519367695E-1,-7.839787960E0,6.025301456E0,9.909165174E0
1.117963770E0,6.615132093E-1,-7.846969604E0,6.030089378E0,9.918392491E0
1.120368978E0,6.663013697E-1,-7.863729000E0,6.039665699E0,9.937794175E0
1.122774863E0,6.591190100E-1,-7.839787960E0,6.034877777E0,9.915465844E0
1.125180488E0,6.902424097E-1,-7.866122723E0,6.018118858E0,9.928246364E0
1.127585488E0,6.854541302E-1,-7.861334324E0,5.996572018E0,9.911069603E0
1.129990697E0,6.782718897E-1,-7.827817440E0,5.982207298E0,9.875301656E0
1.132396165E0,6.902424097E-1,-7.818240643E0,5.977419376E0,9.865640564E0
1.134802207E0,7.046068907E-1,-7.806270123E0,5.977419376E0,9.857173352E0
1.137207936E0,6.998187304E-1,-7.801481724E0,5.982207298E0,9.855945794E0
1.139613040E0,7.046068907E-1,-7.801481724E0,6.006148338E0,9.870836126E0
1.142018926E0,6.974246502E-1,-7.794299603E0,5.972630978E0,9.844278959E0
1.144424603E0,6.878482103E-1,-7.830211163E0,5.982207298E0,9.877861417E0
1.146829863E0,6.854541302E-1,-7.825422764E0,5.989389896E0,9.878252888E0
1.149235436E0,6.998187304E-1,-7.806270123E0,6.003754616E0,9.872824771E0
1.151640905E0,7.022129297E-1,-7.832605362E0,5.986995697E0,9.883669725E0
1.154046790E0,7.070010900E-1,-7.839787960E0,6.001360416E0,9.898406571E0
1.156452311E0,6.950305700E-1,-7.818240643E0,5.900808334E0,9.819750162E0
1.158857363E0,6.686954498E-1,-7.846969604E0,6.281469822E0,1.007367603E1
1.161263197E0,7.117892504E-1,-7.820634842E0,5.927143574E0,9.838699315E0
1.163668874E0,6.854541302E-1,-7.827817440E0,6.073183537E0,9.931169695E0
1.166074186E0,6.830600500E-1,-7.799088001E0,6.224011421E0,1.000153303E1
1.168479759E0,7.237597704E-1,-7.811058521E0,5.831379414E0,9.774530643E0
1.170885488E0,6.782718897E-1,-7.815846920E0,6.367657185E0,1.010418596E1
1.173291374E0,7.117892504E-1,-7.799088001E0,5.893625736E0,9.801389795E0
1.175696790E0,6.998187304E-1,-7.820634842E0,6.109095097E0,9.948523432E0
1.178101790E0,7.141833305E-1,-7.815846920E0,6.166553020E0,9.981177138E0
1.180507572E0,7.141833305E-1,-7.818240643E0,5.781103611E0,9.749671971E0
1.182913040E0,6.830600500E-1,-7.830211163E0,6.259922981E0,1.004815474E1
1.185317936E0,7.022129297E-1,-7.815846920E0,5.766738415E0,9.738369372E0
1.187723197E0,6.782718897E-1,-7.842181683E0,6.077971458E0,9.944928524E0
1.190128613E0,6.830600500E-1,-7.837393284E0,6.039665699E0,9.918107999E0
1.192534342E0,6.782718897E-1,-7.803876400E0,5.761950493E0,9.724228150E0
1.194939603E0,6.663013697E-1,-7.834999561E0,6.243164539E0,1.004033262E1
1.197344499E0,6.926364899E-1,-7.808664322E0,5.771526814E0,9.734757601E0
1.199750488E0,6.543308496E-1,-7.827817440E0,6.133035660E0,9.965791546E0
1.202156165E0,6.686954498E-1,-7.827817440E0,6.037271976E0,9.908104380E0
1.204561217E0,6.686954498E-1,-7.811058521E0,5.833773613E0,9.772036809E0
1.206966634E0,6.639072895E-1,-7.825422764E0,6.271893501E0,1.005060508E1
1.209372155E0,6.734837294E-1,-7.808664322E0,5.754767895E0,9.723485607E0
1.211778092E0,6.279958487E-1,-7.815846920E0,6.195282459E0,9.993165995E0
1.214183457E0,6.375721693E-1,-7.830211163E0,6.018118858E0,9.896285147E0
1.216588301E0,6.327840090E-1,-7.834999561E0,5.905596256E0,9.831769976E0
1.218993926E0,6.279958487E-1,-7.851758480E0,6.303016663E0,1.008823617E1
1.221399290E0,6.447545290E-1,-7.823029041E0,5.788285255E0,9.752934839E0
1.223804707E0,6.303899288E-1,-7.866122723E0,6.281469822E0,1.008613609E1
1.226210384E0,6.734837294E-1,-7.818240643E0,6.027695179E0,9.895027855E0
1.228615853E0,6.519367695E-1,-7.842181683E0,5.965448856E0,9.874786841E0
1.231021790E0,6.806659698E-1,-7.849363804E0,6.274287224E0,1.007186668E1
1.233427259E0,6.950305700E-1,-7.823029041E0,5.749979973E0,9.733710524E0
1.235832311E0,6.710895300E-1,-7.839787960E0,6.274287224E0,1.006376255E1
1.238238092E0,7.189716101E-1,-7.815846920E0,5.912778854E0,9.826766357E0
1.240643457E0,6.710895300E-1,-7.818240643E0,5.996572018E0,9.875936607E0
1.243048717E0,6.950305700E-1,-7.830211163E0,6.252740860E0,1.004450310E1
1.245454707E0,7.046068907E-1,-7.813452244E0,5.769133091E0,9.738038994E0
1.247860645E0,6.878482103E-1,-7.832605362E0,6.341322422E0,1.010124804E1
1.250266634E0,6.950305700E-1,-7.815846920E0,5.903202534E0,9.819283616E0
1.252672103E0,6.854541302E-1,-7.834999561E0,6.089941978E0,9.947082929E0
1.255077259E0,6.998187304E-1,-7.830211163E0,6.116276741E0,9.960461549E0
1.257483092E0,6.854541302E-1,-7.858940125E0,5.963054657E0,9.888923505E0
1.259888665E0,6.734837294E-1,-7.861334324E0,6.104306221E0,9.975806340E0
1.262294134E0,6.782718897E-1,-7.861334324E0,6.044454098E0,9.939620488E0
1.264699811E0,6.974246502E-1,-7.858940125E0,6.080365181E0,9.960932775E0
1.267105488E0,6.854541302E-1,-7.875699520E0,6.056424141E0,9.958753118E0
1.269512051E0,6.902424097E-1,-7.868516922E0,6.075577259E0,9.965070605E0
1.271918405E0,6.830600500E-1,-7.854152203E0,6.077971458E0,9.954698132E0
1.274324395E0,6.974246502E-1,-7.839787960E0,6.073183537E0,9.941440271E0
1.276730957E0,6.926364899E-1,-7.849363804E0,6.082759857E0,9.954507768E0
1.279136842E0,6.974246502E-1,-7.839787960E0,6.068394661E0,9.938515491E0
1.281542363E0,7.117892504E-1,-7.813452244E0,6.087547779E0,9.930504411E0
1.283948457E0,7.333360910E-1,-7.818240643E0,6.063606739E0,9.921189206E0
1.286354499E0,7.117892504E-1,-7.806270123E0,6.054030418E0,9.904331450E0
1.288761009E0,7.333360910E-1,-7.818240643E0,6.061213017E0,9.919726397E0
1.291166895E0,7.213656902E-1,-7.803876400E0,6.018118858E0,9.881225122E0
1.293572311E0,7.022129297E-1,-7.811058521E0,5.972630978E0,9.857893234E0
1.295978665E0,6.902424097E-1,-7.818240643E0,5.994177818E0,9.875803210E0
1.298384603E0,7.022129297E-1,-7.813452244E0,5.967843056E0,9.856890468E0
1.300790332E0,7.070010900E-1,-7.823029041E0,5.991784096E0,9.879327435E0
1.303196217E0,6.902424097E-1,-7.818240643E0,5.994177818E0,9.875803210E0
1.305601738E0,6.974246502E-1,-7.815846920E0,5.986995697E0,9.870054797E0
1.308007988E0,6.974246502E-1,-7.820634842E0,5.970236778E0,9.863693916E0
1.310413926E0,6.782718897E-1,-7.811058521E0,5.979813576E0,9.860570895E0
1.312819134E0,6.854541302E-1,-7.818240643E0,5.984601498E0,9.869660034E0
1.315224863E0,6.926364899E-1,-7.827817440E0,5.953478336E0,9.858923647E0
1.317630384E0,6.974246502E-1,-7.837393284E0,5.975025177E0,9.879881603E0
1.320036009E0,6.782718897E-1,-7.830211163E0,5.972630978E0,9.871402150E0
1.322441947E0,6.902424097E-1,-7.844575882E0,5.989389896E0,9.893765546E0
1.324847780E0,6.782718897E-1,-7.827817440E0,5.998966217E0,9.885462776E0
1.327253926E0,6.950305700E-1,-7.827817440E0,6.027695179E0,9.904085144E0
1.329659811E0,6.758778095E-1,-7.820634842E0,6.027695179E0,9.897082869E0
1.332065592E0,6.806659698E-1,-7.851758480E0,6.025301456E0,9.920568282E0
1.334471842E0,6.471486092E-1,-7.854152203E0,6.003754616E0,9.907147805E0
1.336877520E0,6.399662495E-1,-7.878093243E0,6.008542538E0,9.928569553E0
1.339282884E0,6.447545290E-1,-7.875699520E0,5.982207298E0,9.911062279E0
1.341688770E0,6.279958487E-1,-7.870910645E0,5.970236778E0,9.898956528E0
1.344094655E0,6.327840090E-1,-7.880487442E0,5.963054657E0,9.902551124E0
1.346500749E0,6.447545290E-1,-7.863729000E0,5.965448856E0,9.891436814E0
1.348906322E0,6.016607285E-1,-7.875699520E0,5.977419376E0,9.905462178E0
1.351311634E0,6.399662495E-1,-7.844575882E0,5.970236778E0,9.878798245E0
1.353717676E0,6.160253286E-1,-7.849363804E0,5.951084614E0,9.869519107E0
1.356123197E0,6.303899288E-1,-7.856546402E0,5.967843056E0,9.886246182E0
1.358528770E0,6.399662495E-1,-7.837393284E0,5.943902016E0,9.857193386E0
1.360934915E0,6.591190100E-1,-7.818240643E0,5.941507816E0,9.841790475E0
1.363340645E0,6.734837294E-1,-7.811058521E0,5.972630978E0,9.855888410E0
1.365746582E0,6.926364899E-1,-7.823029041E0,5.984601498E0,9.873954819E0
1.368152259E0,6.998187304E-1,-7.818240643E0,5.979813576E0,9.867765877E0
1.370557467E0,6.830600500E-1,-7.832605362E0,5.991784096E0,9.885229104E0
1.372963301E0,6.830600500E-1,-7.815846920E0,6.013330936E0,9.885048460E0
1.375368665E0,6.950305700E-1,-7.813452244E0,6.025301456E0,9.891277021E0
1.377773509E0,7.165774107E-1,-7.799088001E0,6.066000938E0,9.906342626E0
1.380178874E0,7.022129297E-1,-7.811058521E0,6.077971458E0,9.922070110E0
1.382584551E0,7.022129297E-1,-7.815846920E0,6.104306221E0,9.941987755E0
1.384990645E0,7.381243706E-1,-7.825422764E0,6.066000938E0,9.928667403E0
1.387396270E0,7.381243706E-1,-7.794299603E0,6.070789337E0,9.907089232E0
1.389801217E0,7.285479307E-1,-7.806270123E0,6.073183537E0,9.917267445E0
1.392207051E0,7.405184507E-1,-7.808664322E0,6.058818817E0,9.911250755E0
1.394612467E0,7.261538506E-1,-7.813452244E0,6.068394661E0,9.919815983E0
1.397017415E0,7.309420109E-1,-7.827817440E0,6.056424141E0,9.924176312E0
1.399422936E0,7.213656902E-1,-7.830211163E0,6.077971458E0,9.938526669E0
1.401828197E0,6.974246502E-1,-7.825422764E0,6.058818817E0,9.921337008E0
1.404233978E0,6.902424097E-1,-7.827817440E0,6.061213017E0,9.924185795E0
1.406639811E0,7.117892504E-1,-7.846969604E0,6.080365181E0,9.952508058E0
1.409045280E0,6.782718897E-1,-7.861334324E0,6.044454098E0,9.939620488E0
1.411451426E0,6.926364899E-1,-7.846969604E0,6.044454098E0,9.929254887E0
1.413857155E0,7.093951702E-1,-7.846969604E0,6.051636219E0,9.934811242E0
1.416262624E0,7.333360910E-1,-7.825422764E0,6.030089378E0,9.906412124E0
1.418668561E0,7.022129297E-1,-7.830211163E0,6.037271976E0,9.912313694E0
1.421074551E0,7.213656902E-1,-7.858940125E0,6.032483578E0,9.933487125E0
1.423480697E0,7.165774107E-1,-7.844575882E0,6.042059898E0,9.927605037E0
1.425886322E0,7.213656902E-1,-7.839787960E0,6.042059898E0,9.924169060E0
1.428291790E0,7.165774107E-1,-7.837393284E0,6.051636219E0,9.927764985E0
1.430698145E0,7.381243706E-1,-7.818240643E0,6.049242496E0,9.912772020E0
1.433103978E0,7.333360910E-1,-7.820634842E0,6.030089378E0,9.902630411E0
1.435509238E0,7.070010900E-1,-7.830211163E0,6.080365181E0,9.938958604E0
1.437914863E0,6.878482103E-1,-7.832605362E0,6.101912498E0,9.952697024E0
1.440320488E0,7.309420109E-1,-7.832605362E0,6.128247261E0,9.971930479E0
1.442726113E0,7.070010900E-1,-7.815846920E0,6.068394661E0,9.920318915E0
1.445131322E0,7.117892504E-1,-7.820634842E0,6.051636219E0,9.914195590E0
1.447536322E0,6.974246502E-1,-7.830211163E0,6.032483578E0,9.909059799E0
1.449942155E0,7.022129297E-1,-7.830211163E0,6.003754616E0,9.891935065E0
1.452347624E0,7.046068907E-1,-7.825422764E0,5.986995697E0,9.878149107E0
1.454752624E0,6.758778095E-1,-7.844575882E0,5.998966217E0,9.898574506E0
1.457158092E0,6.830600500E-1,-7.820634842E0,5.972630978E0,9.864138136E0
1.459563405E0,7.046068907E-1,-7.830211163E0,5.979813576E0,9.877593235E0
1.461969290E0,6.902424097E-1,-7.811058521E0,5.982207298E0,9.862853237E0
1.464374811E0,7.117892504E-1,-7.799088001E0,5.975025177E0,9.850550414E0
1.466779707E0,7.070010900E-1,-7.803876400E0,5.982207298E0,9.858353897E0
1.469185436E0,7.141833305E-1,-7.784723282E0,5.970236778E0,9.836447610E0
1.471591270E0,7.117892504E-1,-7.789511681E0,5.963054657E0,9.835708261E0
1.473996895E0,7.213656902E-1,-7.787117481E0,5.955872536E0,9.830156906E0
1.476402572E0,7.429125309E-1,-7.777541161E0,5.994177818E0,9.847448058E0
1.478808197E0,7.117892504E-1,-7.794299603E0,5.979813576E0,9.849666016E0
1.481214186E0,7.333360910E-1,-7.779935360E0,6.018118858E0,9.863210969E0
1.483619811E0,7.189716101E-1,-7.787117481E0,6.037271976E0,9.879512729E0
1.486025020E0,7.309420109E-1,-7.811058521E0,6.049242496E0,9.906575908E0
1.488430749E0,7.093951702E-1,-7.791905880E0,6.058818817E0,9.895773048E0
1.490835957E0,7.070010900E-1,-7.791905880E0,6.030089378E0,9.878037543E0
1.493240905E0,7.213656902E-1,-7.796693802E0,6.051636219E0,9.896014532E0
1.495646530E0,7.070010900E-1,-7.801481724E0,6.042059898E0,9.892899244E0
1.498052415E0,7.333360910E-1,-7.825422764E0,6.015724659E0,9.897674799E0
1.500458509E0,6.902424097E-1,-7.801481724E0,6.027695179E0,9.882947983E0
1.502864290E0,7.141833305E-1,-7.811058521E0,6.030089378E0,9.893668226E0
1.505269759E0,7.213656902E-1,-7.820634842E0,6.020513058E0,9.895922153E0
1.507675645E0,6.998187304E-1,-7.844575882E0,6.006148338E0,9.904591606E0
1.510081374E0,6.902424097E-1,-7.832605362E0,5.989389896E0,9.884277043E0
1.512486842E0,6.974246502E-1,-7.825422764E0,5.977419376E0,9.871837974E0
1.514892363E0,6.758778095E-1,-7.854152203E0,5.989389896E0,9.900369133E0
1.517297780E0,6.591190100E-1,-7.823029041E0,5.975025177E0,9.865857647E0
1.519703770E0,6.758778095E-1,-7.811058521E0,5.984601498E0,9.863310860E0
1.522109342E0,6.926364899E-1,-7.791905880E0,5.984601498E0,9.849314577E0
1.524514186E0,6.998187304E-1,-7.808664322E0,5.979813576E0,9.860180280E0
1.526920124E0,7.141833305E-1,-7.803876400E0,5.986995697E0,9.861777840E0
1.529326009E0,7.189716101E-1,-7.789511681E0,6.003754616E0,9.860957453E0
1.531731270E0,7.261538506E-1,-7.789511681E0,5.991784096E0,9.854200540E0
1.534136738E0,7.453066111E-1,-7.791905880E0,6.018118858E0,9.873552237E0
1.536542207E0,7.548830509E-1,-7.794299603E0,6.020513058E0,9.877627863E0
1.538948092E0,7.477008104E-1,-7.789511681E0,6.027695179E0,9.877684845E0
1.541353717E0,7.500947714E-1,-7.787117481E0,6.013330936E0,9.867217935E0
1.543759134E0,7.237597704E-1,-7.799088001E0,6.020513058E0,9.879077859E0
1.546165072E0,7.189716101E-1,-7.827817440E0,6.018118858E0,9.899969729E0
1.548570384E0,7.141833305E-1,-7.837393284E0,6.037271976E0,9.918842888E0
1.550975280E0,7.261538506E-1,-7.811058521E0,6.046848297E0,9.904761934E0
1.553380540E0,7.165774107E-1,-7.851758480E0,6.037271976E0,9.930369949E0
1.555785801E0,6.998187304E-1,-7.832605362E0,6.058818817E0,9.927171726E0
1.558191634E0,7.213656902E-1,-7.844575882E0,6.068394661E0,9.944000854E0
1.560597051E0,7.046068907E-1,-7.846969604E0,6.070789337E0,9.946149306E0
1.563002207E0,7.165774107E-1,-7.830211163E0,6.068394661E0,9.932326203E0
1.565408249E0,7.213656902E-1,-7.825422764E0,6.066000938E0,9.927435584E0
1.567813926E0,7.189716101E-1,-7.854152203E0,6.070789337E0,9.952844326E0
1.570219290E0,7.237597704E-1,-7.849363804E0,6.058818817E0,9.942113749E0
1.572625020E0,7.141833305E-1,-7.849363804E0,6.051636219E0,9.937045380E0
1.575030749E0,7.237597704E-1,-7.854152203E0,6.039665699E0,9.934238611E0
1.577436634E0,7.237597704E-1,-7.861334324E0,6.037271976E0,9.938463587E0
1.579842207E0,7.117892504E-1,-7.846969604E0,6.025301456E0,9.918963331E0
1.582247520E0,7.117892504E-1,-7.846969604E0,6.018118858E0,9.914601883E0
1.584653770E0,6.926364899E-1,-7.846969604E0,5.994177818E0,9.898729464E0
1.587059863E0,6.902424097E-1,-7.839787960E0,6.022907257E0,9.910303813E0
1.589465488E0,7.046068907E-1,-7.830211163E0,5.998966217E0,9.889199836E0
1.591871165E0,6.926364899E-1,-7.815846920E0,6.003754616E0,9.879892604E0
1.594276947E0,6.806659698E-1,-7.830211163E0,5.994177818E0,9.884618391E0
1.596683249E0,7.022129297E-1,-7.811058521E0,6.010936737E0,9.881148652E0
1.599089134E0,6.950305700E-1,-7.825422764E0,6.008542538E0,9.890545604E0
1.601494811E0,6.974246502E-1,-7.815846920E0,6.025301456E0,9.893337246E0
1.603900905E0,6.902424097E-1,-7.823029041E0,6.046848297E0,9.911639233E0
1.606306582E0,6.998187304E-1,-7.813452244E0,6.044454098E0,9.903292764E0
1.608711895E0,7.141833305E-1,-7.801481724E0,6.049242496E0,9.897803276E0
1.611117467E0,7.213656902E-1,-7.803876400E0,6.042059898E0,9.895824531E0
1.613523197E0,7.189716101E-1,-7.811058521E0,6.042059898E0,9.901315226E0
1.615929082E0,7.429125309E-1,-7.813452244E0,6.068394661E0,9.921056837E0
1.618334499E0,7.309420109E-1,-7.811058521E0,6.080365181E0,9.925610922E0
1.620739707E0,7.429125309E-1,-7.825422764E0,6.063606739E0,9.927561994E0
1.623145801E0,7.165774107E-1,-7.830211163E0,6.087547779E0,9.944039823E0
1.625551634E0,7.141833305E-1,-7.830211163E0,6.068394661E0,9.932153766E0
1.627957051E0,7.285479307E-1,-7.844575882E0,6.046848297E0,9.931390999E0
1.630362572E0,7.213656902E-1,-7.827817440E0,6.037271976E0,9.911798386E0
1.632767884E0,7.237597704E-1,-7.808664322E0,6.027695179E0,9.891014906E0
1.635173822E0,7.429125309E-1,-7.818240643E0,6.032483578E0,9.902911889E0
1.637579603E0,7.309420109E-1,-7.823029041E0,6.037271976E0,9.908719015E0
1.639984915E0,7.500947714E-1,-7.825422764E0,6.039665699E0,9.913498139E0
1.642390905E0,7.477008104E-1,-7.808664322E0,6.042059898E0,9.901554565E0
1.644796374E0,7.477008104E-1,-7.803876400E0,6.030089378E0,9.890476292E0
1.647201322E0,7.572771311E-1,-7.789511681E0,6.030089378E0,9.879875444E0
1.649606738E0,7.692476511E-1,-7.784723282E0,6.030089378E0,9.877025688E0
1.652012051E0,7.333360910E-1,-7.796693802E0,6.063606739E0,9.904218432E0
1.654417624E0,7.572771311E-1,-7.815846920E0,6.085154057E0,9.934285662E0
1.656823145E0,7.453066111E-1,-7.787117481E0,6.085154057E0,9.910791114E0
1.659228457E0,7.500947714E-1,-7.796693802E0,6.085154057E0,9.918678153E0
1.661634238E0,7.429125309E-1,-7.799088001E0,6.056424141E0,9.902422232E0
1.664039499E0,7.237597704E-1,-7.799088001E0,6.042059898E0,9.892223697E0
1.666444811E0,7.070010900E-1,-7.803876400E0,6.049242496E0,9.899175329E0
1.668850749E0,7.093951702E-1,-7.794299603E0,6.054030418E0,9.894727490E0
1.671256582E0,7.070010900E-1,-7.787117481E0,6.080365181E0,9.905043662E0
1.673662780E0,7.261538506E-1,-7.777541161E0,6.080365181E0,9.898903306E0
1.676068509E0,7.285479307E-1,-7.801481724E0,6.075577259E0,9.914965366E0
1.678474030E0,7.405184507E-1,-7.791905880E0,6.080365181E0,9.911256507E0
1.680880228E0,7.548830509E-1,-7.777541161E0,6.082759857E0,9.902523032E0
1.683285801E0,7.429125309E-1,-7.777541161E0,6.058818817E0,9.886928289E0
1.685690957E0,7.357302904E-1,-7.782329559E0,6.066000938E0,9.894560112E0
1.688096582E0,7.644594908E-1,-7.803876400E0,6.054030418E0,9.906370147E0
1.690502051E0,7.477008104E-1,-7.799088001E0,6.037271976E0,9.891080986E0
1.692908040E0,7.381243706E-1,-7.784723282E0,6.051636219E0,9.887823071E0
1.695313822E0,7.333360910E-1,-7.803876400E0,6.073183537E0,9.915736330E0
1.697719186E0,7.500947714E-1,-7.806270123E0,6.073183537E0,9.918873608E0
1.700125176E0,7.644594908E-1,-7.811058521E0,6.075577259E0,9.925203906E0
1.702530592E0,7.500947714E-1,-7.815846920E0,6.051636219E0,9.913243978E0
1.704935853E0,7.572771311E-1,-7.803876400E0,6.037271976E0,9.895585300E0
1.707341738E0,7.907944918E-1,-7.796693802E0,6.020513058E0,9.882326024E0
1.709747520E0,7.812181711E-1,-7.791905880E0,6.027695179E0,9.882166172E0
1.712153665E0,7.836122513E-1,-7.811058521E0,6.015724659E0,9.890178287E0
1.714559342E0,7.788239717E-1,-7.803876400E0,5.989389896E0,9.868122667E0
1.716964395E0,7.596712112E-1,-7.779935360E0,6.018118858E0,9.865203959E0
1.719370384E0,7.764298916E-1,-7.794299603E0,6.022907257E0,9.880757132E0
1.721776165E0,7.788239717E-1,-7.791905880E0,5.991784096E0,9.860113624E0
1.724181530E0,7.979768515E-1,-7.801481724E0,5.977419376E0,9.860498291E0
1.726587103E0,7.716417313E-1,-7.796693802E0,5.977419376E0,9.854613519E0
1.728992676E0,7.907944918E-1,-7.787117481E0,5.986995697E0,9.854373246E0
1.731398822E0,8.267060518E-1,-7.801481724E0,6.008542538E0,9.881758113E0
1.733804707E0,7.979768515E-1,-7.789511681E0,6.010936737E0,9.871404142E0
1.736210384E0,8.099473715E-1,-7.794299603E0,6.020513058E0,9.881988591E0
1.738616790E0,8.099473715E-1,-7.806270123E0,5.998966217E0,9.878333040E0
1.741022676E0,8.027650118E-1,-7.796693802E0,6.025301456E0,9.886208755E0
1.743428197E0,8.147355318E-1,-7.801481724E0,6.030089378E0,9.893881391E0
1.745834290E0,8.219177723E-1,-7.801481724E0,6.015724659E0,9.885727544E0
1.748240124E0,8.123413324E-1,-7.796693802E0,6.051636219E0,9.903061830E0
1.750645957E0,8.123413324E-1,-7.791905880E0,6.056424141E0,9.902220410E0
1.753051426E0,7.907944918E-1,-7.803876400E0,6.032483578E0,9.895286803E0
1.755456478E0,7.955826521E-1,-7.803876400E0,6.020513058E0,9.888377830E0
1.757862207E0,7.931885719E-1,-7.806270123E0,6.025301456E0,9.892990396E0
1.760267728E0,7.740358114E-1,-7.815846920E0,6.008542538E0,9.888841082E0
1.762672988E0,8.195236921E-1,-7.820634842E0,6.015724659E0,9.900651069E0
1.765078665E0,8.003709316E-1,-7.801481724E0,5.991784096E0,9.869406637E0
1.767484447E0,8.147355318E-1,-7.808664322E0,5.975025177E0,9.866101477E0
1.769890540E0,7.955826521E-1,-7.808664322E0,5.991784096E0,9.874698319E0
1.772296270E0,7.812181711E-1,-7.818240643E0,6.003754616E0,9.888390064E0
1.774701478E0,7.955826521E-1,-7.811058521E0,5.982207298E0,9.870784728E0
1.777107363E0,8.003709316E-1,-7.791905880E0,5.975025177E0,9.851665683E0
1.779512884E0,7.596712112E-1,-7.813452244E0,5.982207298E0,9.869850074E0
1.781917936E0,7.716417313E-1,-7.803876400E0,5.965448856E0,9.853045107E0
1.784323561E0,7.524889708E-1,-7.823029041E0,5.958266258E0,9.862401322E0
1.786729186E0,7.429125309E-1,-7.815846920E0,5.975025177E0,9.866119195E0
1.789135020E0,7.237597704E-1,-7.818240643E0,5.965448856E0,9.860795861E0
1.791540436E0,7.189716101E-1,-7.844575882E0,5.955872536E0,9.875561179E0
1.793945488E0,7.093951702E-1,-7.823029041E0,5.965448856E0,9.863549308E0
1.796351374E0,6.878482103E-1,-7.844575882E0,5.955872536E0,9.873344094E0
1.798756686E0,6.974246502E-1,-7.825422764E0,5.960660458E0,9.861699431E0
1.801161530E0,6.974246502E-1,-7.849363804E0,5.970236778E0,9.886487772E0
1.803566790E0,7.093951702E-1,-7.834999561E0,5.967843056E0,9.874492917E0
1.805972259E0,6.758778095E-1,-7.837393284E0,5.953478336E0,9.865366116E0
1.808378301E0,6.950305700E-1,-7.834999561E0,5.948689938E0,9.861906387E0
1.810783822E0,6.758778095E-1,-7.844575882E0,5.958266258E0,9.873961636E0
1.813188978E0,6.806659698E-1,-7.858940125E0,5.972630978E0,9.894370462E0
1.815594967E0,6.758778095E-1,-7.854152203E0,5.972630978E0,9.890239554E0
1.818000332E0,6.782718897E-1,-7.854152203E0,5.972630978E0,9.890403448E0
1.820405280E0,6.686954498E-1,-7.851758480E0,5.979813576E0,9.892190619E0
1.822810645E0,6.854541302E-1,-7.851758480E0,5.986995697E0,9.897680338E0
1.825216113E0,6.663013697E-1,-7.858940125E0,6.015724659E0,9.919467756E0
1.827621947E0,6.734837294E-1,-7.868516922E0,6.008542538E0,9.923191136E0
1.830027363E0,6.710895300E-1,-7.873304844E0,6.027695179E0,9.938430434E0
1.832432624E0,7.070010900E-1,-7.866122723E0,6.030089378E0,9.936685320E0
1.834838405E0,6.926364899E-1,-7.868516922E0,6.046848297E0,9.947747393E0
1.837243561E0,7.141833305E-1,-7.882881165E0,6.066000938E0,9.972273596E0
1.839648561E0,6.615132093E-1,-7.880487442E0,6.068394661E0,9.968204242E0
1.842053874E0,6.854541302E-1,-7.885275364E0,6.063606739E0,9.970694139E0
1.844459082E0,6.950305700E-1,-7.878093243E0,6.058818817E0,9.962765986E0
1.846865072E0,6.734837294E-1,-7.880487442E0,6.066000938E0,9.967548848E0
1.849270697E0,6.686954498E-1,-7.878093243E0,6.080365181E0,9.974083791E0
1.851675749E0,6.902424097E-1,-7.861334324E0,6.092335701E0,9.969632201E0
1.854081530E0,6.926364899E-1,-7.856546402E0,6.068394661E0,9.951405953E0
1.856486842E0,6.974246502E-1,-7.866122723E0,6.073183537E0,9.962220942E0
1.858891790E0,7.093951702E-1,-7.837393284E0,6.058818817E0,9.931629295E0
1.861297415E0,7.381243706E-1,-7.827817440E0,6.075577259E0,9.936407424E0
1.863702884E0,7.333360910E-1,-7.820634842E0,6.094730377E0,9.942125000E0
1.866108822E0,7.333360910E-1,-7.825422764E0,6.077971458E0,9.935630846E0
1.868514395E0,7.500947714E-1,-7.806270123E0,6.089941978E0,9.929143402E0
1.870919499E0,7.477008104E-1,-7.811058521E0,6.061213017E0,9.915139684E0
1.873325645E0,7.500947714E-1,-7.820634842E0,6.068394661E0,9.927254669E0
1.875731270E0,7.596712112E-1,-7.820634842E0,6.066000938E0,9.926519887E0
1.878136530E0,7.477008104E-1,-7.844575882E0,6.061213017E0,9.941565797E0
1.880542363E0,7.381243706E-1,-7.866122723E0,6.042059898E0,9.946215466E0
1.882948092E0,7.309420109E-1,-7.844575882E0,6.020513058E0,9.915554673E0
1.885353926E0,7.237597704E-1,-7.854152203E0,6.039665699E0,9.934238611E0
1.887759030E0,7.261538506E-1,-7.870910645E0,6.042059898E0,9.949121650E0
1.890164082E0,7.213656902E-1,-7.897245884E0,6.022907257E0,9.958025549E0
1.892569967E0,7.261538506E-1,-7.894851685E0,6.008542538E0,9.947792014E0
1.894975332E0,7.237597704E-1,-7.873304844E0,6.022907257E0,9.939223772E0
1.897380384E0,7.405184507E-1,-7.875699520E0,6.003754616E0,9.930764321E0
1.899785384E0,7.692476511E-1,-7.870910645E0,6.008542538E0,9.932047108E0
1.902190436E0,7.692476511E-1,-7.849363804E0,5.996572018E0,9.907730822E0
1.904596113E0,8.027650118E-1,-7.863729000E0,6.018118858E0,9.934808506E0
1.907001530E0,7.836122513E-1,-7.842181683E0,6.001360416E0,9.906068269E0
1.909406634E0,8.027650118E-1,-7.858940125E0,5.982207298E0,9.909297437E0
1.911812676E0,8.291000128E-1,-7.858940125E0,5.984601498E0,9.912910864E0
1.914218092E0,8.051590919E-1,-7.858940125E0,5.996572018E0,9.918170043E0
1.916623092E0,7.931885719E-1,-7.870910645E0,5.975025177E0,9.913692972E0
1.919028457E0,8.075531721E-1,-7.873304844E0,5.979813576E0,9.919639192E0
1.921433717E0,7.740358114E-1,-7.873304844E0,5.984601498E0,9.919854620E0
1.923839499E0,7.836122513E-1,-7.882881165E0,5.975025177E0,9.922438686E0
1.926244707E0,7.644594908E-1,-7.892457962E0,5.970236778E0,9.925674697E0
1.928649395E0,7.884004116E-1,-7.878093243E0,5.994177818E0,9.930563734E0
1.931055124E0,7.740358114E-1,-7.887670040E0,5.979813576E0,9.928375522E0
1.933460645E0,7.788239717E-1,-7.875699520E0,5.970236778E0,9.913472494E0
1.935865645E0,7.644594908E-1,-7.866122723E0,5.979813576E0,9.910522459E0
1.938271009E0,7.979768515E-1,-7.856546402E0,5.972630978E0,9.901232712E0
1.940676634E0,7.884004116E-1,-7.844575882E0,5.979813576E0,9.895307796E0
1.943082467E0,7.884004116E-1,-7.842181683E0,6.001360416E0,9.906448183E0
1.945487832E0,8.003709316E-1,-7.851758480E0,5.984601498E0,9.904855372E0
1.947892936E0,7.979768515E-1,-7.858940125E0,6.013330936E0,9.927731659E0
1.950298770E0,7.907944918E-1,-7.846969604E0,6.008542538E0,9.914780448E0
1.952704030E0,7.979768515E-1,-7.866122723E0,5.975025177E0,9.910276465E0
1.955108717E0,7.979768515E-1,-7.851758480E0,5.972630978E0,9.897433964E0
1.957513717E0,7.979768515E-1,-7.858940125E0,5.965448856E0,9.898802301E0
1.959919134E0,7.716417313E-1,-7.861334324E0,5.984601498E0,9.910169696E0
1.962325124E0,7.884004116E-1,-7.868516922E0,5.963054657E0,9.904198837E0
1.964730697E0,7.931885719E-1,-7.870910645E0,5.963054657E0,9.906482894E0
1.967136009E0,7.860063314E-1,-7.858940125E0,5.922354698E0,9.871931473E0
1.969541790E0,7.620652914E-1,-7.858940125E0,5.939114094E0,9.880119413E0
1.971947051E0,7.764298916E-1,-7.839787960E0,5.936719418E0,9.864570750E0
1.974351842E0,7.836122513E-1,-7.844575882E0,5.951084614E0,9.877592167E0
1.976757155E0,7.764298916E-1,-7.827817440E0,5.975025177E0,9.878182784E0
1.979162676E0,7.907944918E-1,-7.825422764E0,5.991784096E0,9.887571694E0
1.981568665E0,8.051590919E-1,-7.808664322E0,5.996572018E0,9.878380212E0
1.983974290E0,8.051590919E-1,-7.794299603E0,5.989389896E0,9.862665907E0
1.986379447E0,7.979768515E-1,-7.791905880E0,6.018118858E0,9.877667685E0
1.988785540E0,8.195236921E-1,-7.794299603E0,6.030089378E0,9.888614832E0
1.991191374E0,8.195236921E-1,-7.784723282E0,6.020513058E0,9.875227245E0
1.993596530E0,8.171296120E-1,-7.808664322E0,6.039665699E0,9.905579289E0
1.996001947E0,8.099473715E-1,-7.806270123E0,6.039665699E0,9.903102025E0
1.998407467E0,7.931885719E-1,-7.844575882E0,6.032483578E0,9.927606811E0
2.000813353E0,7.907944918E-1,-7.844575882E0,6.037271976E0,9.930326259E0
2.003218665E0,7.931885719E-1,-7.844575882E0,6.063606739E0,9.946549430E0
2.005623509E0,7.931885719E-1,-7.851758480E0,6.046848297E0,9.942013562E0
2.008029238E0,7.716417313E-1,-7.849363804E0,6.027695179E0,9.926784588E0
2.010434603E0,7.548830509E-1,-7.856546402E0,6.013330936E0,9.922465356E0
2.012839551E0,7.477008104E-1,-7.856546402E0,6.037271976E0,9.936449607E0
2.015244967E0,7.788239717E-1,-7.875699520E0,6.027695179E0,9.948181687E0
2.017650436E0,7.668534517E-1,-7.870910645E0,6.027695179E0,9.943460553E0
2.020056322E0,7.548830509E-1,-7.849363804E0,6.008542538E0,9.913876334E0
2.022461842E0,7.668534517E-1,-7.851758480E0,6.025301456E0,9.926854138E0
2.024866999E0,7.596712112E-1,-7.880487442E0,5.967843056E0,9.914349873E0
2.027272884E0,7.357302904E-1,-7.851758480E0,5.994177818E0,9.905633650E0
2.029678197E0,7.477008104E-1,-7.858940125E0,6.025301456E0,9.931075170E0
2.032083145E0,7.213656902E-1,-7.861334324E0,6.056424141E0,9.949935637E0
2.034488770E0,7.261538506E-1,-7.866122723E0,6.022907257E0,9.933710179E0
2.036894603E0,7.213656902E-1,-7.873304844E0,6.027695179E0,9.941951860E0
2.039300697E0,7.381243706E-1,-7.863729000E0,6.008542538E0,9.923993390E0
2.041706217E0,7.141833305E-1,-7.849363804E0,5.991784096E0,9.900709399E0
2.044111426E0,7.357302904E-1,-7.851758480E0,5.953478336E0,9.881058374E0
2.046517572E0,7.381243706E-1,-7.844575882E0,5.979813576E0,9.891429055E0
2.048923405E0,7.453066111E-1,-7.844575882E0,5.958266258E0,9.878956904E0
2.051329030E0,7.500947714E-1,-7.832605362E0,5.965448856E0,9.874154596E0
2.053735176E0,7.548830509E-1,-7.820634842E0,5.965448856E0,9.865027005E0
2.056141165E0,7.884004116E-1,-7.801481724E0,5.975025177E0,9.858276632E0
2.058547415E0,7.884004116E-1,-7.784723282E0,5.977419376E0,9.846473185E0
2.060952884E0,7.931885719E-1,-7.772752762E0,5.970236778E0,9.833034160E0
2.063357832E0,8.243118525E-1,-7.794299603E0,5.972630978E0,9.854081242E0
2.065763822E0,8.243118525E-1,-7.775146961E0,5.943902016E0,9.821525924E0
2.068169447E0,8.506469727E-1,-7.760782242E0,5.972630978E0,9.829835302E0
2.070574707E0,8.626174927E-1,-7.772752762E0,5.963054657E0,9.834521609E0
2.072980280E0,8.769820929E-1,-7.755994320E0,5.958266258E0,9.819647768E0
2.075385853E0,8.793761730E-1,-7.765570641E0,5.951084614E0,9.823074769E0
2.077792051E0,8.865585327E-1,-7.770359039E0,5.984601498E0,9.847838378E0
2.080197988E0,9.009230137E-1,-7.782329559E0,5.989389896E0,9.861496184E0
2.082603249E0,8.745880127E-1,-7.779935360E0,5.979813576E0,9.851419634E0
2.085009186E0,8.697997332E-1,-7.799088001E0,5.986995697E0,9.870483408E0
2.087414915E0,8.650115728E-1,-7.801481724E0,5.989389896E0,9.873406375E0
2.089820176E0,8.697997332E-1,-7.830211163E0,5.977419376E0,9.889302343E0
2.092225853E0,8.554352522E-1,-7.820634842E0,5.960660458E0,9.870337983E0
2.094631738E0,8.602234125E-1,-7.815846920E0,5.951084614E0,9.861179213E0
2.097038145E0,8.721939325E-1,-7.839787960E0,5.963054657E0,9.888428508E0
2.099444186E0,8.482528925E-1,-7.863729000E0,5.955872536E0,9.901019363E0
2.101849811E0,8.386765718E-1,-7.858940125E0,5.922354698E0,9.876264650E0
2.104256217E0,8.362823725E-1,-7.842181683E0,5.963054657E0,9.887224211E0
2.106662259E0,8.267060518E-1,-7.854152203E0,5.982207298E0,9.907469600E0
2.109068197E0,8.243118525E-1,-7.849363804E0,5.977419376E0,9.900583041E0
2.111474707E0,8.362823725E-1,-7.851758480E0,5.955872536E0,9.890495291E0
2.113880749E0,8.314942122E-1,-7.851758480E0,5.943902016E0,9.882887484E0
2.116287051E0,8.291000128E-1,-7.842181683E0,5.951084614E0,9.879404256E0
2.118692936E0,8.362823725E-1,-7.837393284E0,5.960660458E0,9.881982331E0
2.121098561E0,8.195236921E-1,-7.851758480E0,5.943902016E0,9.881887547E0
2.123505020E0,8.314942122E-1,-7.827817440E0,5.958266258E0,9.872539962E0
2.125910905E0,8.386765718E-1,-7.825422764E0,5.984601498E0,9.887167183E0
2.128316530E0,8.291000128E-1,-7.823029041E0,5.979813576E0,9.881566708E0
2.130722572E0,8.075531721E-1,-7.823029041E0,5.963054657E0,9.869647732E0
2.133128822E0,8.051590919E-1,-7.813452244E0,5.951084614E0,9.854629633E0
2.135535592E0,8.099473715E-1,-7.827817440E0,5.919960976E0,9.847673765E0
2.137941478E0,8.051590919E-1,-7.832605362E0,5.963054657E0,9.877044536E0
2.140346582E0,7.979768515E-1,-7.834999561E0,5.946295738E0,9.868253046E0
2.142752676E0,8.075531721E-1,-7.842181683E0,5.963054657E0,9.884835685E0
2.145158301E0,7.884004116E-1,-7.854152203E0,5.934325218E0,9.875499877E0
2.147563353E0,7.884004116E-1,-7.830211163E0,5.939114094E0,9.859353847E0
2.149968926E0,7.692476511E-1,-7.842181683E0,5.943902016E0,9.870234377E0
2.152374551E0,7.620652914E-1,-7.815846920E0,5.941507816E0,9.847320535E0
2.154780436E0,7.548830509E-1,-7.830211163E0,6.137824059E0,9.977722157E0
2.157185697E0,7.716417313E-1,-7.849363804E0,5.778708935E0,9.777597867E0
2.159590801E0,7.644594908E-1,-7.844575882E0,5.742797375E0,9.751999322E0
2.161996947E0,8.027650118E-1,-7.830211163E0,6.195282459E0,1.001689389E1
2.164402520E0,8.075531721E-1,-7.844575882E0,5.649427891E0,9.700801430E0
2.166807728E0,7.524889708E-1,-7.866122723E0,6.168947220E0,1.002487088E1
2.169213405E0,8.147355318E-1,-7.851758480E0,5.864896774E0,9.834171007E0
2.171618978E0,7.764298916E-1,-7.870910645E0,5.857714176E0,9.842098004E0
2.174025072E0,7.860063314E-1,-7.842181683E0,6.168947220E0,1.000867270E1
2.176430853E0,8.075531721E-1,-7.832605362E0,5.654215813E0,9.693915893E0
2.178836165E0,7.907944918E-1,-7.858940125E0,6.152188301E0,1.001187878E1
2.181242207E0,8.243118525E-1,-7.839787960E0,5.824196815E0,9.801175125E0
2.183647832E0,7.836122513E-1,-7.844575882E0,5.910384178E0,9.853124381E0
2.186052884E0,8.195236921E-1,-7.834999561E0,6.154582500E0,9.996885663E0
2.188458301E0,8.291000128E-1,-7.823029041E0,5.702097893E0,9.716023394E0
2.190863926E0,8.075531721E-1,-7.842181683E0,6.231194019E0,1.004886733E1
2.193269707E0,8.386765718E-1,-7.832605362E0,5.797862053E0,9.781016794E0
2.195675072E0,7.979768515E-1,-7.837393284E0,5.975025177E0,9.887488377E0
2.198080384E0,8.003709316E-1,-7.851758480E0,6.111488819E0,9.982033883E0
2.200486374E0,8.291000128E-1,-7.842181683E0,5.697309971E0,9.728646426E0
2.202892051E0,7.764298916E-1,-7.861334324E0,6.231194019E0,1.006137166E1
2.205297572E0,8.171296120E-1,-7.830211163E0,5.745192051E0,9.746134585E0
2.207703301E0,7.692476511E-1,-7.858940125E0,6.022907257E0,9.931268482E0
2.210108665E0,7.764298916E-1,-7.861334324E0,6.044454098E0,9.946800796E0
2.212514395E0,7.955826521E-1,-7.851758480E0,5.709280491E0,9.740582463E0
2.214919915E0,7.836122513E-1,-7.837393284E0,6.224011421E0,1.003877980E1
2.217325124E0,8.027650118E-1,-7.811058521E0,5.718856812E0,9.714030580E0
2.219731061E0,7.979768515E-1,-7.842181683E0,6.034877777E0,9.927554099E0
2.222136634E0,8.219177723E-1,-7.808664322E0,5.996572018E0,9.879760285E0
2.224541895E0,8.003709316E-1,-7.779935360E0,5.721251011E0,9.690237405E0
2.226947467E0,8.027650118E-1,-7.801481724E0,6.243164539E0,1.002420332E1
2.229353145E0,8.123413324E-1,-7.784723282E0,5.709280491E0,9.688018308E0
2.231759342E0,8.123413324E-1,-7.791905880E0,6.121065617E0,9.941888149E0
2.234165124E0,8.075531721E-1,-7.777541161E0,5.960660458E0,9.832179907E0
2.236570436E0,8.147355318E-1,-7.784723282E0,5.776314735E0,9.727873482E0
2.238976634E0,8.291000128E-1,-7.811058521E0,6.226405144E0,1.002338082E1
2.241382363E0,8.147355318E-1,-7.789511681E0,5.714068413E0,9.694888552E0
2.243787676E0,7.884004116E-1,-7.808664322E0,6.164158821E0,9.979662703E0
2.246193613E0,8.147355318E-1,-7.799088001E0,5.939114094E0,9.836800489E0
2.248599447E0,7.740358114E-1,-7.811058521E0,5.850532055E0,9.789815728E0
2.251005488E0,7.979768515E-1,-7.827817440E0,6.231194019E0,1.003689553E1
2.253411113E0,7.955826521E-1,-7.818240643E0,5.761950493E0,9.744635036E0
2.255816113E0,7.836122513E-1,-7.844575882E0,6.073183537E0,9.951631886E0
2.258221895E0,7.812181711E-1,-7.837393284E0,5.963054657E0,9.878919787E0
2.260627207E0,7.884004116E-1,-7.827817440E0,5.936719418E0,9.856010274E0
2.263032103E0,7.884004116E-1,-7.861334324E0,5.958266258E0,9.895609600E0
2.265437676E0,8.051590919E-1,-7.856546402E0,5.943902016E0,9.884511809E0
2.267842988E0,7.907944918E-1,-7.866122723E0,5.941507816E0,9.889527681E0
2.270248717E0,8.075531721E-1,-7.851758480E0,5.943902016E0,9.880902010E0
2.272654395E0,7.931885719E-1,-7.846969604E0,5.967843056E0,9.890360500E0
2.275059603E0,7.931885719E-1,-7.854152203E0,5.982207298E0,9.904729128E0
2.277465124E0,7.907944918E-1,-7.863729000E0,5.967843056E0,9.903471132E0
2.279870645E0,7.955826521E-1,-7.878093243E0,5.982207298E0,9.923916014E0
2.282276009E0,7.884004116E-1,-7.880487442E0,5.953478336E0,9.907954473E0
2.284681530E0,8.051590919E-1,-7.863729000E0,5.948689938E0,9.893099965E0
2.287086947E0,8.027650118E-1,-7.873304844E0,5.943902016E0,9.897642750E0
2.289492467E0,7.979768515E-1,-7.887670040E0,5.960660458E0,9.918748853E0
2.291897363E0,8.027650118E-1,-7.875699520E0,5.960660458E0,9.909618948E0
2.294301947E0,8.099473715E-1,-7.863729000E0,5.975025177E0,9.909347829E0
2.296707676E0,8.267060518E-1,-7.866122723E0,6.010936737E0,9.934318801E0
2.299113197E0,8.314942122E-1,-7.870910645E0,6.010936737E0,9.938509821E0
2.301518405E0,8.482528925E-1,-7.861334324E0,6.001360416E0,9.926552129E0
2.303923717E0,8.506469727E-1,-7.856546402E0,6.027695179E0,9.938914971E0
2.306328770E0,8.338882923E-1,-7.880487442E0,6.013330936E0,9.947743511E0
2.308734447E0,8.386765718E-1,-7.849363804E0,6.042059898E0,9.940944539E0
2.311139915E0,8.745880127E-1,-7.870910645E0,6.051636219E0,9.966867085E0
2.313545072E0,8.626174927E-1,-7.858940125E0,6.056424141E0,9.959283217E0
2.315951113E0,8.578293324E-1,-7.899640560E0,6.054030418E0,9.989568382E0
2.318356738E0,8.578293324E-1,-7.861334324E0,6.063606739E0,9.965127957E0
2.320761895E0,8.506469727E-1,-7.866122723E0,6.030089378E0,9.947937719E0
2.323167624E0,8.578293324E-1,-7.878093243E0,6.032483578E0,9.959471995E0
2.325573301E0,8.410706520E-1,-7.873304844E0,6.039665699E0,9.958608877E0
2.327979186E0,8.530410528E-1,-7.880487442E0,6.042059898E0,9.966757205E0
2.330384811E0,8.602234125E-1,-7.890063763E0,6.010936737E0,9.956126303E0
2.332789967E0,8.530410528E-1,-7.875699520E0,6.008542538E0,9.942680996E0
2.335195905E0,8.458588123E-1,-7.890063763E0,6.006148338E0,9.952004882E0
2.337601582E0,8.338882923E-1,-7.882881165E0,5.998966217E0,9.940964783E0
2.340006582E0,7.979768515E-1,-7.887670040E0,5.991784096E0,9.937483704E0
2.342411895E0,8.243118525E-1,-7.885275364E0,5.994177818E0,9.939176289E0
2.344817259E0,8.219177723E-1,-7.880487442E0,5.994177818E0,9.935179861E0
2.347223092E0,7.979768515E-1,-7.880487442E0,6.006148338E0,9.940456088E0
2.349628665E0,8.099473715E-1,-7.882881165E0,5.979813576E0,9.927436759E0
2.352033926E0,8.171296120E-1,-7.880487442E0,5.960660458E0,9.914598137E0
2.354439707E0,8.243118525E-1,-7.892457962E0,5.941507816E0,9.913218339E0
2.356845124E0,8.075531721E-1,-7.863729000E0,5.958266258E0,9.899056153E0
2.359250436E0,8.171296120E-1,-7.842181683E0,5.939114094E0,9.871200057E0
2.361656113E0,8.027650118E-1,-7.854152203E0,5.936719418E0,9.878095764E0
2.364061686E0,8.003709316E-1,-7.856546402E0,5.922354698E0,9.871180282E0
2.366467832E0,8.195236921E-1,-7.858940125E0,5.929537296E0,9.878966115E0
2.368873770E0,8.027650118E-1,-7.854152203E0,5.924749374E0,9.870906424E0
2.371279030E0,7.740358114E-1,-7.866122723E0,5.931931496E0,9.882450576E0
2.373684707E0,7.668534517E-1,-7.870910645E0,5.903202534E0,9.868490196E0
2.376090280E0,7.644594908E-1,-7.880487442E0,5.919960976E0,9.885970797E0
2.378495697E0,7.500947714E-1,-7.911610603E0,5.917566776E0,9.908270336E0
2.380901165E0,7.572771311E-1,-7.890063763E0,5.903202534E0,9.883034705E0
2.383306842E0,7.524889708E-1,-7.914004803E0,5.888837814E0,9.893236198E0
2.385712884E0,7.381243706E-1,-7.916399002E0,5.905596256E0,9.904053104E0
2.388118249E0,7.357302904E-1,-7.921186924E0,5.874473095E0,9.889182751E0
2.390523509E0,7.620652914E-1,-7.914004803E0,5.922354698E0,9.913954846E0
2.392929707E0,7.548830509E-1,-7.928369522E0,5.931931496E0,9.930594291E0
2.395335488E0,7.620652914E-1,-7.911610603E0,5.929537296E0,9.916336944E0
2.397740645E0,7.716417313E-1,-7.918792725E0,5.931931496E0,9.924239036E0
2.400146165E0,8.123413324E-1,-7.887670040E0,5.917566776E0,9.894080738E0
2.402551634E0,8.147355318E-1,-7.882881165E0,5.929537296E0,9.897627089E0
2.404957259E0,8.123413324E-1,-7.892457962E0,5.965448856E0,9.926599175E0
2.407362311E0,8.434647322E-1,-7.904428482E0,5.984601498E0,9.950219971E0
2.409767103E0,8.626174927E-1,-7.892457962E0,5.979813576E0,9.939475440E0
2.412173249E0,8.745880127E-1,-7.875699520E0,5.996572018E0,9.937324745E0
2.414579030E0,8.841644526E-1,-7.880487442E0,5.972630978E0,9.927545009E0
2.416984551E0,8.865585327E-1,-7.873304844E0,5.982207298E0,9.927825510E0
2.419390488E0,9.009230137E-1,-7.875699520E0,5.984601498E0,9.932459932E0
2.421796061E0,8.985290527E-1,-7.870910645E0,5.991784096E0,9.932777330E0
2.424201790E0,9.176818132E-1,-7.870910645E0,6.006148338E0,9.943198286E0
2.426607207E0,8.985290527E-1,-7.892457962E0,6.013330936E0,9.962850801E0
2.429012311E0,8.745880127E-1,-7.878093243E0,5.986995697E0,9.933447277E0
2.431418040E0,8.745880127E-1,-7.885275364E0,5.972630978E0,9.930498102E0
2.433823561E0,8.291000128E-1,-7.911610603E0,5.967843056E0,9.944653835E0
2.436228770E0,8.123413324E-1,-7.904428482E0,5.972630978E0,9.940433032E0
2.438634238E0,7.955826521E-1,-7.897245884E0,5.967843056E0,9.930488157E0
2.441039655E0,7.860063314E-1,-7.899640560E0,5.975025177E0,9.935947504E0
2.443445488E0,7.764298916E-1,-7.887670040E0,5.979813576E0,9.928562456E0
2.445851009E0,7.836122513E-1,-7.894851685E0,5.960660458E0,9.923316198E0
2.448256374E0,7.788239717E-1,-7.882881165E0,5.948689938E0,9.906225023E0
2.450662415E0,7.716417313E-1,-7.875699520E0,5.955872536E0,9.904266331E0
2.453067936E0,7.644594908E-1,-7.880487442E0,5.919960976E0,9.885970797E0
2.455473145E0,7.572771311E-1,-7.873304844E0,5.936719418E0,9.889743943E0
2.457878874E0,7.644594908E-1,-7.882881165E0,5.917566776E0,9.886445788E0
2.460284342E0,7.644594908E-1,-7.878093243E0,5.929537296E0,9.889801009E0
2.462690332E0,7.884004116E-1,-7.856546402E0,5.936719418E0,9.878842747E0
2.465096113E0,7.955826521E-1,-7.846969604E0,5.936719418E0,9.871804352E0
2.467501790E0,7.931885719E-1,-7.854152203E0,5.934325218E0,9.875883288E0
2.469908405E0,8.003709316E-1,-7.851758480E0,5.927143574E0,9.870244972E0
2.472314551E0,7.931885719E-1,-7.849363804E0,5.955872536E0,9.885043141E0
2.474720124E0,8.099473715E-1,-7.873304844E0,5.943902016E0,9.898227876E0
2.477126113E0,8.027650118E-1,-7.851758480E0,5.927143574E0,9.870439394E0
2.479532051E0,7.979768515E-1,-7.858940125E0,5.915173054E0,9.868585471E0
2.481938301E0,8.027650118E-1,-7.856546402E0,5.924749374E0,9.872811564E0
2.484344186E0,8.003709316E-1,-7.844575882E0,5.941507816E0,9.873169680E0
2.486749238E0,7.907944918E-1,-7.854152203E0,5.934325218E0,9.875691295E0
2.489154863E0,7.788239717E-1,-7.854152203E0,5.929537296E0,9.871863357E0
2.491560488E0,7.955826521E-1,-7.875699520E0,5.936719418E0,9.894656746E0
2.493965488E0,7.931885719E-1,-7.875699520E0,5.941507816E0,9.897338338E0
2.496370801E0,7.500947714E-1,-7.892457962E0,5.924749374E0,9.897281950E0
2.498776217E0,7.572771311E-1,-7.899640560E0,5.912778854E0,9.896400528E0
2.501181790E0,7.548830509E-1,-7.911610603E0,5.931931496E0,9.917219471E0
2.503587207E0,7.453066111E-1,-7.897245884E0,5.946295738E0,9.913647538E0
2.505992520E0,7.668534517E-1,-7.902034283E0,5.951084614E0,9.921976522E0
2.508398561E0,7.668534517E-1,-7.890063763E0,5.984601498E0,9.932604164E0
2.510803822E0,7.884004116E-1,-7.885275364E0,5.967843056E0,9.920397850E0
2.513208822E0,7.907944918E-1,-7.885275364E0,6.010936737E0,9.946571467E0
2.515614447E0,8.075531721E-1,-7.880487442E0,6.018118858E0,9.948466165E0
2.518020020E0,8.458588123E-1,-7.873304844E0,6.008542538E0,9.940170508E0
2.520425957E0,8.314942122E-1,-7.882881165E0,6.044454098E0,9.968280866E0
2.522831426E0,8.410706520E-1,-7.870910645E0,6.044454098E0,9.959621456E0
2.525236530E0,8.650115728E-1,-7.890063763E0,6.058818817E0,9.985521351E0
2.527642728E0,8.482528925E-1,-7.894851685E0,6.080365181E0,1.000095280E1
2.530048353E0,8.458588123E-1,-7.894851685E0,6.082759857E0,1.000220614E1
2.532453249E0,8.386765718E-1,-7.904428482E0,6.089941978E0,1.001352891E1
2.534859030E0,8.219177723E-1,-7.897245884E0,6.080365181E0,1.000064408E1
2.537265020E0,8.195236921E-1,-7.914004803E0,6.077971458E0,1.001223392E1
2.539671270E0,8.195236921E-1,-7.890063763E0,6.101912498E0,1.000789995E1
2.542077051E0,8.267060518E-1,-7.899640560E0,6.089941978E0,1.000875403E1
2.544482520E0,8.291000128E-1,-7.911610603E0,6.087547779E0,1.001694700E1
2.546888717E0,8.147355318E-1,-7.894851685E0,6.073183537E0,9.993799847E0
2.549294395E0,8.195236921E-1,-7.890063763E0,6.051636219E0,9.977325603E0
2.551699603E0,8.195236921E-1,-7.875699520E0,6.032483578E0,9.954351819E0
2.554105436E0,7.955826521E-1,-7.837393284E0,6.030089378E0,9.920668483E0
2.556511322E0,8.123413324E-1,-7.842181683E0,6.025301456E0,9.922901271E0
2.558917207E0,8.171296120E-1,-7.846969604E0,6.020513058E0,9.924173026E0
2.561322676E0,8.027650118E-1,-7.830211163E0,5.979813576E0,9.885080117E0
2.563728092E0,8.123413324E-1,-7.830211163E0,5.955872536E0,9.871399240E0
2.566134551E0,8.123413324E-1,-7.796693802E0,5.929537296E0,9.828923910E0
2.568540332E0,7.788239717E-1,-7.811058521E0,5.893625736E0,9.816008676E0
2.570945332E0,7.955826521E-1,-7.784723282E0,5.891232014E0,9.794972331E0
2.573350801E0,7.979768515E-1,-7.791905880E0,5.898413658E0,9.805194949E0
2.575756478E0,8.099473715E-1,-7.799088001E0,5.874473095E0,9.797511038E0
2.578162572E0,7.907944918E-1,-7.799088001E0,5.893625736E0,9.807443800E0
2.580568353E0,8.051590919E-1,-7.775146961E0,5.888837814E0,9.786705382E0
2.582973770E0,7.860063314E-1,-7.794299603E0,5.869684696E0,9.788876886E0
2.585379655E0,7.812181711E-1,-7.818240643E0,5.881655216E0,9.814736709E0
2.587785228E0,7.955826521E-1,-7.799088001E0,5.891232014E0,9.806392815E0
2.590190801E0,7.764298916E-1,-7.806270123E0,5.910384178E0,9.822084185E0
2.592596634E0,7.979768515E-1,-7.811058521E0,5.900808334E0,9.821860378E0
2.595002103E0,7.884004116E-1,-7.813452244E0,5.907990456E0,9.827306976E0
2.597407936E0,7.979768515E-1,-7.827817440E0,5.915173054E0,9.843818628E0
2.599813301E0,7.979768515E-1,-7.834999561E0,5.884049416E0,9.830870903E0
2.602218145E0,8.051590919E-1,-7.823029041E0,5.888837814E0,9.824788819E0
2.604624186E0,8.123413324E-1,-7.813452244E0,5.915173054E0,9.833575477E0
2.607029863E0,8.027650118E-1,-7.818240643E0,5.936719418E0,9.849566277E0
2.609435176E0,8.027650118E-1,-7.827817440E0,5.958266258E0,9.870161819E0
2.611840957E0,7.931885719E-1,-7.839787960E0,5.951084614E0,9.874554747E0
2.614246842E0,8.147355318E-1,-7.834999561E0,5.924749374E0,9.856655988E0
2.616652728E0,8.075531721E-1,-7.830211163E0,5.927143574E0,9.853698794E0
2.619057832E0,7.788239717E-1,-7.832605362E0,5.931931496E0,9.856169885E0
2.621462780E0,7.836122513E-1,-7.849363804E0,5.951084614E0,9.881395062E0
2.623868613E0,7.860063314E-1,-7.830211163E0,5.910384178E0,9.841882642E0
2.626274290E0,8.075531721E-1,-7.834999561E0,5.917566776E0,9.851748921E0
2.628679603E0,8.243118525E-1,-7.837393284E0,5.907990456E0,9.849293109E0
2.631085280E0,7.931885719E-1,-7.825422764E0,5.941507816E0,9.857378185E0
2.633490905E0,8.243118525E-1,-7.813452244E0,5.936719418E0,9.847546062E0
2.635896738E0,8.123413324E-1,-7.844575882E0,5.970236778E0,9.891460782E0
2.638302207E0,8.147355318E-1,-7.834999561E0,5.986995697E0,9.894196763E0
2.640707415E0,8.338882923E-1,-7.832605362E0,5.975025177E0,9.886657792E0
2.643113717E0,8.243118525E-1,-7.818240643E0,5.963054657E0,9.867238601E0
2.645519863E0,8.458588123E-1,-7.834999561E0,5.970236778E0,9.886679040E0
2.647925540E0,8.410706520E-1,-7.849363804E0,5.929537296E0,9.873161830E0
2.650331790E0,8.243118525E-1,-7.856546402E0,5.941507816E0,9.884651057E0
2.652738040E0,8.171296120E-1,-7.849363804E0,5.948689938E0,9.882667904E0
2.655144499E0,8.338882923E-1,-7.839787960E0,5.951084614E0,9.877907320E0
2.657550697E0,8.386765718E-1,-7.868516922E0,5.946295738E0,9.898250853E0
2.659956270E0,8.386765718E-1,-7.856546402E0,5.936719418E0,9.882982202E0
2.662362311E0,8.530410528E-1,-7.858940125E0,5.936719418E0,9.886114321E0
2.664768040E0,8.267060518E-1,-7.842181683E0,5.963054657E0,9.886418830E0
2.667173405E0,8.506469727E-1,-7.832605362E0,5.975025177E0,9.888085401E0
2.669579030E0,8.530410528E-1,-7.846969604E0,6.008542538E0,9.919939236E0
2.671984759E0,8.506469727E-1,-7.849363804E0,6.003754616E0,9.918728844E0
2.674390749E0,8.482528925E-1,-7.815846920E0,5.989389896E0,9.883308524E0
2.676796270E0,8.386765718E-1,-7.837393284E0,5.982207298E0,9.895196614E0
2.679201217E0,8.362823725E-1,-7.844575882E0,5.965448856E0,9.890567174E0
2.681606999E0,8.171296120E-1,-7.839787960E0,5.984601498E0,9.896738410E0
2.684012832E0,8.051590919E-1,-7.846969604E0,5.975025177E0,9.895662636E0
2.686418457E0,8.027650118E-1,-7.873304844E0,5.960660458E0,9.907715878E0
2.688824290E0,7.812181711E-1,-7.861334324E0,5.965448856E0,9.899366608E0
2.691229967E0,7.884004116E-1,-7.866122723E0,5.967843056E0,9.905181101E0
2.693636217E0,8.051590919E-1,-7.856546402E0,5.965448856E0,9.897483649E0
2.696042103E0,7.979768515E-1,-7.858940125E0,5.967843056E0,9.900245334E0
2.698447624E0,8.195236921E-1,-7.866122723E0,5.965448856E0,9.906264979E0
2.700854186E0,8.243118525E-1,-7.861334324E0,5.958266258E0,9.898535457E0
2.703260280E0,8.219177723E-1,-7.849363804E0,5.986995697E0,9.906168706E0
2.705665853E0,8.386765718E-1,-7.842181683E0,6.001360416E0,9.910576107E0
2.708071634E0,8.267060518E-1,-7.873304844E0,5.984601498E0,9.924103342E0
2.710477311E0,8.458588123E-1,-7.851758480E0,5.989389896E0,9.911527616E0
2.712883613E0,8.530410528E-1,-7.842181683E0,5.975025177E0,9.895878862E0
2.715289655E0,8.458588123E-1,-7.868516922E0,5.970236778E0,9.913261969E0
2.717695280E0,8.314942122E-1,-7.854152203E0,6.003754616E0,9.920895067E0
2.720101582E0,8.338882923E-1,-7.868516922E0,5.951084614E0,9.900724030E0
2.722507363E0,8.267060518E-1,-7.849363804E0,5.989389896E0,9.908014249E0
2.724912467E0,8.386765718E-1,-7.868516922E0,5.989389896E0,9.924199125E0
2.727317988E0,8.386765718E-1,-7.861334324E0,5.989389896E0,9.918505284E0
2.729723665E0,8.434647322E-1,-7.870910645E0,5.984601498E0,9.923614373E0
2.732129811E0,8.291000128E-1,-7.858940125E0,6.001360416E0,9.923037517E0
2.734535801E0,8.195236921E-1,-7.851758480E0,5.986995697E0,9.907867974E0
2.736941426E0,8.147355318E-1,-7.875699520E0,5.998966217E0,9.933681724E0
2.739347467E0,8.123413324E-1,-7.863729000E0,5.996572018E0,9.922550488E0
2.741753197E0,8.362823725E-1,-7.842181683E0,6.010936737E0,9.916175785E0
2.744158717E0,8.099473715E-1,-7.858940125E0,6.018118858E0,9.931601543E0
2.746564863E0,8.195236921E-1,-7.844575882E0,6.008542538E0,9.915219275E0
2.748970905E0,8.267060518E-1,-7.851758480E0,6.001360416E0,9.917150850E0
2.751377311E0,8.267060518E-1,-7.858940125E0,6.010936737E0,9.928632496E0
2.753783613E0,8.171296120E-1,-7.861334324E0,6.018118858E0,9.934084394E0
2.756189238E0,8.482528925E-1,-7.873304844E0,6.025301456E0,9.950513543E0
2.758595645E0,8.386765718E-1,-7.844575882E0,6.001360416E0,9.912470732E0
2.761001738E0,8.554352522E-1,-7.849363804E0,6.030089378E0,9.935102390E0
2.763406999E0,8.530410528E-1,-7.863729000E0,6.018118858E0,9.938997304E0
2.765812780E0,8.386765718E-1,-7.844575882E0,6.025301456E0,9.926983772E0
2.768218822E0,8.482528925E-1,-7.844575882E0,6.032483578E0,9.932157966E0
2.770625020E0,8.410706520E-1,-7.863729000E0,6.020513058E0,9.939427102E0
2.773030645E0,8.338882923E-1,-7.856546402E0,5.994177818E0,9.917200148E0
2.775435905E0,8.267060518E-1,-7.866122723E0,5.960660458E0,9.903979133E0
2.777842155E0,8.554352522E-1,-7.861334324E0,5.986995697E0,9.918491029E0
2.780247728E0,8.410706520E-1,-7.832605362E0,5.986995697E0,9.894504741E0
2.782652884E0,8.434647322E-1,-7.818240643E0,5.967843056E0,9.871751123E0
2.785058457E0,8.434647322E-1,-7.827817440E0,5.948689938E0,9.867779416E0
2.787463822E0,8.745880127E-1,-7.803876400E0,5.963054657E0,9.860193299E0
2.789870020E0,8.769820929E-1,-7.806270123E0,5.970236778E0,9.866644719E0
2.792275957E0,8.769820929E-1,-7.808664322E0,5.948689938E0,9.855518660E0
2.794681478E0,8.913466930E-1,-7.806270123E0,5.960660458E0,9.862141007E0
2.797087884E0,8.793761730E-1,-7.806270123E0,5.946295738E0,9.852389999E0
2.799493978E0,8.793761730E-1,-7.823029041E0,5.922354698E0,9.851262407E0
2.801899342E0,8.817702532E-1,-7.806270123E0,5.941507816E0,9.849715079E0
2.804304811E0,8.841644526E-1,-7.815846920E0,5.907990456E0,9.837355391E0
2.806710645E0,8.793761730E-1,-7.842181683E0,5.953478336E0,9.885191971E0
2.809116895E0,8.697997332E-1,-7.834999561E0,5.953478336E0,9.878647377E0
2.811522207E0,8.650115728E-1,-7.834999561E0,5.951084614E0,9.876784458E0
2.813927155E0,8.530410528E-1,-7.827817440E0,5.907990456E0,9.844122924E0
2.816333040E0,8.602234125E-1,-7.827817440E0,5.907990456E0,9.844747910E0
2.818738561E0,8.314942122E-1,-7.844575882E0,5.903202534E0,9.852743453E0
2.821143717E0,8.338882923E-1,-7.846969604E0,5.919960976E0,9.864899372E0
2.823549395E0,8.434647322E-1,-7.837393284E0,5.941507816E0,9.871052698E0
2.825955176E0,8.530410528E-1,-7.842181683E0,5.903202534E0,9.852679470E0
2.828360905E0,8.482528925E-1,-7.856546402E0,5.879261494E0,9.849394400E0
2.830766113E0,8.506469727E-1,-7.851758480E0,5.869684696E0,9.840066561E0
2.833171322E0,8.291000128E-1,-7.844575882E0,5.872078896E0,9.833925369E0
2.835577520E0,8.267060518E-1,-7.858940125E0,5.893625736E0,9.858052906E0
2.837983249E0,8.458588123E-1,-7.861334324E0,5.872078896E0,9.848724031E0
2.840388457E0,8.075531721E-1,-7.846969604E0,5.891232014E0,9.845490782E0
2.842794082E0,8.075531721E-1,-7.868516922E0,5.893625736E0,9.864102848E0
2.845199655E0,8.291000128E-1,-7.875699520E0,5.896019936E0,9.873049217E0
2.847605540E0,8.386765718E-1,-7.882881165E0,5.888837814E0,9.875302762E0
2.850011061E0,7.955826521E-1,-7.868516922E0,5.898413658E0,9.865991790E0
2.852416113E0,8.051590919E-1,-7.885275364E0,5.898413658E0,9.880138279E0
2.854822155E0,7.907944918E-1,-7.892457962E0,5.881655216E0,9.874721094E0
2.857228040E0,7.931885719E-1,-7.887670040E0,5.917566776E0,9.892526640E0
2.859633145E0,7.907944918E-1,-7.868516922E0,5.912778854E0,9.874202158E0
2.862038822E0,8.171296120E-1,-7.875699520E0,5.891232014E0,9.869192387E0
2.864444915E0,8.243118525E-1,-7.878093243E0,5.907990456E0,9.881710095E0
2.866851113E0,8.338882923E-1,-7.875699520E0,5.922354698E0,9.889201069E0
2.869256842E0,8.434647322E-1,-7.863729000E0,5.924749374E0,9.881918928E0
2.871662155E0,8.674057722E-1,-7.863729000E0,5.912778854E0,9.876820356E0
2.874068301E0,8.865585327E-1,-7.851758480E0,5.922354698E0,9.874734550E0
2.876474082E0,8.961348534E-1,-7.839787960E0,5.915173054E0,9.861774951E0
2.878879030E0,8.817702532E-1,-7.844575882E0,5.907990456E0,9.859981784E0
2.881284447E0,9.009230137E-1,-7.844575882E0,5.919960976E0,9.868889046E0
2.883690176E0,8.913466930E-1,-7.846969604E0,5.924749374E0,9.872795250E0
2.886095801E0,9.152876139E-1,-7.823029041E0,5.929537296E0,9.858851218E0
2.888501009E0,9.104994535E-1,-7.854152203E0,5.912778854E0,9.873078034E0
2.890906374E0,9.081053734E-1,-7.870910645E0,5.943902016E0,9.904840277E0
2.893312572E0,9.128935337E-1,-7.858940125E0,5.941507816E0,9.894333207E0
2.895718145E0,9.200758934E-1,-7.851758480E0,5.941507816E0,9.889295526E0
2.898123249E0,8.913466930E-1,-7.861334324E0,5.929537296E0,9.887086974E0
2.900528874E0,8.913466930E-1,-7.854152203E0,5.941507816E0,9.888565158E0
2.902934342E0,8.721939325E-1,-7.880487442E0,5.924749374E0,9.897750236E0
2.905340124E0,8.865585327E-1,-7.858940125E0,5.939114094E0,9.890500601E0
2.907745592E0,8.721939325E-1,-7.863729000E0,5.927143574E0,9.885847813E0
2.910150905E0,8.817702532E-1,-7.858940125E0,5.888837814E0,9.859962954E0
2.912557259E0,8.602234125E-1,-7.863729000E0,5.886443615E0,9.860448090E0
2.914962988E0,8.554352522E-1,-7.870910645E0,5.898413658E0,9.872906742E0
2.917368040E0,8.386765718E-1,-7.868516922E0,5.917566776E0,9.881018849E0
2.919773770E0,8.386765718E-1,-7.866122723E0,5.931931496E0,9.887723517E0
2.922179447E0,8.386765718E-1,-7.844575882E0,5.924749374E0,9.866276112E0
2.924585280E0,8.362823725E-1,-7.856546402E0,5.953478336E0,9.892855699E0
2.926990801E0,8.314942122E-1,-7.846969604E0,5.915173054E0,9.861824722E0
2.929396113E0,8.434647322E-1,-7.839787960E0,5.907990456E0,9.852819862E0
2.931802363E0,8.362823725E-1,-7.834999561E0,5.934325218E0,9.864218273E0
2.934207988E0,8.841644526E-1,-7.834999561E0,5.970236778E0,9.890029934E0
2.936613040E0,8.650115728E-1,-7.820634842E0,5.946295738E0,9.862505126E0
2.939018457E0,8.841644526E-1,-7.815846920E0,5.953478336E0,9.864740957E0
2.941423874E0,8.841644526E-1,-7.832605362E0,5.960660458E0,9.882354306E0
2.943829967E0,8.650115728E-1,-7.811058521E0,5.958266258E0,9.862140592E0
2.946235801E0,8.338882923E-1,-7.839787960E0,5.948689938E0,9.876464799E0
2.948640957E0,8.410706520E-1,-7.837393284E0,5.955872536E0,9.879501556E0
2.951046738E0,8.458588123E-1,-7.839787960E0,5.960660458E0,9.884696529E0
2.953452103E0,8.362823725E-1,-7.873304844E0,5.960660458E0,9.910487902E0
2.955857103E0,8.386765718E-1,-7.863729000E0,5.970236778E0,9.908851567E0
2.958262363E0,8.362823725E-1,-7.873304844E0,5.972630978E0,9.917692179E0
2.960667884E0,8.554352522E-1,-7.861334324E0,5.960660458E0,9.902616822E0
2.963073822E0,8.434647322E-1,-7.875699520E0,5.941507816E0,9.901494373E0
2.965479395E0,8.338882923E-1,-7.894851685E0,5.965448856E0,9.930288660E0
2.967884499E0,8.291000128E-1,-7.892457962E0,5.960660458E0,9.925108191E0
2.970290228E0,8.410706520E-1,-7.904428482E0,5.951084614E0,9.929894136E0
2.972695749E0,8.530410528E-1,-7.894851685E0,5.963054657E0,9.930477481E0
2.975100853E0,8.530410528E-1,-7.870910645E0,5.939114094E0,9.897069750E0
2.977506270E0,8.530410528E-1,-7.890063763E0,5.951084614E0,9.919485536E0
2.979911947E0,8.530410528E-1,-7.878093243E0,5.970236778E0,9.921479696E0
2.982317988E0,8.626174927E-1,-7.863729000E0,5.994177818E0,9.925346868E0
2.984723457E0,8.769820929E-1,-7.849363804E0,6.003754616E0,9.921022085E0
2.987128353E0,8.841644526E-1,-7.866122723E0,5.998966217E0,9.932030464E0
2.989534030E0,9.081053734E-1,-7.844575882E0,6.003754616E0,9.920035062E0
2.991939551E0,8.985290527E-1,-7.858940125E0,6.001360416E0,9.929079574E0
2.994344603E0,9.104994535E-1,-7.856546402E0,5.986995697E0,9.919599190E0
2.996749863E0,9.009230137E-1,-7.844575882E0,6.001360416E0,9.917931230E0
2.999155124E0,9.104994535E-1,-7.849363804E0,6.008542538E0,9.926938340E0
3.001561217E0,8.889524937E-1,-7.856546402E0,6.006148338E0,9.929218286E0
3.003967051E0,8.817702532E-1,-7.868516922E0,5.984601498E0,9.925045714E0
3.006372311E0,8.937407732E-1,-7.873304844E0,5.960660458E0,9.915501744E0
3.008778353E0,8.674057722E-1,-7.875699520E0,5.963054657E0,9.916504250E0
3.011184186E0,8.721939325E-1,-7.902034283E0,5.958266258E0,9.934978856E0
3.013589551E0,8.602234125E-1,-7.897245884E0,5.929537296E0,9.912915284E0
3.015995020E0,8.434647322E-1,-7.880487442E0,5.884049416E0,9.870944869E0
3.018400176E0,8.482528925E-1,-7.868516922E0,5.910384178E0,9.877536771E0
3.020805905E0,8.267060518E-1,-7.854152203E0,5.948689938E0,9.887267655E0
3.023211322E0,8.386765718E-1,-7.851758480E0,5.955872536E0,9.890698018E0
3.025616426E0,8.482528925E-1,-7.858940125E0,5.972630978E0,9.907310111E0
3.028022467E0,8.650115728E-1,-7.849363804E0,5.975025177E0,9.902609909E0
3.030428092E0,8.434647322E-1,-7.842181683E0,5.986995697E0,9.902290835E0
3.032833353E0,8.338882923E-1,-7.849363804E0,5.936719418E0,9.876867887E0
3.035238978E0,8.171296120E-1,-7.849363804E0,5.960660458E0,9.889877958E0
3.037644447E0,8.243118525E-1,-7.856546402E0,5.941507816E0,9.884651057E0
3.040050332E0,8.219177723E-1,-7.842181683E0,5.917566776E0,9.858648940E0
3.042456061E0,8.219177723E-1,-7.844575882E0,5.934325218E0,9.870619808E0
3.044861217E0,8.362823725E-1,-7.863729000E0,5.919960976E0,9.878438133E0
3.047266895E0,8.482528925E-1,-7.849363804E0,5.931931496E0,9.875214244E0
3.049672207E0,8.697997332E-1,-7.863729000E0,5.896019936E0,9.867007472E0
3.052077051E0,8.697997332E-1,-7.839787960E0,5.905596256E0,9.853674136E0
3.054482415E0,8.602234125E-1,-7.866122723E0,5.903202534E0,9.872369075E0
3.056887988E0,8.602234125E-1,-7.878093243E0,5.970236778E0,9.922099810E0
3.059293770E0,8.291000128E-1,-7.849363804E0,5.989389896E0,9.908214283E0
3.061699134E0,8.338882923E-1,-7.894851685E0,5.977419376E0,9.937484350E0
3.064104290E0,8.434647322E-1,-7.863729000E0,5.984601498E0,9.917919219E0
3.066510332E0,8.674057722E-1,-7.873304844E0,5.979813576E0,9.924691045E0
3.068916061E0,8.841644526E-1,-7.878093243E0,5.975025177E0,9.927085463E0
3.071321426E0,9.057112932E-1,-7.870910645E0,5.994177818E0,9.934873680E0
3.073726947E0,8.961348534E-1,-7.858940125E0,5.984601498E0,9.918742493E0
3.076132572E0,9.152876139E-1,-7.854152203E0,5.982207298E0,9.915254026E0
3.078538405E0,9.224698544E-1,-7.846969604E0,5.986995697E0,9.913122620E0
3.080943822E0,9.248640537E-1,-7.863729000E0,5.970236778E0,9.916518265E0
3.083348874E0,8.985290527E-1,-7.866122723E0,5.991784096E0,9.928983724E0
3.085754811E0,8.913466930E-1,-7.875699520E0,5.982207298E0,9.930153373E0
3.088160592E0,8.865585327E-1,-7.858940125E0,5.982207298E0,9.916437368E0
3.090565957E0,8.602234125E-1,-7.861334324E0,5.994177818E0,9.923241879E0
3.092971374E0,8.410706520E-1,-7.878093243E0,5.972630978E0,9.921898698E0
3.095376790E0,8.291000128E-1,-7.858940125E0,6.003754616E0,9.924485689E0
3.097782884E0,8.626174927E-1,-7.887670040E0,6.025301456E0,9.963117245E0
3.100188770E0,8.530410528E-1,-7.887670040E0,6.039665699E0,9.970986885E0
3.102594342E0,8.506469727E-1,-7.887670040E0,6.042059898E0,9.972232787E0
3.105000488E0,8.626174927E-1,-7.892457962E0,6.022907257E0,9.965461025E0
3.107406374E0,8.626174927E-1,-7.887670040E0,6.010936737E0,9.954436602E0
3.109811738E0,8.937407732E-1,-7.873304844E0,5.998966217E0,9.938576226E0
3.112217155E0,8.985290527E-1,-7.887670040E0,5.998966217E0,9.950391389E0
3.114622624E0,9.057112932E-1,-7.887670040E0,5.979813576E0,9.939508137E0
3.117028717E0,9.176818132E-1,-7.875699520E0,5.998966217E0,9.942654500E0
3.119434863E0,9.033172131E-1,-7.856546402E0,6.020513058E0,9.939209266E0
3.121840488E0,9.176818132E-1,-7.846969604E0,6.030089378E0,9.938765004E0
3.124246582E0,8.937407732E-1,-7.861334324E0,6.010936737E0,9.936332844E0
3.126652467E0,8.650115728E-1,-7.854152203E0,6.015724659E0,9.931006747E0
3.129058092E0,8.865585327E-1,-7.851758480E0,6.027695179E0,9.938269791E0
3.131463926E0,8.769820929E-1,-7.846969604E0,6.015724659E0,9.926377624E0
3.133869655E0,8.410706520E-1,-7.861334324E0,6.030089378E0,9.943337222E0
3.136275645E0,8.721939325E-1,-7.866122723E0,6.006148338E0,9.935312114E0
3.138681530E0,8.602234125E-1,-7.868516922E0,6.022907257E0,9.946303570E0
3.141087051E0,8.578293324E-1,-7.887670040E0,6.018118858E0,9.958361533E0
3.143493092E0,8.458588123E-1,-7.890063763E0,6.008542538E0,9.953449992E0
3.145898665E0,8.482528925E-1,-7.897245884E0,6.025301456E0,9.969467547E0
3.148303613E0,8.602234125E-1,-7.878093243E0,6.003754616E0,9.942303905E0
3.150709134E0,8.578293324E-1,-7.914004803E0,5.982207298E0,9.957617553E0
3.153114863E0,8.434647322E-1,-7.890063763E0,6.049242496E0,9.977869197E0
3.155520749E0,8.626174927E-1,-7.885275364E0,5.613516331E0,9.717676785E0
3.157926165E0,8.674057722E-1,-7.880487442E0,6.353292942E0,1.015966566E1
3.160331426E0,8.817702532E-1,-7.837393284E0,5.745192051E0,9.757534728E0
3.162737520E0,8.434647322E-1,-7.844575882E0,6.073183537E0,9.956523580E0
3.165143092E0,8.889524937E-1,-7.834999561E0,6.022907257E0,9.922341785E0
3.167548301E0,8.985290527E-1,-7.823029041E0,5.740403175E0,9.744709665E0
3.169953978E0,8.985290527E-1,-7.846969604E0,6.226405144E0,1.005735589E1
3.172359655E0,8.937407732E-1,-7.825422764E0,5.656610012E0,9.697074344E0
3.174765905E0,8.865585327E-1,-7.854152203E0,6.097124577E0,9.982415587E0
3.177171478E0,8.961348534E-1,-7.856546402E0,5.941507816E0,9.890899563E0
3.179576374E0,8.841644526E-1,-7.868516922E0,5.761950493E0,9.792618588E0
3.181982259E0,8.937407732E-1,-7.878093243E0,6.216829300E0,1.007532095E1
3.184387780E0,8.961348534E-1,-7.842181683E0,5.673368931E0,9.720595982E0
3.186793092E0,8.793761730E-1,-7.882881165E0,6.121065617E0,1.001901004E1
3.189198822E0,9.057112932E-1,-7.844575882E0,5.919960976E0,9.869327316E0
3.191604603E0,8.793761730E-1,-7.858940125E0,5.862502575E0,9.844042806E0
3.194010540E0,8.913466930E-1,-7.866122723E0,6.202464581E0,1.005688582E1
3.196416061E0,9.200758934E-1,-7.851758480E0,5.678156853E0,9.733350714E0
3.198821374E0,8.793761730E-1,-7.863729000E0,6.176129341E0,1.003773430E1
3.201227415E0,8.817702532E-1,-7.870910645E0,5.826591015E0,9.832492868E0
3.203632988E0,8.793761730E-1,-7.894851685E0,5.857714176E0,9.869893664E0
3.206038249E0,8.793761730E-1,-7.890063763E0,6.133035660E0,1.003197563E1
3.208444134E0,8.602234125E-1,-7.892457962E0,5.678156853E0,9.760755209E0
3.210850280E0,8.554352522E-1,-7.897245884E0,6.214435101E0,1.008550770E1
3.213256686E0,8.697997332E-1,-7.870910645E0,5.817014694E0,9.825754215E0
3.215662415E0,8.243118525E-1,-7.899640560E0,5.934325218E0,9.914636998E0
3.218067832E0,8.458588123E-1,-7.870910645E0,6.130641460E0,1.001256592E1
3.220474082E0,8.291000128E-1,-7.880487442E0,5.706886292E0,9.765144151E0
3.222879759E0,8.506469727E-1,-7.866122723E0,6.207252979E0,1.005631526E1
3.225285072E0,8.602234125E-1,-7.873304844E0,5.781103611E0,9.805614333E0
3.227690697E0,8.721939325E-1,-7.861334324E0,6.001360416E0,9.928626615E0
3.230096217E0,8.985290527E-1,-7.873304844E0,6.082759857E0,9.989807361E0
3.232502311E0,8.889524937E-1,-7.858940125E0,5.728432655E0,9.765660096E0
3.234908092E0,8.889524937E-1,-7.890063763E0,6.259922981E0,1.011088416E1
3.237313301E0,9.248640537E-1,-7.846969604E0,5.754767895E0,9.774848286E0
3.239719238E0,8.913466930E-1,-7.863729000E0,6.022907257E0,9.945257389E0
3.242124759E0,8.937407732E-1,-7.866122723E0,6.058818817E0,9.969149649E0
3.244529863E0,8.793761730E-1,-7.866122723E0,5.745192051E0,9.780410055E0
3.246935540E0,8.674057722E-1,-7.914004803E0,6.238375664E0,1.011440536E1
3.249341374E0,8.745880127E-1,-7.885275364E0,5.687733173E0,9.761802109E0
3.251747520E0,8.482528925E-1,-7.911610603E0,6.063606739E0,1.000402129E1
3.254152832E0,8.650115728E-1,-7.909216404E0,5.970236778E0,9.947244660E0
3.256557780E0,8.386765718E-1,-7.906822205E0,5.826591015E0,9.857503671E0
3.258963717E0,8.362823725E-1,-7.906822205E0,5.946295738E0,9.928526506E0
3.261369290E0,8.171296120E-1,-7.882881165E0,5.905596256E0,9.883500564E0
3.263774655E0,8.338882923E-1,-7.916399002E0,5.931931496E0,9.927363906E0
3.266180540E0,8.219177723E-1,-7.887670040E0,5.917566776E0,9.894871603E0
3.268586322E0,8.051590919E-1,-7.902034283E0,5.917566776E0,9.904949446E0
3.270992520E0,8.195236921E-1,-7.906822205E0,5.922354698E0,9.912806950E0
3.273398353E0,8.123413324E-1,-7.878093243E0,5.915173054E0,9.885015116E0
3.275803509E0,8.123413324E-1,-7.887670040E0,5.951084614E0,9.914163867E0
3.278209655E0,8.219177723E-1,-7.885275364E0,5.943902016E0,9.908737940E0
3.280615384E0,8.291000128E-1,-7.868516922E0,5.963054657E0,9.907521699E0
3.283020488E0,8.267060518E-1,-7.873304844E0,5.967843056E0,9.914006395E0
3.285425801E0,8.314942122E-1,-7.875699520E0,5.963054657E0,9.913427581E0
3.287831270E0,8.410706520E-1,-7.885275364E0,5.939114094E0,9.907474129E0
3.290237363E0,8.602234125E-1,-7.875699520E0,5.972630978E0,9.921640391E0
3.292643092E0,8.602234125E-1,-7.890063763E0,5.979813576E0,9.937366900E0
3.295048301E0,8.674057722E-1,-7.890063763E0,5.982207298E0,9.939431730E0
3.297454082E0,8.410706520E-1,-7.890063763E0,5.963054657E0,9.925649947E0
3.299859499E0,8.578293324E-1,-7.885275364E0,5.953478336E0,9.917527062E0
3.302264603E0,8.410706520E-1,-7.914004803E0,5.951084614E0,9.937518802E0
3.304670124E0,8.458588123E-1,-7.902034283E0,5.903202534E0,9.899768840E0
3.307075801E0,8.554352522E-1,-7.909216404E0,5.884049416E0,9.894923503E0
3.309482155E0,8.554352522E-1,-7.916399002E0,5.864896774E0,9.889295061E0
3.311888145E0,8.530410528E-1,-7.914004803E0,5.898413658E0,9.907090125E0
3.314293249E0,8.267060518E-1,-7.894851685E0,5.876867294E0,9.876724923E0
3.316698978E0,8.410706520E-1,-7.894851685E0,5.874473095E0,9.876513408E0
3.319104707E0,8.243118525E-1,-7.892457962E0,5.874473095E0,9.873186763E0
3.321510020E0,8.123413324E-1,-7.887670040E0,5.891232014E0,9.878352684E0
3.323915436E0,8.099473715E-1,-7.885275364E0,5.931931496E0,9.900575417E0
3.326320592E0,8.243118525E-1,-7.887670040E0,5.951084614E0,9.915151878E0
3.328726270E0,8.410706520E-1,-7.875699520E0,5.943902016E0,9.902727601E0
3.331131790E0,8.721939325E-1,-7.882881165E0,5.953478336E0,9.916876626E0
3.333536895E0,8.602234125E-1,-7.878093243E0,5.931931496E0,9.899098380E0
3.335942936E0,8.554352522E-1,-7.878093243E0,5.975025177E0,9.924567924E0
3.338348457E0,8.602234125E-1,-7.885275364E0,5.991784096E0,9.940776053E0
3.340753822E0,8.578293324E-1,-7.878093243E0,6.046848297E0,9.968179304E0
3.343159811E0,8.578293324E-1,-7.858940125E0,6.049242496E0,9.954503796E0
3.345565957E0,8.434647322E-1,-7.851758480E0,6.066000938E0,9.957806554E0
3.347972415E0,8.697997332E-1,-7.856546402E0,6.097124577E0,9.982825304E0
3.350378405E0,8.674057722E-1,-7.870910645E0,6.178523540E0,1.004379312E1
3.352783874E0,9.009230137E-1,-7.861334324E0,6.113883018E0,9.999590251E0
3.355189811E0,9.200758934E-1,-7.863729000E0,6.077971458E0,9.981308055E0
3.357595384E0,9.081053734E-1,-7.885275364E0,6.032483578E0,9.969607868E0
3.360000749E0,9.200758934E-1,-7.902034283E0,6.022907257E0,9.978181061E0
3.362406634E0,9.057112932E-1,-7.918792725E0,5.998966217E0,9.975729890E0
3.364812363E0,8.721939325E-1,-7.966674805E0,5.975025177E0,9.996477158E0
3.367218301E0,8.291000128E-1,-7.997798443E0,5.975025177E0,1.001764007E1
3.369623926E0,7.979768515E-1,-8.026527405E0,6.015724659E0,1.006234826E1
3.372029342E0,7.572771311E-1,-8.024133682E0,5.975025177E0,1.003300134E1
3.374435280E0,6.734837294E-1,-8.055256844E0,5.900808334E0,1.000801090E1
3.376840749E0,6.256016493E-1,-8.036104202E0,5.831379414E0,9.948634783E0
3.379245905E0,5.753256083E-1,-8.038497925E0,5.855320454E0,9.961587527E0
3.381651270E0,5.513846874E-1,-8.076804161E0,5.824196815E0,9.972966413E0
3.384056686E0,5.394141674E-1,-8.050468445E0,5.783497334E0,9.927227772E0
3.386462624E0,5.322318077E-1,-8.038497925E0,5.687733173E0,9.861593595E0
3.388868301E0,5.011085272E-1,-8.028921127E0,5.647033691E0,9.828716790E0
3.391273717E0,5.011085272E-1,-8.033710480E0,5.639851570E0,9.828506477E0
3.393679967E0,4.843498766E-1,-8.016950607E0,5.627881050E0,9.807096255E0
3.396085645E0,4.963203967E-1,-8.012163162E0,5.577604771E0,9.775007287E0
3.398490853E0,5.058968067E-1,-8.000192642E0,5.601545811E0,9.779382872E0
3.400896530E0,5.274436474E-1,-8.009769440E0,5.644639492E0,9.813080978E0
3.403302572E0,5.513846874E-1,-7.983433723E0,5.606333733E0,9.770886194E0
3.405708874E0,5.896902084E-1,-7.988221645E0,5.582392693E0,9.763325651E0
3.408114603E0,6.160253286E-1,-7.985827923E0,5.587181568E0,9.765732573E0
3.410519967E0,6.519367695E-1,-7.981039524E0,5.599152088E0,9.771003917E0
3.412926217E0,6.758778095E-1,-7.985827923E0,5.620698452E0,9.788897257E0
3.415332155E0,7.261538506E-1,-7.985827923E0,5.637457371E0,9.802125924E0
3.417737415E0,7.524889708E-1,-7.964280605E0,5.690127373E0,9.817003348E0
3.420142936E0,7.955826521E-1,-7.947522163E0,5.702097893E0,9.813764857E0
3.422548665E0,8.554352522E-1,-7.985827923E0,5.759556293E0,9.883203215E0
3.424955124E0,8.793761730E-1,-7.985827923E0,5.800255775E0,9.909072466E0
3.427361426E0,9.248640537E-1,-7.966674805E0,5.860108376E0,9.932982993E0
3.429767311E0,9.320464134E-1,-7.976251125E0,5.922354698E0,9.978155025E0
3.432173613E0,9.703519344E-1,-7.983433723E0,5.893625736E0,9.970537659E0
3.434579655E0,9.942928553E-1,-7.978645325E0,5.888837814E0,9.966233506E0
3.436985540E0,1.023022175E0,-7.988221645E0,5.893625736E0,9.979633447E0
3.439391738E0,1.020628095E0,-8.004981041E0,5.994177818E0,1.005244104E1
3.441797832E0,1.037386656E0,-8.052862167E0,6.128247261E0,1.017252057E1
3.444204134E0,1.003869295E0,-8.076804161E0,6.192888260E0,1.022713958E1
3.446609811E0,9.966870546E-1,-8.122291565E0,6.231194019E0,1.028556193E1
3.449014811E0,9.679577351E-1,-8.139050484E0,6.288652420E0,1.033093579E1
3.451420905E0,9.416227341E-1,-8.112715721E0,6.338928223E0,1.033851153E1
3.453826842E0,9.104994535E-1,-8.105533600E0,6.405962944E0,1.037135697E1
3.456232051E0,9.152876139E-1,-8.091168404E0,6.393992424E0,1.035315878E1
3.458637467E0,9.128935337E-1,-8.052862167E0,6.386810303E0,1.031859048E1
3.461042884E0,9.416227341E-1,-8.033710480E0,6.382021904E0,1.030326943E1
3.463448457E0,9.799282551E-1,-8.014556885E0,6.377233982E0,1.028895013E1
3.465853509E0,9.847165346E-1,-7.973857403E0,6.324563503E0,1.022507565E1
3.468258509E0,1.027810335E0,-7.952310562E0,6.319775581E0,1.020956418E1
3.470664238E0,1.056539536E0,-7.933157444E0,6.322169304E0,1.019907288E1
3.473069395E0,1.073298216E0,-7.928369522E0,6.341322422E0,1.020898538E1
3.475474290E0,1.085268617E0,-7.918792725E0,6.358080864E0,1.021324035E1
3.477880020E0,1.094845057E0,-7.906822205E0,6.358080864E0,1.020498483E1
3.480285905E0,1.102027416E0,-7.935551643E0,6.331746101E0,1.021168218E1
3.482692155E0,1.082874537E0,-7.935551643E0,6.291046143E0,1.018444199E1
3.485097832E0,1.082874537E0,-7.952310562E0,6.240770340E0,1.016656653E1
3.487502936E0,1.054145455E0,-7.976251125E0,6.235981941E0,1.017935535E1
3.489909082E0,1.013445616E0,-8.002586365E0,6.147400379E0,1.014194222E1
3.492314759E0,1.001475334E0,-8.055256844E0,6.094730377E0,1.015065781E1
3.494719759E0,9.847165346E-1,-8.103138924E0,6.113883018E0,1.019853385E1
3.497125228E0,9.607754946E-1,-8.143838882E0,6.197676182E0,1.027892948E1
3.499530801E0,9.081053734E-1,-8.191720963E0,6.271893501E0,1.035691053E1
3.501936842E0,9.081053734E-1,-8.213267326E0,6.319775581E0,1.040297933E1
3.504342415E0,8.841644526E-1,-8.230026245E0,6.393992424E0,1.045936030E1
3.506747572E0,8.554352522E-1,-8.213267326E0,6.480179787E0,1.049677378E1
3.509153613E0,8.674057722E-1,-8.196508408E0,6.535244465E0,1.051877194E1
3.511559655E0,8.554352522E-1,-8.203691483E0,6.513697147E0,1.051002255E1
3.513965592E0,8.171296120E-1,-8.179750443E0,6.401175022E0,1.041878399E1
3.516371842E0,8.051590919E-1,-8.174962044E0,6.386810303E0,1.040526941E1
3.518777624E0,7.668534517E-1,-8.196508408E0,6.482574463E0,1.047829118E1
3.521183717E0,7.285479307E-1,-8.201296806E0,6.482574463E0,1.047930451E1
3.523589915E0,6.519367695E-1,-8.206085205E0,6.355686665E0,1.039998120E1
3.525995905E0,5.896902084E-1,-8.222844124E0,6.317381382E0,1.038615461E1
3.528402520E0,5.657491684E-1,-8.258755684E0,6.463421345E0,1.050252032E1
3.530808717E0,5.418082476E-1,-8.258755684E0,6.492150307E0,1.051896465E1
3.533214395E0,5.130790472E-1,-8.265937805E0,6.379627705E0,1.045412012E1
3.535620488E0,4.867439568E-1,-8.249178886E0,6.300622940E0,1.039152161E1
3.538026478E0,4.819557369E-1,-8.261149406E0,6.314987183E0,1.040951171E1
3.540432572E0,4.747734368E-1,-8.246785164E0,6.303016663E0,1.039051945E1
3.542838457E0,4.723793566E-1,-8.251573563E0,6.238375664E0,1.035514073E1
3.545243874E0,4.891380966E-1,-8.213267326E0,6.128247261E0,1.025926073E1
3.547649759E0,4.460442364E-1,-8.215662003E0,6.018118858E0,1.019381245E1
3.550055384E0,4.077387154E-1,-8.249178886E0,6.070789337E0,1.025035055E1
3.552461009E0,3.885859549E-1,-8.270726204E0,6.173735142E0,1.032816134E1
3.554866999E0,3.454921544E-1,-8.297060966E0,6.243164539E0,1.038930647E1
3.557272363E0,3.383098543E-1,-8.311426163E0,6.250346184E0,1.040485876E1
3.559677988E0,3.383098543E-1,-8.280302048E0,6.279076099E0,1.039733871E1
3.562083509E0,3.694331348E-1,-8.273119926E0,6.317381382E0,1.041586778E1
3.564488717E0,4.197091758E-1,-8.277908325E0,6.322169304E0,1.042447825E1
3.566894551E0,4.628029764E-1,-8.313819885E0,6.271893501E0,1.042451130E1
3.569300280E0,4.723793566E-1,-8.330577850E0,6.159370899E0,1.037109056E1
3.571705697E0,4.987144172E-1,-8.426342010E0,6.271893501E0,1.051611163E1
3.574111426E0,5.250495672E-1,-8.474224091E0,6.604673386E0,1.075685184E1
3.576516947E0,5.561728477E-1,-8.541259766E0,6.834506989E0,1.095321562E1
3.578922780E0,5.729315281E-1,-8.560412407E0,6.966181755E0,1.105154285E1
3.581328353E0,5.465964079E-1,-8.581958771E0,7.052370071E0,1.112136267E1
3.583733561E0,4.987144172E-1,-8.593929291E0,7.126586914E0,1.117553479E1
3.586139863E0,4.316796958E-1,-8.613081932E0,7.205591679E0,1.123797487E1
3.588546165E0,3.502803743E-1,-8.663358688E0,7.207985878E0,1.127526233E1
3.590951947E0,3.167629540E-1,-8.701663017E0,7.140951157E0,1.126110392E1
3.593357884E0,2.640927732E-1,-8.766304016E0,7.148133278E0,1.131431131E1
3.595763874E0,2.066344023E-1,-8.859674454E0,7.332479477E0,1.150225128E1
3.598170384E0,1.563583612E-1,-8.897979736E0,7.533583164E0,1.165990423E1
3.600576478E0,1.084763408E-1,-8.926709175E0,7.672441483E0,1.177133222E1
3.602981999E0,8.453539014E-2,-8.941073418E0,7.782569885E0,1.185404294E1
3.605388457E0,6.298848987E-2,-8.950650215E0,7.871151447E0,1.191944344E1
3.607794655E0,6.777667999E-2,-8.943467140E0,7.938186646E0,1.195847003E1
3.610200280E0,1.276291609E-1,-8.936285019E0,7.957339287E0,1.196631638E1
3.612606322E0,2.114225924E-1,-8.909950256E0,7.995644569E0,1.197339739E1
3.615012259E0,2.712750733E-1,-8.912343979E0,8.029161453E0,1.199878740E1
3.617418353E0,3.550685346E-1,-8.900374413E0,8.048315048E0,1.200492039E1
3.619824186E0,4.268915355E-1,-8.876433372E0,8.060285568E0,1.199756264E1
3.622229811E0,4.915321171E-1,-8.859674454E0,8.050708771E0,1.198120808E1
3.624636217E0,5.801137686E-1,-8.854886055E0,8.050708771E0,1.198162972E1
3.627042415E0,6.615132093E-1,-8.833339691E0,8.084226608E0,1.199250640E1
3.629448092E0,7.285479307E-1,-8.833339691E0,8.103379250E0,1.200930587E1
3.631853978E0,8.291000128E-1,-8.840520859E0,8.141684532E0,1.204695990E1
3.634259603E0,8.865585327E-1,-8.840520859E0,8.196748734E0,1.208832018E1
3.636665697E0,9.799282551E-1,-8.869250298E0,8.206325531E0,1.212302103E1
3.639071738E0,1.011051655E0,-8.881221771E0,8.141684532E0,1.209071349E1
3.641477207E0,1.056539536E0,-8.857280731E0,8.069861412E0,1.202873065E1
3.643883145E0,1.087662816E0,-8.871644020E0,7.978885651E0,1.198130603E1
3.646288457E0,1.061327696E0,-8.852492332E0,7.899880409E0,1.191222681E1
3.648693301E0,1.034992695E0,-8.823761940E0,7.861574650E0,1.186315054E1
3.651098770E0,9.679577351E-1,-8.795033455E0,7.816087246E0,1.180596356E1
3.653504447E0,9.248640537E-1,-8.780669212E0,7.871151447E0,1.182837903E1
3.655910801E0,8.865585327E-1,-8.773486137E0,7.950157166E0,1.187287008E1
3.658316738E0,8.602234125E-1,-8.761516571E0,8.072256088E0,1.194426537E1
3.660722051E0,8.386765718E-1,-8.737575531E0,8.160837173E0,1.198531885E1
3.663128197E0,8.219177723E-1,-8.739969254E0,8.232660294E0,1.203492031E1
3.665534134E0,8.027650118E-1,-8.754334450E0,8.338001251E0,1.211631413E1
3.667939551E0,8.051590919E-1,-8.751939774E0,8.388277054E0,1.214940010E1
3.670345332E0,8.003709316E-1,-8.744757652E0,8.479252815E0,1.220692870E1
3.672751009E0,7.788239717E-1,-8.759121895E0,8.553469658E0,1.226746210E1
3.675156999E0,7.764298916E-1,-8.742362976E0,8.598958015E0,1.228714095E1
3.677562728E0,7.165774107E-1,-8.727998734E0,8.685144424E0,1.233382255E1
3.679968197E0,6.710895300E-1,-8.701663017E0,8.869490623E0,1.244335824E1
3.682374290E0,6.471486092E-1,-8.670539856E0,9.101717949E0,1.258722894E1
3.684780020E0,6.279958487E-1,-8.629839897E0,9.307610512E0,1.270827010E1
3.687185645E0,6.663013697E-1,-8.569988251E0,9.439286232E0,1.276670595E1
3.689591686E0,7.070010900E-1,-8.512530327E0,9.592509270E0,1.284442514E1
3.691997676E0,8.338882923E-1,-8.462254524E0,9.740942955E0,1.293023940E1
3.694404030E0,9.775342941E-1,-8.443100929E0,9.934864998E0,1.307451984E1
3.696809915E0,1.133150697E0,-8.390430450E0,1.007851124E1,1.316281666E1
3.699215072E0,1.312708020E0,-8.366489410E0,1.020539761E1,1.326165479E1
3.701620801E0,1.504235864E0,-8.325790405E0,1.032989120E1,1.335245909E1
3.704026217E0,1.679005146E0,-8.306637764E0,1.038016701E1,1.340026702E1
3.706431270E0,1.822651029E0,-8.304243088E0,1.042086697E1,1.344905121E1
3.708836738E0,1.911232829E0,-8.246785164E0,1.037059116E1,1.338698762E1
3.711242311E0,1.944749951E0,-8.215662003E0,1.024609661E1,1.327635681E1
3.713648353E0,1.927991509E0,-8.184537888E0,1.014793873E1,1.317894048E1
3.716054238E0,1.911232829E0,-8.134262085E0,1.016230392E1,1.315642245E1
3.718459759E0,1.889685988E0,-8.100745201E0,1.026525021E1,1.321243156E1
3.720865645E0,1.863350749E0,-8.036104202E0,1.038256073E1,1.326079236E1
3.723270853E0,1.880109429E0,-7.983433723E0,1.040889549E1,1.325198592E1
3.725675905E0,1.892079949E0,-7.928369522E0,1.042565441E1,1.323379310E1
3.728081478E0,1.959114671E0,-7.870910645E0,1.040650177E1,1.319411398E1
3.730487051E0,2.026149511E0,-7.825422764E0,1.040889549E1,1.317906023E1
3.732893405E0,2.107548714E0,-7.770359039E0,1.035143757E1,1.311382861E1
3.735299290E0,2.224859715E0,-7.712900162E0,1.029158497E1,1.305203244E1
3.737704759E0,2.294288397E0,-7.665018559E0,1.019821548E1,1.296224779E1
3.740111061E0,2.344564438E0,-7.578830719E0,1.015033340E1,1.288273751E1
3.742517103E0,2.349352598E0,-7.518978119E0,1.011681557E1,1.282202975E1
3.744922572E0,2.354140997E0,-7.473490238E0,1.012399769E1,1.280196725E1
3.747328249E0,2.332593918E0,-7.432790756E0,1.019582081E1,1.283129513E1
3.749734290E0,2.282317877E0,-7.439973354E0,1.027482700E1,1.288930752E1
3.752140905E0,2.229647636E0,-7.399273396E0,1.038974285E1,1.294864209E1
3.754546895E0,2.121913433E0,-7.394485474E0,1.044241428E1,1.297015606E1
3.756952467E0,2.081213713E0,-7.394485474E0,1.051184177E1,1.301955005E1
3.759358822E0,2.009390593E0,-7.389697552E0,1.055972385E1,1.304427263E1
3.761764499E0,1.911232829E0,-7.370544434E0,1.057169533E1,1.302837205E1
3.764169707E0,1.820257068E0,-7.380120754E0,1.054057217E1,1.299550614E1
3.766575072E0,1.753222227E0,-7.348997116E0,1.050226593E1,1.293750890E1
3.768980592E0,1.683793426E0,-7.320268154E0,1.046395969E1,1.288083610E1
3.771386999E0,1.607182145E0,-7.279568195E0,1.043523121E1,1.282455449E1
3.773793040E0,1.542541504E0,-7.231686115E0,1.048311329E1,1.282857680E1
3.776198717E0,1.504235864E0,-7.167046070E0,1.051184177E1,1.281124867E1
3.778605436E0,1.487477303E0,-7.107193470E0,1.049747753E1,1.276408329E1
3.781011790E0,1.506630063E0,-7.035370350E0,1.043044281E1,1.267124727E1
3.783417311E0,1.528176904E0,-6.956365108E0,1.037777328E1,1.258668020E1
3.785823197E0,1.592817664E0,-6.846236706E0,1.044001865E1,1.258578621E1
3.788229447E0,1.633517265E0,-6.757654667E0,1.034425545E1,1.246346244E1
3.790636217E0,1.722098947E0,-6.671467304E0,1.021497345E1,1.232151709E1
3.793042572E0,1.825045109E0,-6.566127300E0,1.013596916E1,1.221403652E1
3.795448301E0,1.923203349E0,-6.465574741E0,1.009766293E1,1.214352356E1
3.797855020E0,2.030937672E0,-6.360234737E0,9.982747078E0,1.200968497E1
3.800261530E0,2.133883953E0,-6.250106335E0,9.872617722E0,1.187795734E1
3.802667207E0,2.248800755E0,-6.151947975E0,9.705030441E0,1.170859448E1
3.805073040E0,2.291894436E0,-6.058578491E0,9.582931519E0,1.156683751E1
3.807478874E0,2.346958637E0,-5.953238010E0,9.477591515E0,1.143564596E1
3.809885072E0,2.404416800E0,-5.876626968E0,9.396191597E0,1.134038717E1
3.812290801E0,2.406811237E0,-5.823956490E0,9.365068436E0,1.128785703E1
3.814696217E0,2.354140997E0,-5.713827610E0,9.324368477E0,1.118631545E1
3.817102624E0,2.366111517E0,-5.649187565E0,9.290851593E0,1.112797049E1
3.819508457E0,2.311047077E0,-5.572576523E0,9.257334709E0,1.104956079E1
3.821913613E0,2.289500237E0,-5.479206562E0,9.257334709E0,1.099826176E1
3.824319655E0,2.267953396E0,-5.390625000E0,9.250151634E0,1.094384557E1
3.826725853E0,2.203312635E0,-5.309225559E0,9.286064148E0,1.092123848E1
3.829132207E0,2.212889194E0,-5.189520359E0,9.357887268E0,1.092694167E1
3.831538249E0,2.196130514E0,-5.074604034E0,9.460832596E0,1.095819094E1
3.833944082E0,2.198524475E0,-4.983627796E0,9.551809311E0,1.099577723E1
3.836350540E0,2.165007114E0,-4.839982033E0,9.623631477E0,1.098758230E1
3.838756582E0,2.205706596E0,-4.739429951E0,9.757700920E0,1.106978162E1
3.841162207E0,2.253588676E0,-4.626907349E0,9.846282959E0,1.111018549E1
3.843568249E0,2.306258917E0,-4.519172668E0,9.918106079E0,1.114049281E1
3.845974290E0,2.330199957E0,-4.413832188E0,9.925288200E0,1.110959460E1
3.848380488E0,2.368505478E0,-4.296521187E0,9.913317680E0,1.106091226E1
3.850786217E0,2.421175718E0,-4.188786983E0,9.879799843E0,1.100083966E1
3.853191634E0,2.454693079E0,-4.085840702E0,9.800794601E0,1.089840296E1
3.855597884E0,2.492998600E0,-3.992471218E0,9.767277718E0,1.084225910E1
3.858003874E0,2.497786999E0,-3.908677816E0,9.721790314E0,1.077171802E1
3.860409447E0,2.500180960E0,-3.817702055E0,9.657149315E0,1.068111823E1
3.862815124E0,2.502574921E0,-3.724332094E0,9.633208275E0,1.062695782E1
3.865220801E0,2.495392561E0,-3.647721052E0,9.606872559E0,1.057472710E1
3.867626842E0,2.521727800E0,-3.580686331E0,9.585326195E0,1.053844884E1
3.870032676E0,2.514545441E0,-3.489710569E0,9.573355675E0,1.049524452E1
3.872438249E0,2.521727800E0,-3.432252169E0,9.556596756E0,1.046269600E1
3.874844186E0,2.543274641E0,-3.350852728E0,9.568568230E0,1.045246181E1
3.877249811E0,2.562427521E0,-3.262271166E0,9.585326195E0,1.044446869E1
3.879655228E0,2.610309362E0,-3.159324884E0,9.556596756E0,1.039824938E1
3.882061061E0,2.662979603E0,-3.070743322E0,9.566172600E0,1.039387238E1
3.884466895E0,2.703679323E0,-3.006102562E0,9.554203033E0,1.037445565E1
3.886873405E0,2.768319845E0,-2.910338640E0,9.511109352E0,1.032447901E1
3.889279551E0,2.813807964E0,-2.816968918E0,9.432104111E0,1.023803776E1
3.891685176E0,2.849719524E0,-2.749933958E0,9.321974754E0,1.012828966E1
3.894091426E0,2.895207167E0,-2.646987915E0,9.171147346E0,9.974904171E0
3.896497363E0,2.921542406E0,-2.563194275E0,9.063412666E0,9.861583244E0
3.898903145E0,2.959847927E0,-2.481794834E0,8.955677986E0,9.753162233E0
3.901309134E0,2.945483208E0,-2.400395632E0,8.910189629E0,9.686549940E0
3.903714967E0,2.943089247E0,-2.292661190E0,8.929343224E0,9.677357080E0
3.906121061E0,2.957453728E0,-2.211261749E0,8.977225304E0,9.707048224E0
3.908526738E0,2.952665567E0,-2.117892027E0,9.068201065E0,9.769133592E0
3.910932311E0,2.931118727E0,-2.029310226E0,9.221423149E0,9.886566739E0
3.913338613E0,2.943089247E0,-1.940728426E0,9.331551552E0,9.975272202E0
3.915744395E0,2.952665567E0,-1.861723185E0,9.448863029E0,1.007299656E1
3.918149863E0,2.967030048E0,-1.794688463E0,9.535049438E0,1.014600127E1
3.920555749E0,3.026882648E0,-1.701318622E0,9.573355675E0,1.018359674E1
3.922961530E0,3.038853168E0,-1.643860221E0,9.537444115E0,1.014395117E1
3.925367311E0,3.093917370E0,-1.562460780E0,9.551809311E0,1.016123366E1
3.927772832E0,3.105887890E0,-1.500214338E0,9.582931519E0,1.018478076E1
3.930178197E0,3.141799450E0,-1.464302778E0,9.645178795E0,1.024912486E1
3.932584290E0,3.187287092E0,-1.409238577E0,9.745731354E0,1.035007401E1
3.934990124E0,3.239957333E0,-1.363750696E0,9.846282959E0,1.045497143E1
3.937395592E0,3.295021772E0,-1.313474536E0,9.956412315E0,1.056941484E1
3.939801165E0,3.350085974E0,-1.256016254E0,1.001147556E1,1.063157071E1
3.942206790E0,3.409938335E0,-1.215316534E0,1.004259872E1,1.067513292E1
3.944612988E0,3.481761456E0,-1.186587334E0,1.003541660E1,1.068832254E1
3.947018926E0,3.544008017E0,-1.129128933E0,1.000429344E1,1.067336930E1
3.949424655E0,3.596678257E0,-1.083641171E0,9.977957726E0,1.066161400E1
3.951830957E0,3.632589579E0,-1.050123811E0,9.958806038E0,1.065252481E1
3.954236582E0,3.682865620E0,-9.902713299E-1,9.920499802E0,1.062828551E1
3.956641790E0,3.706806660E0,-9.639362693E-1,9.851070404E0,1.056944544E1
3.959047467E0,3.721171141E0,-9.040837884E-1,9.740942955E0,1.046663517E1
3.961453197E0,3.718777180E0,-8.466253877E-1,9.659543037E0,1.038522267E1
3.963859238E0,3.737929821E0,-8.155021667E-1,9.590113640E0,1.032508803E1
3.966264811E0,3.740324259E0,-7.676201463E-1,9.547020912E0,1.028226019E1
3.968669915E0,3.733141661E0,-7.005853653E-1,9.537444115E0,1.026596351E1
3.971075592E0,3.737929821E0,-6.359447241E-1,9.523079872E0,1.025015099E1
3.973481009E0,3.740324259E0,-6.024273038E-1,9.513503075E0,1.024010180E1
3.975886374E0,3.740324259E0,-5.425748229E-1,9.520686150E0,1.024343096E1
3.978292103E0,3.788206100E0,-4.899047017E-1,9.570961952E0,1.030503880E1
3.980697884E0,3.821723461E0,-4.396286011E-1,9.599690437E0,1.034180352E1
3.983104186E0,3.876787901E0,-3.821702003E-1,9.647572517E0,1.040438340E1
3.985510020E0,3.941428423E0,-3.031649590E-1,9.623631477E0,1.040389590E1
3.987915228E0,4.008463383E0,-2.457066029E-1,9.614054680E0,1.041912654E1
3.990321061E0,4.077892303E0,-2.050069273E-1,9.606872559E0,1.043854558E1
3.992726530E0,4.173655987E0,-1.619131565E-1,9.609267235E0,1.047776870E1
3.995131842E0,4.233508587E0,-9.487838298E-2,9.642785072E0,1.053161435E1
3.997537624E0,4.281390667E0,-5.657280236E-2,9.712212563E0,1.061416880E1
3.999943145E0,4.324484348E0,-2.544951811E-2,9.750518799E0,1.066650971E1
4.002349082E0,4.389125347E0,-3.902629018E-3,9.831917763E0,1.076712791E1
4.004754655E0,4.429824829E0,4.158525169E-2,9.915711403E0,1.086031353E1
4.007159759E0,4.477706432E0,5.355574191E-2,9.997111320E0,1.095422101E1
