"Time (s)","Gyroscope x (rad/s)","Gyroscope y (rad/s)","Gyroscope z (rad/s)","Absolute (rad/s)"
1.065145920E-1,3.666333854E-2,-5.816577375E-2,2.851211093E-2,7.443385049E-2
1.089604260E-1,3.666333854E-2,-5.938750505E-2,2.729038149E-2,7.493891560E-2
1.114054780E-1,3.544161096E-2,-6.060923263E-2,2.729038149E-2,7.532829342E-2
1.138496960E-1,3.544161096E-2,-6.060923263E-2,2.545778826E-2,7.468390624E-2
1.162947480E-1,3.360901400E-2,-5.816577375E-2,2.484692261E-2,7.162536297E-2
1.187405820E-1,3.238728642E-2,-5.755491182E-2,2.423605695E-2,7.034835217E-2
1.211856340E-1,3.238728642E-2,-5.633318052E-2,2.423605695E-2,6.935236121E-2
1.236299050E-1,3.055469133E-2,-5.266799405E-2,2.179259807E-2,6.467166374E-2
1.260749570E-1,2.994382568E-2,-5.144626275E-2,1.934913918E-2,6.259185118E-2
1.285207900E-1,2.750036679E-2,-4.961366951E-2,1.690568030E-2,5.919111760E-2
1.309658420E-1,2.505690791E-2,-4.533761367E-2,1.446222235E-2,5.378200185E-2
1.334100610E-1,2.383517660E-2,-3.983983397E-2,1.262962818E-2,4.811273764E-2
1.358551130E-1,2.322431467E-2,-3.861810267E-2,1.140789874E-2,4.648512450E-2
1.383009460E-1,2.078085579E-2,-3.434205055E-2,8.964439854E-3,4.112884128E-2
1.407459980E-1,1.955912448E-2,-2.884426713E-2,6.520980969E-3,3.545524347E-2
1.431902690E-1,1.833739504E-2,-2.640080824E-2,5.299251527E-3,3.257828724E-2
1.456353210E-1,1.650479995E-2,-2.273562178E-2,3.466657363E-3,2.830785460E-2
1.480811550E-1,1.467220671E-2,-1.845956780E-2,3.466657363E-3,2.383373673E-2
1.505262070E-1,1.283961255E-2,-1.479438040E-2,3.466657363E-3,1.989339225E-2
1.529704260E-1,1.100701839E-2,-1.112919208E-2,1.634063199E-3,1.573796469E-2
1.554154780E-1,1.039615367E-2,-7.464003749E-3,2.244927920E-3,1.299350085E-2
1.578613110E-1,9.174424224E-3,-3.187951399E-3,2.855792642E-3,1.012366759E-2
1.603063630E-1,9.174424224E-3,4.772387911E-4,2.244927920E-3,9.457141115E-3
1.627506340E-1,8.563559502E-3,3.531559603E-3,2.244927920E-3,9.531325509E-3
1.651956860E-1,6.730965339E-3,5.975021981E-3,3.466657363E-3,9.644920701E-3
1.676415190E-1,4.898371175E-3,6.585883908E-3,4.077522084E-3,9.164829151E-3
1.700865710E-1,4.898371175E-3,7.196749561E-3,4.688386805E-3,9.887781108E-3
1.725308420E-1,3.676641965E-3,7.807615213E-3,4.077522084E-3,9.544775419E-3
1.749758420E-1,3.065777244E-3,7.807615213E-3,4.077522084E-3,9.326523027E-3
1.774217280E-1,3.065777244E-3,9.029342793E-3,5.299251527E-3,1.090917449E-2
1.798667280E-1,2.454912523E-3,8.418477140E-3,4.688386805E-3,9.943758027E-3
1.823109980E-1,2.454912523E-3,8.418477140E-3,2.855792642E-3,9.222413159E-3
1.847560510E-1,1.844047802E-3,8.418477140E-3,4.077522084E-3,9.534015733E-3
1.872018840E-1,6.223183591E-4,8.418477140E-3,2.244927920E-3,8.734857690E-3
1.896469360E-1,1.233183080E-3,9.640208445E-3,2.244927920E-3,9.974670959E-3
1.920912070E-1,6.223183591E-4,9.640208445E-3,1.634063199E-3,9.797502822E-3
1.945362590E-1,-1.821140526E-3,7.807615213E-3,1.023198478E-3,8.082223905E-3
1.969820920E-1,1.145363785E-5,7.807615213E-3,-1.985309646E-4,7.810147313E-3
1.994271440E-1,-1.210275805E-3,5.364156328E-3,-8.093961515E-4,5.558242777E-3
2.018713630E-1,-2.432005247E-3,5.364156328E-3,-2.031125594E-3,6.230111862E-3
2.043164150E-1,-3.042869968E-3,2.920697676E-3,-3.863718826E-3,5.719952424E-3
2.067622480E-1,-3.042869968E-3,1.088104444E-3,-5.085448269E-3,6.025347543E-3
2.092073010E-1,-3.653734690E-3,1.088104444E-3,-5.696313921E-3,6.854322779E-3
2.116515710E-1,-3.653734690E-3,4.772387911E-4,-8.750636131E-3,9.494796824E-3
2.140966230E-1,-2.432005247E-3,1.698966371E-3,-1.058323123E-2,1.099117462E-2
2.165424570E-1,-3.042869968E-3,1.088104444E-3,-1.058323123E-2,1.106561395E-2
2.189875090E-1,-2.432005247E-3,1.698966371E-3,-1.180496067E-2,1.217202664E-2
2.214317280E-1,-3.653734690E-3,4.772387911E-4,-1.180496067E-2,1.236667419E-2
2.238767800E-1,-6.097193807E-3,-1.336268615E-4,-1.302669011E-2,1.438361164E-2
2.263226130E-1,-1.821140526E-3,1.088104444E-3,-1.424841955E-2,1.440548451E-2
2.287676650E-1,-4.875464365E-3,1.088104444E-3,-1.485928334E-2,1.567649277E-2
2.312119360E-1,-3.042869968E-3,3.531559603E-3,-1.485928334E-2,1.557335135E-2
2.336569880E-1,-6.097193807E-3,2.920697676E-3,-1.485928334E-2,1.632496704E-2
2.361028210E-1,-3.653734690E-3,4.753290676E-3,-1.363755390E-2,1.489719523E-2
2.385478730E-1,-4.875464365E-3,6.585883908E-3,-1.302669011E-2,1.538956383E-2
2.409921440E-1,-4.264599644E-3,9.029342793E-3,-1.302669011E-2,1.641372891E-2
2.434371960E-1,-4.875464365E-3,8.418477140E-3,-1.302669011E-2,1.625839984E-2
2.458830300E-1,-6.708058529E-3,9.640208445E-3,-1.302669011E-2,1.753927944E-2
2.483280820E-1,-4.264599644E-3,1.025107410E-2,-1.058323123E-2,1.533871290E-2
2.507723010E-1,-7.929787971E-3,1.025107410E-2,-1.180496067E-2,1.753063472E-2
2.532173530E-1,-5.486329086E-3,8.418477140E-3,-1.058323123E-2,1.459367491E-2
2.556631860E-1,-8.540652692E-3,5.975021981E-3,-9.361501783E-3,1.401004467E-2
2.581082380E-1,-6.097193807E-3,7.196749561E-3,-8.139772341E-3,1.245892733E-2
2.605525090E-1,-6.097193807E-3,5.364156328E-3,-6.918043364E-3,1.066814274E-2
2.629975610E-1,-7.929787971E-3,5.364156328E-3,-5.085448269E-3,1.084054862E-2
2.654433940E-1,-4.875464365E-3,3.531559603E-3,-3.863718826E-3,7.153348109E-3
2.678884460E-1,-6.097193807E-3,4.772387911E-4,-2.641989384E-3,6.662104554E-3
2.703326650E-1,-4.264599644E-3,4.772387911E-4,-1.420259941E-3,4.520144388E-3
2.727777170E-1,-4.875464365E-3,-3.187951399E-3,-8.093961515E-4,5.881182621E-3
2.752236030E-1,-1.210275805E-3,-5.020544864E-3,1.023198478E-3,5.264748178E-3
2.776686030E-1,-4.264599644E-3,-7.464003749E-3,1.634063199E-3,8.750332830E-3
2.801128730E-1,1.145363785E-5,-8.074869402E-3,2.855792642E-3,8.564998462E-3
2.825579260E-1,-5.994110834E-4,-9.907462634E-3,5.299251527E-3,1.125162994E-2
2.850037590E-1,1.844047802E-3,-1.112919208E-2,5.299251527E-3,1.246360683E-2
2.874488110E-1,2.454912523E-3,-1.357265096E-2,5.910116248E-3,1.500576302E-2
2.898930820E-1,1.233183080E-3,-1.418351475E-2,6.520980969E-3,1.565937496E-2
2.923381340E-1,6.120100617E-3,-1.296178717E-2,7.742710412E-3,1.629150462E-2
2.947839670E-1,1.844047802E-3,-1.479438040E-2,5.910116248E-3,1.603757082E-2
2.972290190E-1,4.898371175E-3,-1.479438040E-2,6.520980969E-3,1.689351723E-2
2.996732900E-1,2.454912523E-3,-1.540524606E-2,5.910116248E-3,1.668165686E-2
3.021182900E-1,5.509235896E-3,-1.357265096E-2,5.910116248E-3,1.579550595E-2
3.045641760E-1,3.676641965E-3,-1.540524606E-2,5.299251527E-3,1.670093916E-2
3.070092280E-1,2.454912523E-3,-1.601610892E-2,4.077522084E-3,1.670833704E-2
3.094534460E-1,1.844047802E-3,-1.601610892E-2,2.244927920E-3,1.627746781E-2
3.118984980E-1,1.233183080E-3,-1.540524606E-2,2.244927920E-3,1.561672334E-2
3.143443320E-1,1.844047802E-3,-1.479438040E-2,-1.985309646E-4,1.491018506E-2
3.167893840E-1,-1.821140526E-3,-1.601610892E-2,-1.420259941E-3,1.618176245E-2
3.192336550E-1,6.223183591E-4,-1.540524606E-2,-2.031125594E-3,1.555102432E-2
3.216787070E-1,-3.042869968E-3,-1.540524606E-2,-1.420259941E-3,1.576698456E-2
3.241245400E-1,-5.994110834E-4,-1.296178717E-2,-8.093961515E-4,1.300085930E-2
3.265695920E-1,-2.432005247E-3,-1.174005587E-2,-2.031125594E-3,1.216014114E-2
3.290138630E-1,-2.432005247E-3,-8.074869402E-3,4.123337567E-4,8.443233060E-3
3.314589150E-1,-3.653734690E-3,-8.685733192E-3,1.634063199E-3,9.563571550E-3
3.339047480E-1,-4.875464365E-3,-8.074869402E-3,2.244927920E-3,9.696049195E-3
3.363498010E-1,-3.653734690E-3,-8.074869402E-3,3.466657363E-3,9.516880072E-3
3.387940190E-1,-6.097193807E-3,-8.074869402E-3,3.466657363E-3,1.069565339E-2
3.412390710E-1,-4.264599644E-3,-8.074869402E-3,2.855792642E-3,9.567960994E-3
3.436849050E-1,-5.486329086E-3,-1.174005587E-2,3.466657363E-3,1.341441135E-2
3.461299570E-1,-3.042869968E-3,-1.174005587E-2,4.688386805E-3,1.300265128E-2
3.485742280E-1,-4.875464365E-3,-1.479438040E-2,1.634063199E-3,1.566250321E-2
3.510192800E-1,-4.264599644E-3,-1.479438040E-2,1.634063199E-3,1.548323817E-2
3.534651130E-1,-1.821140526E-3,-1.784870401E-2,2.244927920E-3,1.808127454E-2
3.559101650E-1,-3.653734690E-3,-1.845956780E-2,4.123337567E-4,1.882220603E-2
3.583544360E-1,-5.994110834E-4,-1.845956780E-2,-1.985309646E-4,1.847036414E-2
3.607994880E-1,-3.042869968E-3,-1.845956780E-2,-1.420259941E-3,1.876251154E-2
3.632453210E-1,1.145363785E-5,-1.662697271E-2,-1.420259941E-3,1.668752501E-2
3.656903730E-1,-2.432005247E-3,-1.723783836E-2,-3.252855036E-3,1.770984999E-2
3.681346440E-1,1.145363785E-5,-1.357265096E-2,-4.474584479E-3,1.429121729E-2
3.705796960E-1,-2.432005247E-3,-1.112919208E-2,-4.474584479E-3,1.223909605E-2
3.730255300E-1,-5.994110834E-4,-6.853138097E-3,-5.085448269E-3,8.554915518E-3
3.754705820E-1,-1.210275805E-3,-6.853138097E-3,-5.696313921E-3,8.993234212E-3
3.779148010E-1,-1.821140526E-3,-2.577085746E-3,-7.528907154E-3,8.163477610E-3
3.803598530E-1,-1.210275805E-3,-1.336268615E-4,-7.528907154E-3,7.626733678E-3
3.828057380E-1,-5.486329086E-3,2.309832023E-3,-8.139772341E-3,1.008419677E-2
3.852507380E-1,-1.210275805E-3,5.975021981E-3,-8.750636131E-3,1.066486230E-2
3.876950090E-1,-4.875464365E-3,6.585883908E-3,-8.139772341E-3,1.154988802E-2
3.901400610E-1,-4.875464365E-3,1.025107410E-2,-1.058323123E-2,1.551964742E-2
3.925858940E-1,-5.486329086E-3,1.025107410E-2,-9.361501783E-3,1.492722488E-2
3.950309460E-1,-4.264599644E-3,1.147280168E-2,-9.972365573E-3,1.578797212E-2
3.974752170E-1,-4.264599644E-3,1.208366733E-2,-8.750636131E-3,1.551694103E-2
3.999202690E-1,-3.653734690E-3,1.330539491E-2,-9.361501783E-3,1.667396253E-2
4.023661030E-1,-1.821140526E-3,1.391626056E-2,-7.528907154E-3,1.592681085E-2
4.048111550E-1,-3.653734690E-3,1.391626056E-2,-6.918043364E-3,1.596469258E-2
4.072554260E-1,-1.210275805E-3,1.513799187E-2,-5.696313921E-3,1.621948081E-2
4.097004780E-1,-4.264599644E-3,1.391626056E-2,-5.085448269E-3,1.541787606E-2
4.121463110E-1,-1.210275805E-3,1.452712622E-2,-3.252855036E-3,1.493597099E-2
4.145913630E-1,-3.042869968E-3,1.208366733E-2,-2.031125594E-3,1.262535326E-2
4.170356340E-1,-1.210275805E-3,1.147280168E-2,-2.031125594E-3,1.171389846E-2
4.194806860E-1,-5.994110834E-4,1.025107410E-2,-1.420259941E-3,1.036633745E-2
4.219265190E-1,1.145363785E-5,7.807615213E-3,1.634063199E-3,7.976788141E-3
4.243715710E-1,1.844047802E-3,4.142425023E-3,1.023198478E-3,4.648347286E-3
4.268157900E-1,1.233183080E-3,-1.336268615E-4,2.855792642E-3,3.113542718E-3
4.292608420E-1,3.065777244E-3,-1.355358167E-3,4.688386805E-3,5.763415368E-3
4.317067280E-1,2.454912523E-3,-5.020544864E-3,5.299251527E-3,7.701592885E-3
4.341517280E-1,7.341830060E-3,-7.464003749E-3,4.688386805E-3,1.147147730E-2
4.365959980E-1,5.509235896E-3,-1.174005587E-2,3.466657363E-3,1.342379623E-2
4.390410510E-1,7.952694781E-3,-1.235092152E-2,4.077522084E-3,1.524522230E-2
4.414868840E-1,9.174424224E-3,-1.540524606E-2,2.855792642E-3,1.815618951E-2
4.439319360E-1,8.563559502E-3,-1.540524606E-2,2.855792642E-3,1.785529919E-2
4.463762070E-1,1.222874783E-2,-1.662697271E-2,4.123337567E-4,2.064384930E-2
4.488212590E-1,1.039615367E-2,-1.845956780E-2,-8.093961515E-4,2.120119753E-2
4.512670920E-1,1.467220671E-2,-1.723783836E-2,-2.031125594E-3,2.272756459E-2
4.537121440E-1,1.161788311E-2,-2.151389048E-2,-3.863718826E-3,2.475380808E-2
4.561564150E-1,1.528307237E-2,-1.845956780E-2,-4.474584479E-3,2.437929143E-2
4.586014670E-1,1.222874783E-2,-1.845956780E-2,-6.307177711E-3,2.302343171E-2
4.610473010E-1,1.467220671E-2,-1.540524606E-2,-6.918043364E-3,2.237084218E-2
4.634923530E-1,1.406134106E-2,-1.418351475E-2,-7.528907154E-3,2.134426963E-2
4.659366230E-1,1.222874783E-2,-1.174005587E-2,-7.528907154E-3,1.854873657E-2
4.683816760E-1,1.283961255E-2,-1.235092152E-2,-7.528907154E-3,1.934128630E-2
4.708275090E-1,1.039615367E-2,-1.112919208E-2,-5.696313921E-3,1.625997908E-2
4.732725610E-1,1.345047727E-2,-1.174005587E-2,-5.696313921E-3,1.874012388E-2
4.757168320E-1,9.785288945E-3,-1.357265096E-2,-5.696313921E-3,1.767531403E-2
4.781618840E-1,1.406134106E-2,-1.296178717E-2,-4.474584479E-3,1.964054850E-2
4.806077170E-1,1.161788311E-2,-1.540524606E-2,-2.641989384E-3,1.947503330E-2
4.830527690E-1,1.283961255E-2,-1.540524606E-2,-1.985309646E-4,2.005534021E-2
4.854970400E-1,1.345047727E-2,-1.418351475E-2,1.023198478E-3,1.957381835E-2
4.879420920E-1,1.406134106E-2,-1.662697271E-2,2.244927920E-3,2.189103093E-2
4.903879260E-1,1.528307237E-2,-1.845956780E-2,4.077522084E-3,2.430954814E-2
4.928329780E-1,1.345047727E-2,-1.968129724E-2,3.466657363E-3,2.408913683E-2
4.952772480E-1,1.711566560E-2,-1.968129724E-2,6.520980969E-3,2.688536150E-2
4.977222480E-1,1.528307237E-2,-2.151389048E-2,7.131845690E-3,2.733647760E-2
5.001681340E-1,1.772653125E-2,-2.212475613E-2,7.742710412E-3,2.938850640E-2
5.026131860E-1,1.589393616E-2,-2.334648557E-2,6.520980969E-3,2.898618271E-2
5.050574050E-1,1.772653125E-2,-2.212475613E-2,8.353575133E-3,2.955532036E-2
5.075024570E-1,1.711566560E-2,-2.334648557E-2,9.575304575E-3,3.049083231E-2
5.099483420E-1,1.711566560E-2,-2.090302669E-2,9.575304575E-3,2.866302481E-2
5.123933940E-1,1.772653125E-2,-2.151389048E-2,8.964439854E-3,2.928205211E-2
5.148376130E-1,1.650479995E-2,-2.212475613E-2,8.353575133E-3,2.883913092E-2
5.172826650E-1,1.833739504E-2,-2.212475613E-2,8.353575133E-3,2.992569311E-2
5.197285510E-1,1.467220671E-2,-2.151389048E-2,8.353575133E-3,2.734782168E-2
5.221735510E-1,1.772653125E-2,-2.090302669E-2,8.964439854E-3,2.883622057E-2
5.246178210E-1,1.467220671E-2,-2.029216290E-2,8.964439854E-3,2.659711839E-2
5.270628730E-1,1.711566560E-2,-1.968129724E-2,9.575304575E-3,2.778463474E-2
5.295087070E-1,1.589393616E-2,-1.845956780E-2,8.353575133E-3,2.575179736E-2
5.319537590E-1,1.589393616E-2,-1.662697271E-2,9.575304575E-3,2.491505339E-2
5.343980300E-1,1.589393616E-2,-1.723783836E-2,8.353575133E-3,2.489061059E-2
5.368430820E-1,1.406134106E-2,-1.784870401E-2,8.353575133E-3,2.420908434E-2
5.392889150E-1,1.650479995E-2,-1.723783836E-2,6.520980969E-3,2.474014320E-2
5.417339670E-1,1.406134106E-2,-1.907043159E-2,5.299251527E-3,2.427930683E-2
5.441782380E-1,1.650479995E-2,-1.784870401E-2,4.688386805E-3,2.475814264E-2
5.466232900E-1,1.467220671E-2,-2.151389048E-2,2.855792642E-3,2.619688311E-2
5.490691230E-1,1.650479995E-2,-1.968129724E-2,1.023198478E-3,2.570620193E-2
5.515141760E-1,1.589393616E-2,-2.151389048E-2,4.123337567E-4,2.675134967E-2
5.539584460E-1,1.406134106E-2,-2.151389048E-2,-1.420259941E-3,2.574074463E-2
5.564034980E-1,1.528307237E-2,-2.090302669E-2,-3.252855036E-3,2.609769897E-2
5.588493320E-1,1.283961255E-2,-2.090302669E-2,-2.641989384E-3,2.467331115E-2
5.612943840E-1,1.467220671E-2,-1.968129724E-2,-2.641989384E-3,2.469022517E-2
5.637386550E-1,1.100701839E-2,-1.784870401E-2,-3.863718826E-3,2.132273462E-2
5.661837070E-1,1.222874783E-2,-1.540524606E-2,-3.863718826E-3,2.004475499E-2
5.686295400E-1,7.952694781E-3,-1.540524606E-2,-2.641989384E-3,1.753701994E-2
5.710745920E-1,8.563559502E-3,-1.296178717E-2,-2.031125594E-3,1.566741680E-2
5.735188630E-1,6.730965339E-3,-1.357265096E-2,-1.420259941E-3,1.521643476E-2
5.759639150E-1,6.120100617E-3,-1.112919208E-2,-1.420259941E-3,1.278012857E-2
5.784097480E-1,5.509235896E-3,-1.112919208E-2,-1.985309646E-4,1.241974279E-2
5.808548010E-1,4.287506454E-3,-1.235092152E-2,-1.985309646E-4,1.307544984E-2
5.832990710E-1,6.120100617E-3,-1.051832829E-2,4.123337567E-4,1.217624247E-2
5.857441230E-1,3.065777244E-3,-1.357265096E-2,2.244927920E-3,1.409452183E-2
5.881899570E-1,5.509235896E-3,-1.357265096E-2,2.855792642E-3,1.492394338E-2
5.906350090E-1,3.065777244E-3,-1.418351475E-2,2.855792642E-3,1.478940947E-2
5.930792800E-1,3.676641965E-3,-1.296178717E-2,3.466657363E-3,1.391198534E-2
5.955243320E-1,3.676641965E-3,-1.296178717E-2,3.466657363E-3,1.391198534E-2
5.979701650E-1,4.287506454E-3,-1.174005587E-2,3.466657363E-3,1.297032523E-2
6.004152170E-1,4.287506454E-3,-1.051832829E-2,3.466657363E-3,1.187584333E-2
6.028594880E-1,3.065777244E-3,-9.296596982E-3,2.855792642E-3,1.019712004E-2
6.053045400E-1,6.120100617E-3,-7.464003749E-3,1.634063199E-3,9.789644839E-3
6.077503730E-1,1.844047802E-3,-8.685733192E-3,1.023198478E-3,8.938087519E-3
6.101954260E-1,5.509235896E-3,-5.020544864E-3,1.023198478E-3,7.523595285E-3
6.126396960E-1,3.065777244E-3,-6.853138097E-3,-8.093961515E-4,7.551133293E-3
6.150847480E-1,4.287506454E-3,-2.577085746E-3,-3.863718826E-3,6.320791541E-3
6.175305820E-1,1.844047802E-3,-3.187951399E-3,-5.696313921E-3,6.783180575E-3
6.199756340E-1,3.065777244E-3,-1.355358167E-3,-5.085448269E-3,6.090793870E-3
6.224199050E-1,4.287506454E-3,-7.444925141E-4,-6.918043364E-3,8.172900628E-3
6.248649570E-1,6.223183591E-4,-1.336268615E-4,-8.139772341E-3,8.164620630E-3
6.273107900E-1,1.844047802E-3,2.309832023E-3,-8.750636131E-3,9.236312520E-3
6.297558420E-1,-1.210275805E-3,1.698966371E-3,-9.972365573E-3,1.018819559E-2
6.322001130E-1,1.145363785E-5,2.309832023E-3,-1.119409502E-2,1.142992644E-2
6.346451650E-1,-2.432005247E-3,2.309832023E-3,-9.972365573E-3,1.052131402E-2
6.370909980E-1,-5.994110834E-4,3.531559603E-3,-8.139772341E-3,8.893092861E-3
6.395360510E-1,-1.210275805E-3,3.531559603E-3,-7.528907154E-3,8.403637527E-3
6.419803210E-1,-1.821140526E-3,4.753290676E-3,-6.307177711E-3,8.104987091E-3
6.444253730E-1,-5.994110834E-4,6.585883908E-3,-6.307177711E-3,9.138580370E-3
6.468712070E-1,-1.210275805E-3,4.142425023E-3,-4.474584479E-3,6.216619568E-3
6.493162590E-1,1.844047802E-3,3.531559603E-3,-3.252855036E-3,5.143295774E-3
6.517605300E-1,-5.994110834E-4,-1.336268615E-4,-1.420259941E-3,1.547348728E-3
6.542055820E-1,2.454912523E-3,-1.966220094E-3,-1.985309646E-4,3.151512573E-3
6.566514150E-1,1.233183080E-3,-5.020544864E-3,2.855792642E-3,5.906112330E-3
6.590964670E-1,2.454912523E-3,-6.853138097E-3,4.077522084E-3,8.343757164E-3
6.615407380E-1,6.223183591E-4,-9.296596982E-3,5.299251527E-3,1.071895808E-2
6.639857900E-1,1.233183080E-3,-1.112919208E-2,6.520980969E-3,1.295773320E-2
6.664316230E-1,2.454912523E-3,-1.296178717E-2,8.964439854E-3,1.594978696E-2
6.688766760E-1,1.145363785E-5,-1.235092152E-2,1.079703402E-2,1.640491808E-2
6.713209460E-1,2.454912523E-3,-1.235092152E-2,1.079703402E-2,1.658757973E-2
6.737659980E-1,-1.210275805E-3,-1.235092152E-2,1.201876346E-2,1.727601531E-2
6.762118320E-1,1.145363785E-5,-9.907462634E-3,1.324049290E-2,1.653688602E-2
6.786568840E-1,-3.042869968E-3,-9.907462634E-3,1.262962818E-2,1.633782059E-2
6.811011550E-1,1.145363785E-5,-8.685733192E-3,1.262962818E-2,1.532806577E-2
6.835462070E-1,-3.042869968E-3,-9.907462634E-3,1.262962818E-2,1.633782059E-2
6.859920400E-1,-4.264599644E-3,-8.685733192E-3,1.201876346E-2,1.542982328E-2
6.884370920E-1,-4.264599644E-3,-1.051832829E-2,1.201876346E-2,1.653096232E-2
6.908813630E-1,-7.318923250E-3,-1.112919208E-2,1.201876346E-2,1.794090937E-2
6.933264150E-1,-5.486329086E-3,-1.357265096E-2,1.262962818E-2,1.933453307E-2
6.957723010E-1,-9.762382135E-3,-1.357265096E-2,1.018616930E-2,1.957751271E-2
6.982173010E-1,-7.929787971E-3,-1.357265096E-2,1.079703402E-2,1.907024738E-2
7.006615710E-1,-1.098411158E-2,-1.418351475E-2,1.079703402E-2,2.093797367E-2
7.031066230E-1,-9.762382135E-3,-1.112919208E-2,1.079703402E-2,1.832318108E-2
7.055524570E-1,-1.281670574E-2,-1.051832829E-2,1.018616930E-2,1.945921943E-2
7.079975610E-1,-1.159497630E-2,-7.464003749E-3,1.140789874E-2,1.789678689E-2
7.104417800E-1,-1.281670574E-2,-5.020544864E-3,9.575304575E-3,1.676783452E-2
7.128868320E-1,-1.526016463E-2,-1.336268615E-4,9.575304575E-3,1.801601893E-2
7.153327170E-1,-1.464930084E-2,4.142425023E-3,1.079703402E-2,1.866380571E-2
7.177777690E-1,-1.770362258E-2,6.585883908E-3,1.079703402E-2,2.175702330E-2
7.202220400E-1,-1.831448637E-2,9.640208445E-3,1.079703402E-2,2.334373521E-2
7.226670920E-1,-1.831448637E-2,1.330539491E-2,9.575304575E-3,2.457926774E-2
7.251129260E-1,-1.892535202E-2,1.574885845E-2,1.018616930E-2,2.664495331E-2
7.275579780E-1,-1.953621767E-2,1.880317926E-2,9.575304575E-3,2.875603953E-2
7.300022480E-1,-1.892535202E-2,2.124663815E-2,8.964439854E-3,2.983202581E-2
7.324473010E-1,-1.953621767E-2,2.246836945E-2,7.131845690E-3,3.061624814E-2
7.348931340E-1,-1.953621767E-2,2.674442157E-2,6.520980969E-3,3.375575624E-2
7.373381860E-1,-2.014708333E-2,2.857701480E-2,7.131845690E-3,3.568492629E-2
7.397824570E-1,-2.136881091E-2,3.163133562E-2,5.910116248E-3,3.862767074E-2
7.422275090E-1,-2.259054221E-2,3.651826084E-2,4.688386805E-3,4.319602925E-2
7.446733420E-1,-2.442313544E-2,4.140517116E-2,4.688386805E-3,4.829967613E-2
7.471183940E-1,-2.503400110E-2,4.568123072E-2,5.299251527E-3,5.235989036E-2
7.495626650E-1,-2.442313544E-2,5.178987235E-2,5.910116248E-3,5.756396353E-2
7.520077170E-1,-2.686659433E-2,5.606593192E-2,6.520980969E-3,6.251180533E-2
7.544535510E-1,-2.808832191E-2,5.973112211E-2,8.353575133E-3,6.653227031E-2
7.568986030E-1,-2.747745998E-2,6.217456982E-2,1.018616930E-2,6.873460543E-2
7.593428730E-1,-2.869918756E-2,6.461802870E-2,1.201876346E-2,7.171878188E-2
7.617879260E-1,-2.992091514E-2,6.645061821E-2,1.385135762E-2,7.418090004E-2
7.642337590E-1,-2.992091514E-2,6.583976001E-2,1.751654595E-2,7.441078243E-2
7.666788110E-1,-2.992091514E-2,6.706149131E-2,1.996000484E-2,7.609800637E-2
7.691230820E-1,-2.869918756E-2,6.461802870E-2,2.301432937E-2,7.435584951E-2
7.715681340E-1,-2.869918756E-2,6.400717050E-2,2.545778826E-2,7.462345627E-2
7.740139670E-1,-2.686659433E-2,6.217456982E-2,2.851211093E-2,7.348762816E-2
7.764590190E-1,-2.503400110E-2,5.850938708E-2,2.851211093E-2,6.973514219E-2
7.789032900E-1,-2.503400110E-2,5.545506626E-2,3.217729926E-2,6.882836750E-2
7.813483420E-1,-2.320140414E-2,5.117900670E-2,3.400989249E-2,6.568309271E-2
7.837941760E-1,-2.197967656E-2,4.629209638E-2,3.523162380E-2,6.218787409E-2
7.862392800E-1,-2.197967656E-2,4.201603681E-2,3.339902684E-2,5.799955625E-2
7.886834980E-1,-2.075794525E-2,3.957258165E-2,3.462075815E-2,5.652856273E-2
7.911285510E-1,-1.892535202E-2,3.590739518E-2,3.400989249E-2,5.295453489E-2
7.935744360E-1,-1.648189314E-2,3.285306692E-2,3.339902684E-2,4.966358627E-2
7.960194880E-1,-1.587102748E-2,3.040961176E-2,3.095556982E-2,4.620477577E-2
7.984637590E-1,-1.403843518E-2,2.857701480E-2,2.973384038E-2,4.356402990E-2
8.009087590E-1,-1.281670574E-2,2.430096269E-2,2.729038149E-2,3.872427734E-2
8.033546440E-1,-1.037324686E-2,2.246836945E-2,2.484692261E-2,3.506852491E-2
8.057996960E-1,-9.151517414E-3,2.124663815E-2,2.240346372E-2,3.220380553E-2
8.082439670E-1,-9.762382135E-3,2.063577622E-2,1.934913918E-2,2.992538308E-2
8.106890190E-1,-9.151517414E-3,2.246836945E-2,1.568395272E-2,2.888882604E-2
8.131348530E-1,-9.151517414E-3,2.124663815E-2,1.385135762E-2,2.696349405E-2
8.155799050E-1,-9.151517414E-3,2.307923138E-2,1.262962818E-2,2.785513777E-2
8.180241760E-1,-9.762382135E-3,2.552269399E-2,1.140789874E-2,2.961168970E-2
8.204692280E-1,-1.037324686E-2,2.552269399E-2,8.353575133E-3,2.878878908E-2
8.229150610E-1,-1.098411158E-2,2.491182834E-2,5.910116248E-3,2.785999592E-2
8.253601130E-1,-1.098411158E-2,2.430096269E-2,4.077522084E-3,2.697802218E-2
8.278043840E-1,-1.037324686E-2,2.369009703E-2,2.244927920E-3,2.595890308E-2
8.302494360E-1,-1.220584102E-2,2.430096269E-2,2.244927920E-3,2.728660924E-2
8.326952690E-1,-1.159497630E-2,2.063577622E-2,1.023198478E-3,2.369231248E-2
8.351403210E-1,-1.037324686E-2,2.002491057E-2,-1.985309646E-4,2.255306427E-2
8.375845920E-1,-1.037324686E-2,1.758145168E-2,4.123337567E-4,2.041768138E-2
8.400296440E-1,-1.098411158E-2,1.697058603E-2,-1.985309646E-4,2.021610526E-2
8.424754780E-1,-1.098411158E-2,1.513799187E-2,1.023198478E-3,1.873116227E-2
8.449205820E-1,-1.098411158E-2,1.330539491E-2,4.123337567E-4,1.725845474E-2
8.473648010E-1,-8.540652692E-3,1.208366733E-2,-8.093961515E-4,1.481934164E-2
8.498098530E-1,-9.151517414E-3,1.208366733E-2,-1.985309646E-4,1.515931073E-2
8.522557380E-1,-9.151517414E-3,1.025107410E-2,-1.985309646E-4,1.374315123E-2
8.547007900E-1,-1.037324686E-2,9.029342793E-3,1.023198478E-3,1.379058435E-2
8.571450090E-1,-1.098411158E-2,9.640208445E-3,1.634063199E-3,1.470559378E-2
8.595901130E-1,-1.098411158E-2,8.418477140E-3,1.634063199E-3,1.393526559E-2
8.620359460E-1,-1.159497630E-2,7.807615213E-3,2.244927920E-3,1.415775519E-2
8.644809980E-1,-1.098411158E-2,7.807615213E-3,1.634063199E-3,1.357496685E-2
8.669252690E-1,-1.098411158E-2,1.086193975E-2,2.244927920E-3,1.561000140E-2
8.693703210E-1,-7.929787971E-3,1.025107410E-2,2.855792642E-3,1.327108168E-2
8.718161550E-1,-6.708058529E-3,1.086193975E-2,2.244927920E-3,1.296223305E-2
8.742612070E-1,-6.097193807E-3,1.208366733E-2,2.855792642E-3,1.383279943E-2
8.767054780E-1,-5.486329086E-3,1.208366733E-2,2.855792642E-3,1.357462245E-2
8.791505300E-1,-3.653734690E-3,1.330539491E-2,2.855792642E-3,1.409038192E-2
8.815963630E-1,-3.653734690E-3,1.452712622E-2,2.244927920E-3,1.514684372E-2
8.840414150E-1,-2.432005247E-3,1.697058603E-2,3.466657363E-3,1.749094489E-2
8.864856860E-1,-1.210275805E-3,1.635972038E-2,2.244927920E-3,1.655732224E-2
8.889307380E-1,-1.210275805E-3,1.819231361E-2,2.244927920E-3,1.837021348E-2
8.913766230E-1,-1.210275805E-3,1.819231361E-2,1.634063199E-3,1.830560582E-2
8.938216760E-1,1.145363785E-5,1.697058603E-2,1.634063199E-3,1.704907868E-2
8.962658940E-1,2.454912523E-3,1.635972038E-2,1.023198478E-3,1.657449793E-2
8.987109460E-1,3.065777244E-3,1.574885845E-2,4.123337567E-4,1.604978354E-2
9.011568320E-1,4.287506454E-3,1.330539491E-2,4.123337567E-4,1.398521592E-2
9.036018840E-1,5.509235896E-3,1.269453298E-2,-1.985309646E-4,1.383987942E-2
9.060461550E-1,7.952694781E-3,1.025107410E-2,1.023198478E-3,1.301448461E-2
9.084912070E-1,7.341830060E-3,9.640208445E-3,-8.093961515E-4,1.214459590E-2
9.109370400E-1,9.174424224E-3,7.196749561E-3,4.123337567E-4,1.166761686E-2
9.133820920E-1,9.785288945E-3,4.753290676E-3,1.023198478E-3,1.092669150E-2
9.158263630E-1,1.100701839E-2,4.772387911E-4,4.123337567E-4,1.102507278E-2
9.182714150E-1,1.222874783E-2,1.698966371E-3,-1.985309646E-4,1.234780040E-2
9.207172480E-1,1.222874783E-2,-1.966220094E-3,-1.420259941E-3,1.246697370E-2
9.231623010E-1,1.528307237E-2,-3.798815189E-3,-8.093961515E-4,1.576890675E-2
9.256065710E-1,1.589393616E-2,-5.020544864E-3,-1.420259941E-3,1.672842538E-2
9.280516230E-1,1.711566560E-2,-8.685733192E-3,-8.093961515E-4,1.921049432E-2
9.304974570E-1,1.711566560E-2,-1.112919208E-2,-8.093961515E-4,2.043183906E-2
9.329425610E-1,1.894825883E-2,-1.174005587E-2,-1.420259941E-3,2.233567914E-2
9.353867800E-1,1.894825883E-2,-1.357265096E-2,-2.641989384E-3,2.345705597E-2
9.378318320E-1,1.833739504E-2,-1.357265096E-2,-3.252855036E-3,2.304469520E-2
9.402777170E-1,1.833739504E-2,-1.479438040E-2,-3.863718826E-3,2.387597268E-2
9.427227690E-1,1.772653125E-2,-1.296178717E-2,-5.696313921E-3,2.268668837E-2
9.451670400E-1,1.711566560E-2,-1.296178717E-2,-6.307177711E-3,2.237709602E-2
9.476120920E-1,1.589393616E-2,-1.174005587E-2,-7.528907154E-3,2.114546195E-2
9.500579260E-1,1.650479995E-2,-1.051832829E-2,-6.307177711E-3,2.056268810E-2
9.525029780E-1,1.528307237E-2,-1.051832829E-2,-7.528907154E-3,2.002228693E-2
9.549472480E-1,1.345047727E-2,-9.296596982E-3,-7.528907154E-3,1.800073602E-2
9.573923010E-1,1.222874783E-2,-8.074869402E-3,-8.750636131E-3,1.706808197E-2
9.598381340E-1,1.161788311E-2,-8.074869402E-3,-8.139772341E-3,1.632282505E-2
9.622831860E-1,9.785288945E-3,-9.907462634E-3,-8.139772341E-3,1.612964939E-2
9.647274570E-1,9.785288945E-3,-8.685733192E-3,-8.750636131E-3,1.574063129E-2
9.671725090E-1,8.563559502E-3,-9.296596982E-3,-8.139772341E-3,1.503386712E-2
9.696183940E-1,7.341830060E-3,-9.296596982E-3,-6.307177711E-3,1.342049458E-2
9.720634460E-1,5.509235896E-3,-1.112919208E-2,-5.085448269E-3,1.341910506E-2
9.745076650E-1,4.898371175E-3,-1.051832829E-2,-4.474584479E-3,1.243588261E-2
9.769527170E-1,2.454912523E-3,-1.296178717E-2,-5.085448269E-3,1.413846902E-2
9.793986030E-1,2.454912523E-3,-1.296178717E-2,-4.474584479E-3,1.393041379E-2
9.818436550E-1,1.233183080E-3,-1.723783836E-2,-2.641989384E-3,1.748267484E-2
9.842879260E-1,1.233183080E-3,-1.723783836E-2,-1.420259941E-3,1.734015427E-2
9.867329780E-1,1.844047802E-3,-1.907043159E-2,-1.985309646E-4,1.916040939E-2
9.891788110E-1,-5.994110834E-4,-1.968129724E-2,-1.985309646E-4,1.969142375E-2
9.916238630E-1,-2.432005247E-3,-2.029216290E-2,2.244927920E-3,2.056030705E-2
9.940681340E-1,-4.264599644E-3,-2.395734936E-2,2.244927920E-3,2.443728913E-2
9.965131860E-1,-6.097193807E-3,-2.517908067E-2,4.688386805E-3,2.632760616E-2
9.989590190E-1,-6.708058529E-3,-2.395734936E-2,4.688386805E-3,2.531666661E-2
1.001404071E0,-7.318923250E-3,-2.395734936E-2,6.520980969E-3,2.588521622E-2
1.003848342E0,-8.540652692E-3,-2.090302669E-2,6.520980969E-3,2.350324373E-2
1.006293394E0,-8.540652692E-3,-1.968129724E-2,8.964439854E-3,2.325204059E-2
1.008739280E0,-7.318923250E-3,-1.907043159E-2,9.575304575E-3,2.255957571E-2
1.011184332E0,-9.151517414E-3,-1.479438040E-2,9.575304575E-3,1.985725107E-2
1.013628603E0,-1.220584102E-2,-1.112919208E-2,1.140789874E-2,2.007440223E-2
1.016073655E0,-1.403843518E-2,-6.853138097E-3,1.201876346E-2,1.971024706E-2
1.018519488E0,-1.587102748E-2,-2.577085746E-3,1.140789874E-2,1.971474164E-2
1.020964540E0,-1.770362258E-2,1.088104444E-3,1.140789874E-2,2.108891598E-2
1.023408811E0,-2.075794525E-2,7.196749561E-3,1.262962818E-2,2.534152725E-2
1.025853863E0,-2.197967656E-2,1.208366733E-2,1.324049290E-2,2.836250782E-2
1.028299696E0,-2.320140414E-2,1.391626056E-2,1.507308707E-2,3.097039580E-2
1.030744748E0,-2.442313544E-2,1.574885845E-2,1.568395272E-2,3.302275670E-2
1.033189019E0,-2.381226979E-2,2.002491057E-2,1.751654595E-2,3.570505032E-2
1.035634071E0,-2.442313544E-2,2.185750380E-2,1.934913918E-2,3.806086185E-2
1.038079957E0,-2.564486302E-2,2.185750380E-2,2.179259807E-2,4.012887741E-2
1.040525009E0,-2.747745998E-2,2.307923138E-2,2.484692261E-2,4.364666415E-2
1.042969280E0,-2.564486302E-2,2.307923138E-2,2.667951584E-2,4.361314579E-2
1.045414332E0,-2.503400110E-2,2.246836945E-2,2.973384038E-2,4.489576929E-2
1.047860165E0,-2.442313544E-2,2.124663815E-2,3.156643361E-2,4.521447676E-2
1.050305217E0,-2.075794525E-2,1.819231361E-2,3.400989249E-2,4.380097434E-2
1.052749488E0,-1.892535202E-2,1.452712622E-2,3.584248945E-2,4.305682751E-2
1.055194540E0,-1.831448637E-2,1.269453298E-2,3.828594461E-2,4.429881639E-2
1.057640373E0,-1.648189314E-2,1.086193975E-2,3.767508268E-2,4.253288600E-2
1.060085426E0,-1.587102748E-2,5.975021981E-3,3.950767592E-2,4.299356763E-2
1.062529696E0,-1.464930084E-2,6.585883908E-3,3.828594461E-2,4.151854329E-2
1.064974748E0,-1.403843518E-2,2.920697676E-3,3.767508268E-2,4.031153672E-2
1.067419957E0,-1.281670574E-2,1.698966371E-3,3.706421703E-2,3.925443436E-2
1.069865165E0,-1.037324686E-2,-1.336268615E-4,3.584248945E-2,3.731361891E-2
1.072310373E0,-1.098411158E-2,-1.355358167E-3,3.523162380E-2,3.692905385E-2
1.074755582E0,-1.159497630E-2,-7.444925141E-4,3.400989249E-2,3.593981819E-2
1.077200790E0,-1.098411158E-2,-1.966220094E-3,3.462075815E-2,3.637462884E-2
1.079645998E0,-9.151517414E-3,-4.409679212E-3,3.339902684E-2,3.490974843E-2
1.082091207E0,-8.540652692E-3,-3.798815189E-3,3.156643361E-2,3.292132251E-2
1.084536415E0,-9.762382135E-3,-5.020544864E-3,3.034470603E-2,3.226935326E-2
1.086981623E0,-9.151517414E-3,-6.853138097E-3,2.912297472E-2,3.128679321E-2
1.089426832E0,-9.151517414E-3,-6.853138097E-3,2.667951584E-2,2.902606308E-2
1.091872040E0,-7.318923250E-3,-6.853138097E-3,2.362519316E-2,2.566479868E-2
1.094317248E0,-5.486329086E-3,-6.853138097E-3,2.179259807E-2,2.349431078E-2
1.096762457E0,-6.097193807E-3,-5.631410517E-3,1.873827539E-2,2.049418263E-2
1.099207665E0,-6.097193807E-3,-5.631410517E-3,1.751654595E-2,1.938344497E-2
1.101652873E0,-4.875464365E-3,-3.798815189E-3,1.507308707E-2,1.629107435E-2
1.104098082E0,-5.486329086E-3,-1.966220094E-3,1.262962818E-2,1.390946930E-2
1.106541519E0,-6.097193807E-3,-1.355358167E-3,1.140789874E-2,1.300588027E-2
1.108986571E0,-6.708058529E-3,1.088104444E-3,8.964439854E-3,1.124914230E-2
1.111430842E0,-7.929787971E-3,1.698966371E-3,7.131845690E-3,1.079959476E-2
1.113875894E0,-8.540652692E-3,2.309832023E-3,5.910116248E-3,1.063990350E-2
1.116321728E0,-7.929787971E-3,1.698966371E-3,5.299251527E-3,9.687625650E-3
1.118766780E0,-8.540652692E-3,2.920697676E-3,3.466657363E-3,9.669071134E-3
1.121211051E0,-7.929787971E-3,5.364156328E-3,2.855792642E-3,9.990558643E-3
1.123656103E0,-7.318923250E-3,4.753290676E-3,2.244927920E-3,9.011110428E-3
1.126101988E0,-7.929787971E-3,4.753290676E-3,1.634063199E-3,9.388582004E-3
1.128547040E0,-4.264599644E-3,2.920697676E-3,1.023198478E-3,5.269176421E-3
1.130991311E0,-4.264599644E-3,2.309832023E-3,4.123337567E-4,4.867458600E-3
1.133436363E0,-3.042869968E-3,4.772387911E-4,-2.031125594E-3,3.689483119E-3
1.135882196E0,-3.653734690E-3,-7.444925141E-4,-3.863718826E-3,5.369578145E-3
1.138327248E0,-2.432005247E-3,-3.798815189E-3,-5.085448269E-3,6.797604759E-3
1.140771519E0,-1.821140526E-3,-5.020544864E-3,-5.696313921E-3,7.808355514E-3
1.143216571E0,-2.432005247E-3,-4.409679212E-3,-5.696313921E-3,7.603151489E-3
1.145662405E0,-3.042869968E-3,-3.798815189E-3,-8.139772341E-3,9.483983775E-3
1.148107457E0,-2.432005247E-3,-2.577085746E-3,-8.139772341E-3,8.877607461E-3
1.150551728E0,-2.432005247E-3,-1.355358167E-3,-9.361501783E-3,9.766747714E-3
1.152996780E0,-3.042869968E-3,-7.444925141E-4,-1.058323123E-2,1.103712417E-2
1.155442665E0,-2.432005247E-3,2.309832023E-3,-1.241582446E-2,1.286089695E-2
1.157887717E0,-2.432005247E-3,4.772387911E-4,-1.058323123E-2,1.086955333E-2
1.160331988E0,-4.875464365E-3,4.772387911E-4,-1.119409502E-2,1.221907005E-2
1.162777040E0,-4.264599644E-3,1.088104444E-3,-1.241582446E-2,1.317283107E-2
1.165222873E0,-4.264599644E-3,4.772387911E-4,-1.241582446E-2,1.313648598E-2
1.167667926E0,-3.042869968E-3,-1.355358167E-3,-1.180496067E-2,1.226593453E-2
1.170112196E0,-2.432005247E-3,-3.798815189E-3,-1.058323123E-2,1.150436567E-2
1.172557248E0,-1.821140526E-3,-4.409679212E-3,-1.180496067E-2,1.273259282E-2
1.175003134E0,-5.994110834E-4,-4.409679212E-3,-1.119409502E-2,1.204625783E-2
1.177448186E0,-5.994110834E-4,-7.464003749E-3,-9.972365573E-3,1.247071452E-2
1.179892457E0,1.844047802E-3,-6.853138097E-3,-9.361501783E-3,1.174749887E-2
1.182337509E0,2.454912523E-3,-6.853138097E-3,-1.058323123E-2,1.284511115E-2
1.184783342E0,1.233183080E-3,-8.685733192E-3,-9.361501783E-3,1.282966941E-2
1.187228394E0,3.676641965E-3,-9.907462634E-3,-7.528907154E-3,1.297535953E-2
1.189672665E0,2.454912523E-3,-9.296596982E-3,-7.528907154E-3,1.221219693E-2
1.192117717E0,3.676641965E-3,-1.112919208E-2,-6.307177711E-3,1.331003768E-2
1.194563551E0,2.454912523E-3,-1.051832829E-2,-5.085448269E-3,1.193832524E-2
1.197008603E0,3.065777244E-3,-1.296178717E-2,-3.863718826E-3,1.386849811E-2
1.199452873E0,3.065777244E-3,-1.296178717E-2,-2.641989384E-3,1.357891839E-2
1.201897926E0,4.287506454E-3,-1.296178717E-2,-1.420259941E-3,1.372617123E-2
1.204343811E0,1.844047802E-3,-1.662697271E-2,-8.093961515E-4,1.674848816E-2
1.206788863E0,6.120100617E-3,-1.601610892E-2,4.123337567E-4,1.715055088E-2
1.209233134E0,3.676641965E-3,-1.845956780E-2,1.634063199E-3,1.889294847E-2
1.211678186E0,6.120100617E-3,-1.907043159E-2,2.855792642E-3,2.023097981E-2
1.214124019E0,6.120100617E-3,-2.090302669E-2,5.299251527E-3,2.241593681E-2
1.216569071E0,5.509235896E-3,-2.212475613E-2,4.688386805E-3,2.327740288E-2
1.219013342E0,7.341830060E-3,-2.273562178E-2,5.910116248E-3,2.461179474E-2
1.221458394E0,5.509235896E-3,-2.395734936E-2,5.910116248E-3,2.528311181E-2
1.223904280E0,8.563559502E-3,-2.273562178E-2,6.520980969E-3,2.515484530E-2
1.226349332E0,7.341830060E-3,-2.334648557E-2,7.742710412E-3,2.566925051E-2
1.228793603E0,8.563559502E-3,-2.151389048E-2,5.910116248E-3,2.389793943E-2
1.231238655E0,7.341830060E-3,-2.456821501E-2,5.299251527E-3,2.618361557E-2
1.233684488E0,7.952694781E-3,-2.395734936E-2,4.688386805E-3,2.567451876E-2
1.236129540E0,6.120100617E-3,-2.395734936E-2,4.688386805E-3,2.516726427E-2
1.238573811E0,5.509235896E-3,-2.395734936E-2,4.077522084E-3,2.491851631E-2
1.241018863E0,7.341830060E-3,-2.334648557E-2,4.077522084E-3,2.481102665E-2
1.243464696E0,5.509235896E-3,-2.273562178E-2,2.244927920E-3,2.350106124E-2
1.245909801E0,6.730965339E-3,-2.212475613E-2,2.855792642E-3,2.330163685E-2
1.248354019E0,2.454912523E-3,-2.029216290E-2,1.634063199E-3,2.050533182E-2
1.250799071E0,5.509235896E-3,-1.845956780E-2,2.855792642E-3,1.947467266E-2
1.253244957E0,1.844047802E-3,-1.845956780E-2,2.855792642E-3,1.876996823E-2
1.255690009E0,2.454912523E-3,-1.418351475E-2,3.466657363E-3,1.480595824E-2
1.258134280E0,2.454912523E-3,-1.357265096E-2,5.910116248E-3,1.500576302E-2
1.260579332E0,1.844047802E-3,-9.907462634E-3,4.688386805E-3,1.111482339E-2
1.263025165E0,4.287506454E-3,-8.074869402E-3,7.742710412E-3,1.198064239E-2
1.265470217E0,1.233183080E-3,-8.685733192E-3,1.018616930E-2,1.344324167E-2
1.267914488E0,3.676641965E-3,-8.074869402E-3,1.140789874E-2,1.445203673E-2
1.270359540E0,1.233183080E-3,-8.074869402E-3,1.140789874E-2,1.403083782E-2
1.272805426E0,3.676641965E-3,-7.464003749E-3,1.385135762E-2,1.615825350E-2
1.275250478E0,1.844047802E-3,-9.296596982E-3,1.446222235E-2,1.729112787E-2
1.277694748E0,4.898371175E-3,-8.685733192E-3,1.629481651E-2,1.910384899E-2
1.280139801E0,6.120100617E-3,-1.235092152E-2,1.690568030E-2,2.181290720E-2
1.282585634E0,5.509235896E-3,-1.296178717E-2,1.934913918E-2,2.393217069E-2
1.285030686E0,7.952694781E-3,-1.601610892E-2,2.179259807E-2,2.819004132E-2
1.287474957E0,6.730965339E-3,-1.723783836E-2,2.057087049E-2,2.766965266E-2
1.289920009E0,9.174424224E-3,-1.601610892E-2,2.240346372E-2,2.902759017E-2
1.292365894E0,7.341830060E-3,-1.784870401E-2,2.118173428E-2,2.865562023E-2
1.294810946E0,1.222874783E-2,-1.662697271E-2,2.240346372E-2,3.046167562E-2
1.297255217E0,1.161788311E-2,-1.601610892E-2,2.240346372E-2,2.988990029E-2
1.299700269E0,9.174424224E-3,-1.418351475E-2,2.240346372E-2,2.805810644E-2
1.302146103E0,1.222874783E-2,-1.174005587E-2,2.118173428E-2,2.713000281E-2
1.304591155E0,1.161788311E-2,-9.296596982E-3,1.934913918E-2,2.440883263E-2
1.307035426E0,1.161788311E-2,-6.853138097E-3,1.934913918E-2,2.358664658E-2
1.309480478E0,1.161788311E-2,-4.409679212E-3,1.690568030E-2,2.098148005E-2
1.311926363E0,1.161788311E-2,-3.187951399E-3,1.507308707E-2,1.929601502E-2
1.314371415E0,1.222874783E-2,-2.577085746E-3,1.446222235E-2,1.911385674E-2
1.316815634E0,1.222874783E-2,-2.577085746E-3,1.324049290E-2,1.820698483E-2
1.319260738E0,1.222874783E-2,-1.966220094E-3,1.079703402E-2,1.643119711E-2
1.321706571E0,1.283961255E-2,-1.966220094E-3,9.575304575E-3,1.613716610E-2
1.324151623E0,1.406134106E-2,-2.577085746E-3,8.353575133E-3,1.655732167E-2
1.326595894E0,1.467220671E-2,-3.187951399E-3,7.742710412E-3,1.689337884E-2
1.329040946E0,1.345047727E-2,-5.631410517E-3,5.910116248E-3,1.573396318E-2
1.331486780E0,1.406134106E-2,-5.631410517E-3,5.299251527E-3,1.604731017E-2
1.333931884E0,1.467220671E-2,-6.853138097E-3,5.299251527E-3,1.703881505E-2
1.336376103E0,1.528307237E-2,-8.685733192E-3,4.077522084E-3,1.804551048E-2
1.338821207E0,1.650479995E-2,-7.464003749E-3,4.077522084E-3,1.856733582E-2
1.341267040E0,1.589393616E-2,-7.464003749E-3,2.855792642E-3,1.779000029E-2
1.343712092E0,1.467220671E-2,-7.464003749E-3,2.855792642E-3,1.670749992E-2
1.346156363E0,1.406134106E-2,-8.074869402E-3,1.023198478E-3,1.624720787E-2
1.348601415E0,1.100701839E-2,-8.685733192E-3,1.634063199E-3,1.411618140E-2
1.351047248E0,1.283961255E-2,-1.174005587E-2,2.244927920E-3,1.754207125E-2
1.353492353E0,1.222874783E-2,-1.235092152E-2,1.634063199E-3,1.745731074E-2
1.355936571E0,1.100701839E-2,-1.357265096E-2,2.244927920E-3,1.761848487E-2
1.358381676E0,9.785288945E-3,-1.296178717E-2,-1.985309646E-4,1.624189709E-2
1.360827509E0,8.563559502E-3,-1.235092152E-2,-1.985309646E-4,1.503060971E-2
1.363272561E0,7.952694781E-3,-1.357265096E-2,1.634063199E-3,1.581557368E-2
1.365716832E0,6.120100617E-3,-1.112919208E-2,1.634063199E-3,1.280565150E-2
1.368161884E0,6.120100617E-3,-1.112919208E-2,1.634063199E-3,1.280565150E-2
1.370607717E0,5.509235896E-3,-1.112919208E-2,2.855792642E-3,1.274229760E-2
1.373052821E0,1.844047802E-3,-1.112919208E-2,2.244927920E-3,1.150213589E-2
1.375497040E0,1.844047802E-3,-1.296178717E-2,2.855792642E-3,1.340014890E-2
1.377942144E0,1.233183080E-3,-1.174005587E-2,3.466657363E-3,1.230314454E-2
1.380387978E0,1.145363785E-5,-1.235092152E-2,2.855792642E-3,1.267678765E-2
1.382833030E0,1.145363785E-5,-1.296178717E-2,3.466657363E-3,1.341736826E-2
1.385277301E0,-5.994110834E-4,-1.418351475E-2,1.023198478E-3,1.423300107E-2
1.387722353E0,6.223183591E-4,-1.540524606E-2,1.634063199E-3,1.550416230E-2
1.390168238E0,-1.210275805E-3,-1.540524606E-2,4.123337567E-4,1.545821441E-2
1.392613290E0,-1.210275805E-3,-1.540524606E-2,1.023198478E-3,1.548655251E-2
1.395057509E0,-5.994110834E-4,-1.601610892E-2,4.123337567E-4,1.603262479E-2
1.397502613E0,-5.994110834E-4,-1.357265096E-2,-2.031125594E-3,1.373687078E-2
1.399948446E0,-1.210275805E-3,-1.357265096E-2,-3.863718826E-3,1.416368401E-2
1.402393498E0,-1.821140526E-3,-1.235092152E-2,-5.085448269E-3,1.348048958E-2
1.404837769E0,-1.821140526E-3,-1.051832829E-2,-5.696313921E-3,1.209957747E-2
1.407282821E0,-3.653734690E-3,-8.685733192E-3,-6.307177711E-3,1.133896948E-2
1.409728655E0,-4.264599644E-3,-8.074869402E-3,-6.918043364E-3,1.145642396E-2
1.412173759E0,-5.486329086E-3,-6.242274307E-3,-8.750636131E-3,1.206811618E-2
1.414617978E0,-4.264599644E-3,-5.631410517E-3,-8.139772341E-3,1.077754556E-2
1.417063082E0,-3.042869968E-3,-4.409679212E-3,-9.972365573E-3,1.132044184E-2
1.419508915E0,-3.042869968E-3,-4.409679212E-3,-1.180496067E-2,1.296385069E-2
1.421953967E0,-4.875464365E-3,-4.409679212E-3,-1.180496067E-2,1.351193990E-2
1.424398238E0,-4.264599644E-3,-3.187951399E-3,-1.363755390E-2,1.464010658E-2
1.426843290E0,-4.264599644E-3,-2.577085746E-3,-1.302669011E-2,1.394714438E-2
1.429289123E0,-3.653734690E-3,-1.355358167E-3,-1.302669011E-2,1.359711102E-2
1.431734228E0,-3.653734690E-3,4.772387911E-4,-1.363755390E-2,1.412658524E-2
1.434178446E0,-4.264599644E-3,2.920697676E-3,-1.302669011E-2,1.401470443E-2
1.436623551E0,-6.097193807E-3,6.585883908E-3,-1.363755390E-2,1.632582358E-2
1.439069384E0,-7.318923250E-3,6.585883908E-3,-1.241582446E-2,1.584592065E-2
1.441514436E0,-7.929787971E-3,6.585883908E-3,-1.241582446E-2,1.613716521E-2
1.443958707E0,-6.708058529E-3,9.029342793E-3,-1.241582446E-2,1.675350045E-2
1.446403759E0,-8.540652692E-3,9.640208445E-3,-1.180496067E-2,1.747093196E-2
1.448849644E0,-1.037324686E-2,9.640208445E-3,-9.972365573E-3,1.732010232E-2
1.451294696E0,-1.098411158E-2,9.640208445E-3,-8.750636131E-3,1.703402356E-2
1.453738967E0,-1.098411158E-2,7.807615213E-3,-8.750636131E-3,1.606808001E-2
1.456184019E0,-1.220584102E-2,7.196749561E-3,-8.139772341E-3,1.634110318E-2
1.458629853E0,-1.098411158E-2,4.753290676E-3,-5.696313921E-3,1.325490368E-2
1.461074905E0,-1.281670574E-2,2.309832023E-3,-6.918043364E-3,1.474661297E-2
1.463519176E0,-1.342756953E-2,-7.444925141E-4,-5.085448269E-3,1.437761026E-2
1.465964228E0,-1.220584102E-2,-4.409679212E-3,-4.474584479E-3,1.372769944E-2
1.468410113E0,-1.159497630E-2,-5.631410517E-3,-5.696313921E-3,1.409270209E-2
1.470855165E0,-1.037324686E-2,-8.074869402E-3,-3.252855036E-3,1.354211328E-2
1.473299436E0,-8.540652692E-3,-8.685733192E-3,-2.641989384E-3,1.246454241E-2
1.475744488E0,-7.318923250E-3,-1.112919208E-2,-3.863718826E-3,1.386917002E-2
1.478190321E0,-7.318923250E-3,-1.418351475E-2,-4.474584479E-3,1.657590524E-2
1.480635373E0,-6.097193807E-3,-1.418351475E-2,-5.085448269E-3,1.625452697E-2
1.483079644E0,-6.097193807E-3,-1.479438040E-2,-5.085448269E-3,1.679021286E-2
1.485524696E0,-6.097193807E-3,-1.357265096E-2,-6.918043364E-3,1.640889851E-2
1.487970582E0,-6.708058529E-3,-1.296178717E-2,-6.307177711E-3,1.589925994E-2
1.490415634E0,-6.708058529E-3,-1.112919208E-2,-7.528907154E-3,1.501803610E-2
1.492859905E0,-6.708058529E-3,-7.464003749E-3,-8.750636131E-3,1.331476751E-2
1.495304957E0,-7.929787971E-3,-4.409679212E-3,-1.119409502E-2,1.440953057E-2
1.497750790E0,-6.708058529E-3,-7.444925141E-4,-1.241582446E-2,1.413170249E-2
1.500195842E0,-8.540652692E-3,3.531559603E-3,-1.302669011E-2,1.597214190E-2
1.502640113E0,-8.540652692E-3,6.585883908E-3,-1.485928334E-2,1.836068944E-2
1.505085165E0,-8.540652692E-3,1.025107410E-2,-1.791360788E-2,2.233662051E-2
1.507531051E0,-1.037324686E-2,1.208366733E-2,-1.913533732E-2,2.489538915E-2
1.509976103E0,-1.281670574E-2,1.635972038E-2,-2.035706677E-2,2.909155486E-2
1.512420373E0,-1.220584102E-2,2.124663815E-2,-2.096793056E-2,3.224990387E-2
1.514865426E0,-1.342756953E-2,2.735528722E-2,-2.280052565E-2,3.805884040E-2
1.517311259E0,-1.220584102E-2,3.224220127E-2,-2.402225323E-2,4.201917119E-2
1.519756363E0,-1.342756953E-2,3.651826084E-2,-2.524398454E-2,4.638040269E-2
1.522200582E0,-1.342756953E-2,3.957258165E-2,-2.585484646E-2,4.914022718E-2
1.524645686E0,-1.342756953E-2,4.018344730E-2,-2.646571212E-2,4.995440900E-2
1.527091519E0,-1.403843518E-2,4.140517116E-2,-2.646571212E-2,5.110674886E-2
1.529536571E0,-1.464930084E-2,4.079431295E-2,-2.707657777E-2,5.110693738E-2
1.531980842E0,-1.526016463E-2,4.018344730E-2,-2.768744342E-2,5.112901901E-2
1.534425894E0,-1.526016463E-2,4.201603681E-2,-2.707657777E-2,5.226242472E-2
1.536871780E0,-1.526016463E-2,4.201603681E-2,-2.585484646E-2,5.164003349E-2
1.539316832E0,-1.587102748E-2,4.445949942E-2,-2.585484646E-2,5.382387656E-2
1.541761103E0,-1.526016463E-2,4.507036507E-2,-2.524398454E-2,5.386528741E-2
1.544206155E0,-1.709275879E-2,4.751382023E-2,-2.524398454E-2,5.645338140E-2
1.546651988E0,-1.526016463E-2,4.995728284E-2,-2.402225323E-2,5.749496833E-2
1.549097040E0,-1.648189314E-2,5.240073800E-2,-2.157879621E-2,5.901808698E-2
1.551541311E0,-1.464930084E-2,5.117900670E-2,-1.974620298E-2,5.677856350E-2
1.553986363E0,-1.403843518E-2,4.995728284E-2,-1.791360788E-2,5.489722323E-2
1.556432248E0,-1.403843518E-2,4.690295458E-2,-1.791360788E-2,5.213311959E-2
1.558877301E0,-1.159497630E-2,4.201603681E-2,-1.669187844E-2,4.667343602E-2
1.561321571E0,-9.762382135E-3,3.712911904E-2,-1.730274409E-2,4.211010020E-2
1.563766623E0,-7.929787971E-3,3.285306692E-2,-1.669187844E-2,3.769382375E-2
1.566212457E0,-7.318923250E-3,2.735528722E-2,-1.669187844E-2,3.287091697E-2
1.568657509E0,-6.708058529E-3,2.307923138E-2,-1.608101279E-2,2.891795191E-2
1.571101780E0,-7.318923250E-3,2.063577622E-2,-1.669187844E-2,2.753217579E-2
1.573546884E0,-6.708058529E-3,1.880317926E-2,-1.669187844E-2,2.602261335E-2
1.575992717E0,-9.151517414E-3,1.819231361E-2,-1.730274409E-2,2.672256534E-2
1.578437769E0,-9.151517414E-3,1.758145168E-2,-1.669187844E-2,2.591286399E-2
1.580882040E0,-9.762382135E-3,1.819231361E-2,-1.669187844E-2,2.654963626E-2
1.583327092E0,-1.159497630E-2,1.819231361E-2,-1.791360788E-2,2.804106091E-2
1.585772926E0,-1.342756953E-2,1.819231361E-2,-1.791360788E-2,2.884713583E-2
1.588218030E0,-1.281670574E-2,1.819231361E-2,-1.852447167E-2,2.895486611E-2
1.590662248E0,-1.159497630E-2,1.513799187E-2,-1.730274409E-2,2.574853833E-2
1.593107353E0,-1.098411158E-2,1.330539491E-2,-1.852447167E-2,2.531482355E-2
1.595553186E0,-1.159497630E-2,1.147280168E-2,-1.852447167E-2,2.468247768E-2
1.597998238E0,-1.220584102E-2,9.640208445E-3,-1.852447167E-2,2.418826626E-2
1.600442509E0,-1.159497630E-2,6.585883908E-3,-1.791360788E-2,2.233192086E-2
1.602887561E0,-1.098411158E-2,5.364156328E-3,-1.791360788E-2,2.168691374E-2
1.605333446E0,-1.037324686E-2,4.142425023E-3,-1.852447167E-2,2.163145825E-2
1.607778498E0,-9.762382135E-3,2.309832023E-3,-1.547014900E-2,1.843813816E-2
1.610222769E0,-9.151517414E-3,2.309832023E-3,-1.608101279E-2,1.864630170E-2
1.612667821E0,-9.762382135E-3,1.698966371E-3,-1.730274409E-2,1.993929650E-2
1.615113655E0,-9.151517414E-3,2.309832023E-3,-1.730274409E-2,1.970965621E-2
1.617558707E0,-9.762382135E-3,2.920697676E-3,-1.547014900E-2,1.852458069E-2
1.620002978E0,-8.540652692E-3,2.309832023E-3,-1.547014900E-2,1.782143603E-2
1.622448030E0,-7.318923250E-3,4.772387911E-4,-1.547014900E-2,1.712074485E-2
1.624893915E0,-7.929787971E-3,1.088104444E-3,-1.547014900E-2,1.741812328E-2
1.627338967E0,-6.708058529E-3,-7.444925141E-4,-1.608101279E-2,1.743993379E-2
1.629783238E0,-5.486329086E-3,-1.355358167E-3,-1.485928334E-2,1.589764461E-2
1.632228290E0,-4.264599644E-3,-1.966220094E-3,-1.302669011E-2,1.384729168E-2
1.634674123E0,-3.653734690E-3,-3.798815189E-3,-1.241582446E-2,1.348827161E-2
1.637119228E0,-3.653734690E-3,-3.798815189E-3,-1.058323123E-2,1.182309423E-2
1.639563498E0,-1.821140526E-3,-5.631410517E-3,-8.139772341E-3,1.006405639E-2
1.642008551E0,-1.821140526E-3,-7.464003749E-3,-6.918043364E-3,1.033862799E-2
1.644454384E0,1.145363785E-5,-8.074869402E-3,-4.474584479E-3,9.231768698E-3
1.646899436E0,1.145363785E-5,-1.051832829E-2,-1.420259941E-3,1.061378818E-2
1.649343707E0,1.844047802E-3,-1.479438040E-2,-8.093961515E-4,1.493081799E-2
1.651788759E0,6.223183591E-4,-1.601610892E-2,4.123337567E-4,1.603349756E-2
1.654234644E0,1.233183080E-3,-1.723783836E-2,2.244927920E-3,1.742709136E-2
1.656679696E0,2.454912523E-3,-2.029216290E-2,2.244927920E-3,2.056302925E-2
1.659123967E0,3.065777244E-3,-2.273562178E-2,4.077522084E-3,2.330093720E-2
1.661569019E0,4.287506454E-3,-2.273562178E-2,2.244927920E-3,2.324501905E-2
1.664014853E0,6.120100617E-3,-2.334648557E-2,2.855792642E-3,2.430369461E-2
1.666459957E0,4.898371175E-3,-2.273562178E-2,2.244927920E-3,2.336540689E-2
1.668904176E0,6.120100617E-3,-2.212475613E-2,1.634063199E-3,2.301370522E-2
1.671349280E0,4.898371175E-3,-2.151389048E-2,4.123337567E-4,2.206833801E-2
1.673795113E0,3.676641965E-3,-1.907043159E-2,-1.420259941E-3,1.947347415E-2
1.676240165E0,3.676641965E-3,-1.784870401E-2,-2.031125594E-3,1.833628649E-2
1.678684436E0,3.676641965E-3,-1.662697271E-2,-5.085448269E-3,1.777176698E-2
1.681129488E0,4.287506454E-3,-1.540524606E-2,-7.528907154E-3,1.767452292E-2
1.683575373E0,4.287506454E-3,-1.112919208E-2,-8.139772341E-3,1.443944326E-2
1.686020426E0,3.676641965E-3,-1.051832829E-2,-1.058323123E-2,1.536742364E-2
1.688464696E0,2.454912523E-3,-6.853138097E-3,-1.302669011E-2,1.492269254E-2
1.690909748E0,1.145363785E-5,-5.020544864E-3,-1.424841955E-2,1.510706661E-2
1.693355582E0,-1.210275805E-3,-2.577085746E-3,-1.547014900E-2,1.572996022E-2
1.695800634E0,-3.042869968E-3,1.088104444E-3,-1.730274409E-2,1.760193120E-2
1.698244905E0,-4.875464365E-3,5.975021981E-3,-1.852447167E-2,2.006556979E-2
1.700689957E0,-6.097193807E-3,7.196749561E-3,-1.791360788E-2,2.024515557E-2
1.703135842E0,-7.318923250E-3,9.029342793E-3,-1.791360788E-2,2.135399298E-2
1.705580894E0,-1.037324686E-2,1.269453298E-2,-1.791360788E-2,2.428276684E-2
1.708025165E0,-1.098411158E-2,1.269453298E-2,-1.608101279E-2,2.324652333E-2
1.710470217E0,-1.159497630E-2,1.513799187E-2,-1.547014900E-2,2.455458782E-2
1.712916103E0,-1.098411158E-2,1.513799187E-2,-1.424841955E-2,2.351227264E-2
1.715361155E0,-1.159497630E-2,1.574885845E-2,-1.424841955E-2,2.419684851E-2
1.717805426E0,-1.159497630E-2,1.574885845E-2,-1.058323123E-2,2.223678936E-2
1.720250478E0,-1.220584102E-2,1.574885845E-2,-9.972365573E-3,2.228131892E-2
1.722696311E0,-1.342756953E-2,1.697058603E-2,-1.058323123E-2,2.408952463E-2
1.725141363E0,-1.281670574E-2,1.819231361E-2,-8.750636131E-3,2.391237866E-2
1.727585634E0,-1.159497630E-2,2.002491057E-2,-6.918043364E-3,2.415160124E-2
1.730030738E0,-1.159497630E-2,2.246836945E-2,-4.474584479E-3,2.567670165E-2
1.732476571E0,-1.098411158E-2,2.491182834E-2,-5.696313921E-3,2.781542541E-2
1.734921623E0,-1.220584102E-2,2.552269399E-2,-5.696313921E-3,2.885894066E-2
1.737365894E0,-1.220584102E-2,2.491182834E-2,-6.307177711E-3,2.844929238E-2
1.739810946E0,-1.098411158E-2,2.552269399E-2,-6.307177711E-3,2.849279043E-2
1.742256832E0,-1.281670574E-2,2.430096269E-2,-6.918043364E-3,2.833132643E-2
1.744701884E0,-1.220584102E-2,2.124663815E-2,-6.918043364E-3,2.546098018E-2
1.747146155E0,-1.342756953E-2,2.124663815E-2,-6.307177711E-3,2.591331215E-2
1.749591207E0,-1.342756953E-2,2.063577622E-2,-5.085448269E-3,2.513954391E-2
1.752037040E0,-1.403843518E-2,1.819231361E-2,-5.085448269E-3,2.353507427E-2
1.754482092E0,-1.464930084E-2,1.635972038E-2,-3.863718826E-3,2.229732695E-2
1.756926363E0,-1.220584102E-2,1.269453298E-2,-4.474584479E-3,1.817018516E-2
1.759371467E0,-1.220584102E-2,7.196749561E-3,-2.031125594E-3,1.431437146E-2
1.761817301E0,-1.098411158E-2,4.142425023E-3,-1.420259941E-3,1.182486915E-2
1.764262353E0,-1.220584102E-2,-1.336268615E-4,-2.031125594E-3,1.237440432E-2
1.766706623E0,-9.151517414E-3,-6.242274307E-3,4.123337567E-4,1.108540836E-2
1.769151676E0,-6.708058529E-3,-1.296178717E-2,4.123337567E-4,1.460054776E-2
1.771597561E0,-6.097193807E-3,-1.968129724E-2,4.123337567E-4,2.060823264E-2
1.774042613E0,-3.653734690E-3,-2.762253955E-2,-1.985309646E-4,2.786384544E-2
1.776486884E0,1.145363785E-5,-3.189859167E-2,4.123337567E-4,3.190125861E-2
1.778931936E0,1.844047802E-3,-3.983983397E-2,1.634063199E-3,3.991594977E-2
1.781377769E0,1.844047802E-3,-4.411588609E-2,1.023198478E-3,4.416626374E-2
1.783822821E0,3.676641965E-3,-4.900280386E-2,1.023198478E-3,4.915118938E-2
1.786267092E0,4.287506454E-3,-5.327885598E-2,1.023198478E-3,5.346088422E-2
1.788712196E0,4.287506454E-3,-5.327885598E-2,4.123337567E-4,5.345268211E-2
1.791158030E0,5.509235896E-3,-5.388972163E-2,4.123337567E-4,5.417216810E-2
1.793603082E0,6.730965339E-3,-5.450058728E-2,-1.985309646E-4,5.491501910E-2
1.796047353E0,7.952694781E-3,-5.511144921E-2,-1.985309646E-4,5.568264185E-2
1.798492405E0,6.730965339E-3,-5.327885598E-2,1.023198478E-3,5.371209663E-2
1.800938290E0,7.952694781E-3,-5.083539709E-2,1.634063199E-3,5.147963786E-2
1.803383342E0,7.341830060E-3,-5.083539709E-2,3.466657363E-3,5.147968317E-2
1.805827613E0,6.730965339E-3,-4.961366951E-2,4.077522084E-3,5.023393558E-2
1.808272665E0,6.730965339E-3,-4.472675174E-2,5.299251527E-3,4.553976595E-2
1.810718498E0,5.509235896E-3,-4.472675174E-2,7.131845690E-3,4.562562027E-2
1.813163603E0,6.730965339E-3,-4.289415851E-2,7.742710412E-3,4.410401675E-2
1.815607873E0,6.730965339E-3,-4.167242721E-2,8.353575133E-3,4.303114339E-2
1.818052926E0,5.509235896E-3,-4.045069590E-2,1.079703402E-2,4.222779207E-2
1.820498759E0,6.120100617E-3,-4.045069590E-2,1.201876346E-2,4.263994730E-2
1.822943811E0,6.730965339E-3,-3.861810267E-2,1.201876346E-2,4.100139538E-2
1.825388082E0,6.120100617E-3,-3.922896832E-2,1.507308707E-2,4.246840639E-2
1.827833134E0,5.509235896E-3,-4.106156155E-2,1.507308707E-2,4.408629573E-2
1.830279019E0,4.898371175E-3,-4.106156155E-2,1.568395272E-2,4.422705338E-2
1.832724071E0,4.898371175E-3,-3.983983397E-2,1.446222235E-2,4.266570387E-2
1.835168342E0,4.898371175E-3,-3.861810267E-2,1.690568030E-2,4.244000377E-2
1.837613394E0,6.730965339E-3,-3.861810267E-2,1.751654595E-2,4.293591888E-2
1.840059228E0,6.120100617E-3,-3.983983397E-2,1.690568030E-2,4.370892391E-2
1.842504332E0,5.509235896E-3,-3.861810267E-2,1.690568030E-2,4.251483930E-2
1.844948603E0,4.287506454E-3,-3.617464378E-2,1.629481651E-2,3.990624775E-2
1.847393655E0,5.509235896E-3,-3.617464378E-2,1.507308707E-2,3.957466976E-2
1.849839488E0,3.065777244E-3,-3.556377813E-2,1.385135762E-2,3.828892024E-2
1.852284540E0,3.065777244E-3,-3.250945732E-2,1.324049290E-2,3.523598243E-2
1.854728811E0,1.233183080E-3,-3.128772601E-2,1.140789874E-2,3.332540612E-2
1.857173863E0,2.454912523E-3,-2.945513278E-2,1.018616930E-2,3.126322900E-2
1.859619748E0,1.233183080E-3,-2.701167390E-2,8.964439854E-3,2.848705757E-2
1.862064801E0,1.233183080E-3,-2.212475613E-2,7.131845690E-3,2.327850505E-2
1.864509071E0,-5.994110834E-4,-1.845956780E-2,5.910116248E-3,1.939186456E-2
1.866954123E0,-3.653734690E-3,-1.235092152E-2,4.688386805E-3,1.370678702E-2
1.869400009E0,-2.432005247E-3,-9.296596982E-3,4.077522084E-3,1.043875238E-2
1.871845061E0,-4.875464365E-3,-6.242274307E-3,4.077522084E-3,8.908553622E-3
1.874289332E0,-5.486329086E-3,-4.409679212E-3,2.244927920E-3,7.388151254E-3
1.876734384E0,-6.097193807E-3,-3.187951399E-3,4.123337567E-4,6.892664621E-3
1.879180217E0,-7.929787971E-3,-1.355358167E-3,-8.093961515E-4,8.085397650E-3
1.881625321E0,-8.540652692E-3,1.088104444E-3,-1.420259941E-3,8.726044808E-3
1.884069592E0,-7.318923250E-3,2.920697676E-3,-2.641989384E-3,8.311270682E-3
1.886514644E0,-6.708058529E-3,4.142425023E-3,-3.863718826E-3,8.779866597E-3
1.888960478E0,-6.708058529E-3,4.753290676E-3,-4.474584479E-3,9.360220496E-3
1.891405530E0,-6.097193807E-3,4.753290676E-3,-5.696313921E-3,9.602996244E-3
1.893849801E0,-6.708058529E-3,2.920697676E-3,-7.528907154E-3,1.049823638E-2
1.896294853E0,-7.929787971E-3,4.753290676E-3,-7.528907154E-3,1.192307647E-2
1.898740738E0,-8.540652692E-3,4.142425023E-3,-6.918043364E-3,1.174571230E-2
1.901185790E0,-7.318923250E-3,2.309832023E-3,-7.528907154E-3,1.075111178E-2
1.903630061E0,-7.929787971E-3,2.920697676E-3,-8.139772341E-3,1.173319675E-2
1.906075113E0,-7.929787971E-3,2.920697676E-3,-8.139772341E-3,1.173319675E-2
1.908520998E0,-7.929787971E-3,4.142425023E-3,-8.139772341E-3,1.209533448E-2
1.910966051E0,-7.929787971E-3,4.142425023E-3,-7.528907154E-3,1.169297504E-2
1.913410321E0,-6.097193807E-3,2.920697676E-3,-5.696313921E-3,8.840488648E-3
1.915855373E0,-7.318923250E-3,2.920697676E-3,-6.307177711E-3,1.009344357E-2
1.918301207E0,-6.097193807E-3,1.698966371E-3,-4.474584479E-3,7.751397636E-3
1.920746259E0,-5.486329086E-3,4.772387911E-4,-3.252855036E-3,6.395985428E-3
1.923190530E0,-4.264599644E-3,-1.966220094E-3,-3.252855036E-3,5.712608639E-3
1.925635634E0,-3.042869968E-3,-3.798815189E-3,-3.252855036E-3,5.854154112E-3
1.928081467E0,-5.994110834E-4,-2.577085746E-3,-2.031125594E-3,3.335586271E-3
1.930526519E0,6.223183591E-4,-4.409679212E-3,-1.420259941E-3,4.674365111E-3
1.932970790E0,6.223183591E-4,-3.798815189E-3,4.123337567E-4,3.871472085E-3
1.935415842E0,1.145363785E-5,-4.409679212E-3,-1.985309646E-4,4.414160903E-3
1.937861728E0,1.844047802E-3,-5.631410517E-3,-1.985309646E-4,5.928972191E-3
1.940306780E0,2.454912523E-3,-7.464003749E-3,-8.093961515E-4,7.898928383E-3
1.942751051E0,2.454912523E-3,-9.296596982E-3,4.123337567E-4,9.624101520E-3
1.945196103E0,1.844047802E-3,-9.296596982E-3,-1.985309646E-4,9.479801806E-3
1.947641988E0,1.233183080E-3,-9.296596982E-3,-1.985309646E-4,9.380131688E-3
1.950087040E0,1.233183080E-3,-9.907462634E-3,-2.031125594E-3,1.018842616E-2
1.952531311E0,1.145363785E-5,-8.685733192E-3,-2.641989384E-3,9.078667312E-3
1.954976363E0,1.145363785E-5,-6.853138097E-3,-3.863718826E-3,7.867271199E-3
1.957422196E0,1.233183080E-3,-4.409679212E-3,-3.863718826E-3,5.991188065E-3
1.959867248E0,-5.994110834E-4,-3.187951399E-3,-5.085448269E-3,6.031924391E-3
1.962311519E0,-1.210275805E-3,-1.355358167E-3,-6.918043364E-3,7.152697901E-3
1.964756571E0,-1.821140526E-3,-1.966220094E-3,-6.918043364E-3,7.419022729E-3
1.967202457E0,-3.653734690E-3,-7.444925141E-4,-8.139772341E-3,8.953208366E-3
1.969647509E0,-2.432005247E-3,-1.355358167E-3,-9.361501783E-3,9.766747714E-3
1.972091780E0,-3.042869968E-3,-3.187951399E-3,-1.058323123E-2,1.146415609E-2
1.974536832E0,-4.875464365E-3,-3.187951399E-3,-9.972365573E-3,1.154908057E-2
1.976982717E0,-4.875464365E-3,-3.187951399E-3,-9.972365573E-3,1.154908057E-2
1.979427769E0,-4.875464365E-3,-7.464003749E-3,-8.750636131E-3,1.249220307E-2
1.981872040E0,-5.486329086E-3,-9.296596982E-3,-9.361501783E-3,1.428860518E-2
1.984317092E0,-5.486329086E-3,-1.051832829E-2,-8.750636131E-3,1.474139306E-2
1.986762978E0,-4.264599644E-3,-1.296178717E-2,-6.918043364E-3,1.529882547E-2
1.989208030E0,-3.042869968E-3,-1.540524606E-2,-7.528907154E-3,1.741450851E-2
1.991652301E0,-3.042869968E-3,-1.723783836E-2,-7.528907154E-3,1.905483067E-2
1.994097353E0,-1.821140526E-3,-1.601610892E-2,-6.307177711E-3,1.730932663E-2
1.996543186E0,-5.994110834E-4,-1.540524606E-2,-6.307177711E-3,1.665717234E-2
1.998988238E0,-2.432005247E-3,-1.418351475E-2,-7.528907154E-3,1.624103393E-2
2.001432509E0,-1.210275805E-3,-1.357265096E-2,-8.139772341E-3,1.587253966E-2
2.003877613E0,-1.821140526E-3,-1.235092152E-2,-8.139772341E-3,1.490361396E-2
2.006323446E0,-5.994110834E-4,-1.051832829E-2,-8.139772341E-3,1.331354263E-2
2.008768498E0,-1.210275805E-3,-9.296596982E-3,-9.972365573E-3,1.368720417E-2
2.011212769E0,-2.432005247E-3,-4.409679212E-3,-1.180496067E-2,1.283421274E-2
2.013657821E0,-2.432005247E-3,-3.187951399E-3,-1.241582446E-2,1.304723651E-2
2.016103707E0,-3.042869968E-3,1.698966371E-3,-1.424841955E-2,1.466843564E-2
2.018548759E0,-2.432005247E-3,4.753290676E-3,-1.608101279E-2,1.694424368E-2
2.020993030E0,-3.042869968E-3,7.196749561E-3,-1.730274409E-2,1.898518409E-2
2.023438082E0,-3.653734690E-3,1.086193975E-2,-1.730274409E-2,2.075370968E-2
2.025883967E0,-4.264599644E-3,1.269453298E-2,-1.913533732E-2,2.335592242E-2
2.028329019E0,-4.264599644E-3,1.635972038E-2,-1.974620298E-2,2.599499554E-2
2.030773290E0,-3.653734690E-3,2.063577622E-2,-1.974620298E-2,2.879405441E-2
2.033218342E0,-4.875464365E-3,2.124663815E-2,-2.096793056E-2,3.024638651E-2
2.035664176E0,-4.875464365E-3,2.430096269E-2,-1.974620298E-2,3.168942209E-2
2.038109228E0,-6.097193807E-3,2.552269399E-2,-2.096793056E-2,3.358925115E-2
2.040553498E0,-6.097193807E-3,2.857701480E-2,-1.913533732E-2,3.492825048E-2
2.042998603E0,-7.318923250E-3,3.040961176E-2,-1.730274409E-2,3.574487485E-2
2.045444436E0,-7.929787971E-3,3.285306692E-2,-1.547014900E-2,3.716895281E-2
2.047889488E0,-7.318923250E-3,3.163133562E-2,-1.058323123E-2,3.414839401E-2
2.050333759E0,-9.762382135E-3,3.102047741E-2,-9.361501783E-3,3.384097870E-2
2.052778811E0,-9.151517414E-3,3.102047741E-2,-6.918043364E-3,3.307385091E-2
2.055224696E0,-9.151517414E-3,2.796614915E-2,-4.474584479E-3,2.976369728E-2
2.057669748E0,-8.540652692E-3,2.674442157E-2,-2.641989384E-3,2.819905923E-2
2.060114019E0,-9.762382135E-3,2.369009703E-2,-1.420259941E-3,2.566207203E-2
2.062559071E0,-7.318923250E-3,2.063577622E-2,-1.420259941E-3,2.194126332E-2
2.065004957E0,-6.708058529E-3,1.635972038E-2,1.023198478E-3,1.771116696E-2
2.067450009E0,-7.318923250E-3,1.208366733E-2,1.634063199E-3,1.422152651E-2
2.069894280E0,-6.097193807E-3,9.640208445E-3,2.855792642E-3,1.175861143E-2
2.072339332E0,-5.486329086E-3,6.585883908E-3,2.855792642E-3,9.034889335E-3
2.074785165E0,-4.264599644E-3,4.753290676E-3,4.688386805E-3,7.922218957E-3
2.077230269E0,-4.264599644E-3,3.531559603E-3,6.520980969E-3,8.554642959E-3
2.079674540E0,-2.432005247E-3,2.920697676E-3,6.520980969E-3,7.547735901E-3
2.082119592E0,-1.821140526E-3,2.920697676E-3,6.520980969E-3,7.373616516E-3
2.084565426E0,-1.821140526E-3,2.309832023E-3,8.353575133E-3,8.856302518E-3
2.087010478E0,-1.821140526E-3,4.753290676E-3,9.575304575E-3,1.084420503E-2
2.089454748E0,-1.210275805E-3,7.196749561E-3,9.575304575E-3,1.203928692E-2
2.091899853E0,-1.210275805E-3,6.585883908E-3,8.964439854E-3,1.118927237E-2
2.094345686E0,-1.210275805E-3,5.975021981E-3,8.964439854E-3,1.084097953E-2
2.096790738E0,-1.821140526E-3,6.585883908E-3,7.742710412E-3,1.032666375E-2
2.099235009E0,-5.994110834E-4,7.196749561E-3,7.742710412E-3,1.058782614E-2
2.101680061E0,-5.994110834E-4,7.196749561E-3,6.520980969E-3,9.730143405E-3
2.104125946E0,1.145363785E-5,3.531559603E-3,2.855792642E-3,4.541761336E-3
2.106570998E0,6.223183591E-4,1.088104444E-3,4.123337567E-4,1.319572108E-3
2.109015269E0,1.844047802E-3,-2.577085746E-3,-2.641989384E-3,4.125771582E-3
2.111460321E0,3.065777244E-3,-2.577085746E-3,-4.474584479E-3,6.005186701E-3
2.113906155E0,4.287506454E-3,-4.409679212E-3,-5.085448269E-3,7.980586848E-3
2.116351259E0,4.898371175E-3,-3.798815189E-3,-6.918043364E-3,9.288937560E-3
2.118795530E0,6.730965339E-3,-3.798815189E-3,-8.139772341E-3,1.122465077E-2
2.121240582E0,7.952694781E-3,-2.577085746E-3,-7.528907154E-3,1.125038524E-2
2.123686415E0,7.341830060E-3,-2.577085746E-3,-7.528907154E-3,1.082720105E-2
2.126131519E0,6.730965339E-3,-1.966220094E-3,-7.528907154E-3,1.028865194E-2
2.128575738E0,7.341830060E-3,-1.966220094E-3,-8.139772341E-3,1.113662354E-2
2.131020842E0,8.563559502E-3,-3.798815189E-3,-6.307177711E-3,1.129362824E-2
2.133466676E0,7.341830060E-3,-5.631410517E-3,-5.085448269E-3,1.055826866E-2
2.135911728E0,7.952694781E-3,-8.074869402E-3,-2.031125594E-3,1.151409316E-2
2.138355998E0,9.174424224E-3,-1.051832829E-2,-3.252855036E-3,1.433130684E-2
2.140801051E0,1.039615367E-2,-1.174005587E-2,-3.252855036E-3,1.601530483E-2
2.143246936E0,1.039615367E-2,-1.479438040E-2,-1.420259941E-3,1.813755333E-2
2.145691988E0,1.283961255E-2,-1.723783836E-2,4.123337567E-4,2.149811017E-2
2.148136259E0,1.467220671E-2,-2.029216290E-2,4.123337567E-4,2.504427168E-2
2.150581311E0,1.467220671E-2,-2.334648557E-2,1.023198478E-3,2.759309648E-2
2.153027196E0,1.528307237E-2,-2.701167390E-2,2.855792642E-3,3.116662284E-2
2.155472248E0,1.772653125E-2,-3.006599844E-2,2.855792642E-3,3.501927646E-2
2.157916519E0,1.650479995E-2,-3.312032297E-2,3.466657363E-3,3.716694672E-2
2.160361571E0,1.833739504E-2,-3.373118490E-2,5.910116248E-3,3.884562222E-2
2.162807457E0,1.833739504E-2,-3.312032297E-2,5.910116248E-3,3.831638455E-2
2.165252509E0,1.894825883E-2,-3.189859167E-2,6.520980969E-3,3.767067634E-2
2.167696780E0,1.833739504E-2,-3.067686222E-2,6.520980969E-3,3.632978290E-2
2.170141832E0,1.833739504E-2,-2.823340334E-2,6.520980969E-3,3.429151956E-2
2.172587665E0,1.772653125E-2,-2.578994446E-2,5.910116248E-3,3.184777260E-2
2.175032769E0,1.650479995E-2,-2.151389048E-2,4.688386805E-3,2.751793734E-2
2.177477040E0,1.589393616E-2,-1.968129724E-2,4.688386805E-3,2.572842083E-2
2.179922092E0,1.345047727E-2,-1.784870401E-2,3.466657363E-3,2.261657107E-2
2.182367926E0,1.222874783E-2,-1.479438040E-2,-1.420259941E-3,1.924663875E-2
2.184812978E0,1.039615367E-2,-1.235092152E-2,-4.474584479E-3,1.675252756E-2
2.187257248E0,8.563559502E-3,-1.051832829E-2,-6.307177711E-3,1.495828439E-2
2.189702301E0,7.341830060E-3,-8.074869402E-3,-8.750636131E-3,1.398855308E-2
2.192148186E0,5.509235896E-3,-6.242274307E-3,-9.972365573E-3,1.299098702E-2
2.194593238E0,4.898371175E-3,-3.798815189E-3,-1.180496067E-2,1.333349667E-2
2.197037509E0,3.065777244E-3,4.772387911E-4,-1.363755390E-2,1.398605103E-2
2.199482561E0,3.065777244E-3,3.531559603E-3,-1.363755390E-2,1.441713493E-2
2.201928446E0,1.233183080E-3,7.196749561E-3,-1.547014900E-2,1.710670789E-2
2.204373498E0,-3.042869968E-3,8.418477140E-3,-1.547014900E-2,1.787331321E-2
2.206817769E0,-1.210275805E-3,1.147280168E-2,-1.424841955E-2,1.833323227E-2
2.209262821E0,-4.264599644E-3,1.086193975E-2,-1.485928334E-2,1.889356628E-2
2.211708707E0,-4.875464365E-3,1.391626056E-2,-1.302669011E-2,1.967554614E-2
2.214153759E0,-7.929787971E-3,1.391626056E-2,-1.241582446E-2,2.026564932E-2
2.216598030E0,-8.540652692E-3,1.635972038E-2,-1.119409502E-2,2.158450747E-2
2.219043082E0,-7.318923250E-3,1.758145168E-2,-9.972365573E-3,2.149702668E-2
2.221488915E0,-1.037324686E-2,1.819231361E-2,-1.058323123E-2,2.346421335E-2
2.223934019E0,-9.151517414E-3,1.941404492E-2,-9.972365573E-3,2.366650557E-2
2.226378238E0,-1.220584102E-2,1.880317926E-2,-9.361501783E-3,2.429361688E-2
2.228823342E0,-9.762382135E-3,1.880317926E-2,-8.139772341E-3,2.269624527E-2
2.231269176E0,-1.342756953E-2,1.452712622E-2,-6.918043364E-3,2.095701180E-2
2.233714228E0,-1.342756953E-2,1.391626056E-2,-6.307177711E-3,2.034065934E-2
2.236158498E0,-1.403843518E-2,1.147280168E-2,-6.918043364E-3,1.940520973E-2
2.238603551E0,-1.464930084E-2,1.086193975E-2,-8.139772341E-3,1.997097003E-2
2.241049436E0,-1.281670574E-2,8.418477140E-3,-8.750636131E-3,1.765537697E-2
2.243494488E0,-1.526016463E-2,8.418477140E-3,-9.361501783E-3,1.978335405E-2
2.245938759E0,-1.220584102E-2,7.807615213E-3,-9.972365573E-3,1.758947087E-2
2.248383811E0,-1.464930084E-2,4.142425023E-3,-1.180496067E-2,1.926444384E-2
2.250829696E0,-1.098411158E-2,2.920697676E-3,-1.058323123E-2,1.553016308E-2
2.253274748E0,-1.403843518E-2,1.088104444E-3,-1.180496067E-2,1.837440421E-2
2.255719019E0,-1.159497630E-2,-1.336268615E-4,-1.241582446E-2,1.698864410E-2
2.258164071E0,-1.281670574E-2,-1.966220094E-3,-1.180496067E-2,1.753542312E-2
2.260609957E0,-1.159497630E-2,-4.409679212E-3,-1.180496067E-2,1.712442240E-2
2.263055009E0,-9.151517414E-3,-5.020544864E-3,-1.058323123E-2,1.486475445E-2
2.265499280E0,-9.151517414E-3,-6.853138097E-3,-1.241582446E-2,1.687804698E-2
2.267944332E0,-6.708058529E-3,-6.242274307E-3,-1.119409502E-2,1.446622967E-2
2.270390165E0,-8.540652692E-3,-6.242274307E-3,-9.972365573E-3,1.453811584E-2
2.272835269E0,-5.486329086E-3,-5.020544864E-3,-9.972365573E-3,1.244000614E-2
2.275279540E0,-6.708058529E-3,-6.242274307E-3,-1.058323123E-2,1.399888642E-2
2.277724592E0,-5.486329086E-3,-3.798815189E-3,-8.139772341E-3,1.052552599E-2
2.280170426E0,-6.708058529E-3,-7.464003749E-3,-7.528907154E-3,1.254567033E-2
2.282615478E0,-4.264599644E-3,-9.907462634E-3,-8.750636131E-3,1.388950174E-2
2.285059748E0,-4.264599644E-3,-9.907462634E-3,-6.918043364E-3,1.281420891E-2
2.287504853E0,-5.486329086E-3,-1.174005587E-2,-6.307177711E-3,1.441212022E-2
2.289950686E0,-2.432005247E-3,-1.051832829E-2,-4.474584479E-3,1.168639319E-2
2.292395738E0,-4.264599644E-3,-1.418351475E-2,-3.863718826E-3,1.530644387E-2
2.294840009E0,-1.821140526E-3,-1.296178717E-2,-2.641989384E-3,1.335307408E-2
2.297285113E0,-4.264599644E-3,-1.296178717E-2,-2.641989384E-3,1.389873536E-2
2.299730946E0,-5.486329086E-3,-1.296178717E-2,-8.093961515E-4,1.409832812E-2
2.302175998E0,-3.042869968E-3,-1.112919208E-2,4.123337567E-4,1.154504192E-2
2.304620269E0,-3.042869968E-3,-1.235092152E-2,4.123337567E-4,1.272691397E-2
2.307065321E0,-1.821140526E-3,-1.357265096E-2,1.023198478E-3,1.373245579E-2
2.309511207E0,-2.432005247E-3,-1.235092152E-2,1.634063199E-3,1.269370216E-2
2.311956259E0,-2.432005247E-3,-1.357265096E-2,1.634063199E-3,1.388530396E-2
2.314400530E0,1.145363785E-5,-1.479438040E-2,1.634063199E-3,1.488435371E-2
2.316845582E0,1.145363785E-5,-1.357265096E-2,2.855792642E-3,1.386984271E-2
2.319291467E0,6.223183591E-4,-1.540524606E-2,1.634063199E-3,1.550416230E-2
2.321736519E0,1.233183080E-3,-1.540524606E-2,1.634063199E-3,1.554067274E-2
2.324180790E0,-5.994110834E-4,-1.601610892E-2,1.023198478E-3,1.605994936E-2
2.326625842E0,6.223183591E-4,-1.601610892E-2,1.634063199E-3,1.611127517E-2
2.329071676E0,2.454912523E-3,-1.723783836E-2,4.123337567E-4,1.741664967E-2
2.331516780E0,1.233183080E-3,-1.662697271E-2,4.123337567E-4,1.667773908E-2
2.333960998E0,3.676641965E-3,-1.662697271E-2,-1.985309646E-4,1.702977780E-2
2.336406103E0,2.454912523E-3,-1.540524606E-2,-8.093961515E-4,1.562060574E-2
2.338851936E0,3.065777244E-3,-1.601610892E-2,-8.093961515E-4,1.632696717E-2
2.341296988E0,1.233183080E-3,-1.601610892E-2,-2.031125594E-3,1.619141614E-2
2.343741259E0,1.844047802E-3,-1.601610892E-2,-1.420259941E-3,1.618435650E-2
2.346186363E0,1.844047802E-3,-1.418351475E-2,-2.031125594E-3,1.444638620E-2
2.348632196E0,3.676641965E-3,-1.479438040E-2,-2.031125594E-3,1.537910462E-2
2.351077248E0,1.844047802E-3,-1.357265096E-2,-2.031125594E-3,1.384712380E-2
2.353521519E0,3.065777244E-3,-1.540524606E-2,-1.985309646E-4,1.570859671E-2
2.355966571E0,2.454912523E-3,-1.601610892E-2,1.023198478E-3,1.623543271E-2
2.358412457E0,1.844047802E-3,-1.662697271E-2,2.855792642E-3,1.697092470E-2
2.360857509E0,1.844047802E-3,-1.784870401E-2,5.299251527E-3,1.870985873E-2
2.363301780E0,1.233183080E-3,-1.907043159E-2,8.353575133E-3,2.085627769E-2
2.365746832E0,1.233183080E-3,-2.151389048E-2,1.018616930E-2,2.383539949E-2
2.368192717E0,1.233183080E-3,-2.334648557E-2,1.140789874E-2,2.601382868E-2
2.370637769E0,1.844047802E-3,-2.640080824E-2,1.385135762E-2,2.987077663E-2
2.373082040E0,1.844047802E-3,-2.701167390E-2,1.446222235E-2,3.069506335E-2
2.375527092E0,1.233183080E-3,-2.640080824E-2,1.446222235E-2,3.012771634E-2
2.377972926E0,1.844047802E-3,-2.762253955E-2,1.446222235E-2,3.123397315E-2
2.380418030E0,2.454912523E-3,-2.945513278E-2,1.507308707E-2,3.317874917E-2
2.382862301E0,-1.210275805E-3,-2.884426713E-2,1.568395272E-2,3.285487615E-2
2.385307353E0,-1.821140526E-3,-2.640080824E-2,1.568395272E-2,3.076208058E-2
2.387753186E0,-1.210275805E-3,-2.334648557E-2,1.568395272E-2,2.815154576E-2
2.390198238E0,-5.994110834E-4,-1.907043159E-2,1.324049290E-2,2.322393823E-2
2.392642561E0,-1.210275805E-3,-1.540524606E-2,1.079703402E-2,1.885105613E-2
2.395087613E0,-1.210275805E-3,-1.174005587E-2,9.575304575E-3,1.519803069E-2
2.397533446E0,-1.821140526E-3,-6.853138097E-3,7.742710412E-3,1.049912468E-2
2.399978498E0,-3.042869968E-3,-3.187951399E-3,7.742710412E-3,8.909077185E-3
2.402422769E0,-2.432005247E-3,-1.336268615E-4,6.520980969E-3,6.961012747E-3
2.404867821E0,-4.264599644E-3,2.920697676E-3,6.520980969E-3,8.321086337E-3
2.407313707E0,-3.042869968E-3,2.920697676E-3,5.910116248E-3,7.260785538E-3
2.409758759E0,-1.821140526E-3,5.364156328E-3,7.131845690E-3,9.107905845E-3
2.412203030E0,-1.210275805E-3,3.531559603E-3,7.131845690E-3,8.049838738E-3
2.414648082E0,-2.432005247E-3,4.142425023E-3,5.910116248E-3,7.616023152E-3
2.417093967E0,-2.432005247E-3,3.531559603E-3,5.910116248E-3,7.301783126E-3
2.419539019E0,-5.994110834E-4,2.309832023E-3,5.299251527E-3,5.811771190E-3
2.421983290E0,6.223183591E-4,1.698966371E-3,5.299251527E-3,5.599627989E-3
2.424428342E0,1.145363785E-5,1.088104444E-3,4.077522084E-3,4.220223787E-3
2.426874228E0,6.223183591E-4,-7.444925141E-4,2.855792642E-3,3.016140059E-3
2.429319280E0,1.233183080E-3,-3.187951399E-3,1.634063199E-3,3.788659020E-3
2.431763551E0,3.676641965E-3,-2.577085746E-3,1.023198478E-3,4.604997526E-3
2.434208603E0,4.287506454E-3,-3.187951399E-3,1.023198478E-3,5.439915518E-3
2.436654436E0,4.898371175E-3,-6.853138097E-3,2.244927920E-3,8.717754488E-3
2.439099540E0,4.287506454E-3,-9.296596982E-3,1.023198478E-3,1.028865211E-2
2.441543811E0,6.120100617E-3,-9.907462634E-3,1.023198478E-3,1.169018317E-2
2.443988863E0,6.730965339E-3,-1.235092152E-2,2.244927920E-3,1.424397621E-2
2.446434696E0,7.341830060E-3,-1.723783836E-2,4.123337567E-4,1.874074596E-2
2.448879748E0,7.341830060E-3,-1.845956780E-2,1.023198478E-3,1.989233639E-2
2.451324071E0,6.730965339E-3,-2.090302669E-2,4.123337567E-4,2.196388941E-2
2.453769123E0,6.730965339E-3,-2.273562178E-2,1.023198478E-3,2.373312721E-2
2.456214957E0,5.509235896E-3,-2.395734936E-2,1.023198478E-3,2.460392659E-2
2.458660009E0,6.730965339E-3,-2.334648557E-2,4.123337567E-4,2.430091155E-2
2.461104280E0,6.730965339E-3,-2.334648557E-2,2.855792642E-3,2.446466502E-2
2.463549384E0,7.341830060E-3,-2.395734936E-2,1.023198478E-3,2.507795829E-2
2.465995217E0,7.341830060E-3,-2.395734936E-2,1.023198478E-3,2.507795829E-2
2.468440269E0,6.730965339E-3,-2.212475613E-2,1.023198478E-3,2.314859960E-2
2.470884540E0,5.509235896E-3,-2.456821501E-2,3.466657363E-3,2.541587265E-2
2.473329592E0,5.509235896E-3,-2.517908067E-2,2.244927920E-3,2.587233048E-2
2.475775478E0,4.898371175E-3,-2.517908067E-2,3.466657363E-3,2.588431681E-2
2.478220530E0,6.730965339E-3,-2.640080824E-2,4.688386805E-3,2.764578704E-2
2.480664801E0,7.341830060E-3,-2.701167390E-2,6.520980969E-3,2.874119323E-2
2.483109853E0,6.120100617E-3,-2.578994446E-2,5.910116248E-3,2.715706797E-2
2.485555738E0,8.563559502E-3,-2.640080824E-2,5.910116248E-3,2.837722152E-2
2.488000790E0,8.563559502E-3,-2.640080824E-2,7.742710412E-3,2.881469750E-2
2.490445061E0,8.563559502E-3,-2.456821501E-2,8.964439854E-3,2.751895569E-2
2.492890113E0,8.563559502E-3,-2.090302669E-2,1.018616930E-2,2.477961099E-2
2.495335946E0,7.952694781E-3,-1.907043159E-2,1.018616930E-2,2.303659611E-2
2.497781051E0,8.563559502E-3,-2.029216290E-2,1.140789874E-2,2.480416457E-2
2.500225321E0,1.039615367E-2,-1.845956780E-2,1.140789874E-2,2.406191613E-2
2.502670373E0,1.100701839E-2,-1.601610892E-2,1.079703402E-2,2.223164731E-2
2.505116207E0,1.039615367E-2,-1.418351475E-2,1.201876346E-2,2.130029992E-2
2.507561259E0,1.100701839E-2,-1.235092152E-2,1.201876346E-2,2.044872591E-2
2.510005530E0,1.100701839E-2,-1.174005587E-2,1.201876346E-2,2.008566754E-2
2.512450634E0,1.161788311E-2,-1.112919208E-2,1.140789874E-2,1.972243083E-2
2.514896467E0,1.039615367E-2,-1.051832829E-2,1.079703402E-2,1.831095805E-2
2.517341519E0,1.039615367E-2,-9.296596982E-3,1.079703402E-2,1.763753583E-2
2.519785790E0,1.161788311E-2,-8.685733192E-3,1.079703402E-2,1.808295088E-2
2.522230842E0,1.345047727E-2,-9.296596982E-3,1.018616930E-2,1.926395856E-2
2.524676728E0,1.283961255E-2,-1.112919208E-2,7.742710412E-3,1.867255021E-2
2.527121780E0,1.528307237E-2,-1.112919208E-2,7.131845690E-3,2.020629704E-2
2.529566051E0,1.406134106E-2,-1.235092152E-2,7.131845690E-3,2.002822503E-2
2.532011103E0,1.711566560E-2,-1.601610892E-2,6.520980969E-3,2.433074077E-2
2.534456988E0,1.650479995E-2,-1.845956780E-2,4.688386805E-3,2.520208395E-2
2.536902040E0,1.711566560E-2,-2.029216290E-2,3.466657363E-3,2.677191807E-2
2.539346311E0,1.711566560E-2,-2.212475613E-2,2.855792642E-3,2.811772385E-2
2.541791363E0,1.772653125E-2,-2.456821501E-2,2.244927920E-3,3.037872283E-2
2.544237248E0,1.711566560E-2,-2.578994446E-2,2.244927920E-3,3.103396438E-2
2.546682301E0,1.772653125E-2,-2.762253955E-2,1.023198478E-3,3.283719745E-2
2.549126571E0,1.833739504E-2,-3.189859167E-2,1.634063199E-3,3.683001995E-2
2.551571623E0,1.894825883E-2,-3.189859167E-2,2.244927920E-3,3.716983138E-2
2.554017457E0,1.833739504E-2,-3.495291620E-2,1.023198478E-3,3.948434301E-2
2.556462509E0,1.650479995E-2,-3.739637509E-2,1.023198478E-3,4.088941460E-2
2.558906832E0,1.772653125E-2,-3.922896832E-2,4.123337567E-4,4.305010900E-2
2.561351884E0,1.772653125E-2,-3.861810267E-2,4.123337567E-4,4.249420882E-2
2.563797717E0,1.650479995E-2,-3.922896832E-2,-8.093961515E-4,4.256730552E-2
2.566242769E0,1.589393616E-2,-3.983983397E-2,-1.420259941E-3,4.291674168E-2
2.568687040E0,1.589393616E-2,-3.922896832E-2,-2.031125594E-3,4.237516529E-2
2.571132144E0,1.467220671E-2,-3.800724074E-2,-2.031125594E-3,4.079153674E-2
2.573577978E0,1.467220671E-2,-3.739637509E-2,-3.252855036E-3,4.030314610E-2
2.576023030E0,1.283961255E-2,-3.556377813E-2,-3.252855036E-3,3.795021780E-2
2.578467301E0,1.406134106E-2,-3.312032297E-2,-3.863718826E-3,3.618847095E-2
2.580912353E0,1.100701839E-2,-3.128772601E-2,-4.474584479E-3,3.346786756E-2
2.583358238E0,1.039615367E-2,-3.006599844E-2,-5.696313921E-3,3.231860556E-2
2.585803290E0,9.174424224E-3,-2.762253955E-2,-5.085448269E-3,2.954719166E-2
2.588247561E0,9.785288945E-3,-2.517908067E-2,-6.307177711E-3,2.774019599E-2
2.590692613E0,9.174424224E-3,-2.151389048E-2,-5.696313921E-3,2.407209038E-2
2.593138498E0,9.174424224E-3,-1.968129724E-2,-5.696313921E-3,2.244930986E-2
2.595583551E0,8.563559502E-3,-1.723783836E-2,-6.307177711E-3,2.025482938E-2
2.598027821E0,6.730965339E-3,-1.112919208E-2,-6.307177711E-3,1.445494038E-2
2.600472873E0,5.509235896E-3,-9.907462634E-3,-6.307177711E-3,1.297266305E-2
2.602918707E0,4.898371175E-3,-5.020544864E-3,-7.528907154E-3,1.029001233E-2
2.605363811E0,4.287506454E-3,-4.409679212E-3,-7.528907154E-3,9.721750114E-3
2.607808082E0,3.065777244E-3,-2.577085746E-3,-6.918043364E-3,7.993727856E-3
2.610253134E0,1.844047802E-3,-7.444925141E-4,-6.918043364E-3,7.198201538E-3
2.612698967E0,1.233183080E-3,4.772387911E-4,-5.085448269E-3,5.254548646E-3
2.615144071E0,-1.210275805E-3,-1.336268615E-4,-6.918043364E-3,7.024382368E-3
2.617588290E0,-5.994110834E-4,4.772387911E-4,-6.307177711E-3,6.353545561E-3
2.620033394E0,-5.994110834E-4,-1.336268615E-4,-6.918043364E-3,6.945248287E-3
2.622479228E0,1.145363785E-5,-1.966220094E-3,-8.139772341E-3,8.373890756E-3
2.624924280E0,-1.821140526E-3,-2.577085746E-3,-7.528907154E-3,8.163477610E-3
2.627368551E0,-5.994110834E-4,-5.631410517E-3,-9.972365573E-3,1.146822363E-2
2.629813603E0,-5.994110834E-4,-6.242274307E-3,-9.972365573E-3,1.178021041E-2
2.632259488E0,6.223183591E-4,-6.242274307E-3,-1.058323123E-2,1.230276602E-2
2.634704540E0,1.145363785E-5,-8.685733192E-3,-1.180496067E-2,1.465602909E-2
2.637148811E0,1.145363785E-5,-9.907462634E-3,-1.180496067E-2,1.541152307E-2
2.639593863E0,-1.210275805E-3,-9.296596982E-3,-1.119409502E-2,1.460134399E-2
2.642039748E0,-1.821140526E-3,-9.296596982E-3,-1.241582446E-2,1.561716892E-2
2.644484801E0,-4.264599644E-3,-8.685733192E-3,-1.302669011E-2,1.622724334E-2
2.646929071E0,-4.875464365E-3,-6.242274307E-3,-1.424841955E-2,1.630195084E-2
2.649374123E0,-6.708058529E-3,-3.187951399E-3,-1.302669011E-2,1.499519052E-2
2.651819957E0,-7.929787971E-3,-1.966220094E-3,-1.363755390E-2,1.589749776E-2
2.654265061E0,-7.929787971E-3,3.531559603E-3,-1.302669011E-2,1.565401245E-2
2.656709332E0,-8.540652692E-3,7.196749561E-3,-1.241582446E-2,1.669995957E-2
2.659154384E0,-9.151517414E-3,9.640208445E-3,-1.058323123E-2,1.699084086E-2
2.661600217E0,-1.159497630E-2,1.574885845E-2,-1.058323123E-2,2.223678936E-2
2.664045321E0,-1.220584102E-2,1.758145168E-2,-9.361501783E-3,2.336081578E-2
2.666489592E0,-1.403843518E-2,2.246836945E-2,-8.750636131E-3,2.790123512E-2
2.668934644E0,-1.526016463E-2,2.613355592E-2,-7.528907154E-3,3.118524992E-2
2.671380478E0,-1.648189314E-2,3.102047741E-2,-5.085448269E-3,3.549344453E-2
2.673825530E0,-1.770362258E-2,3.346393257E-2,-3.252855036E-3,3.799781706E-2
2.676269801E0,-1.770362258E-2,3.835085034E-2,-2.641989384E-3,4.232240639E-2
2.678714905E0,-1.892535202E-2,4.140517116E-2,-8.093961515E-4,4.553254078E-2
2.681160738E0,-1.892535202E-2,4.568123072E-2,1.023198478E-3,4.945695830E-2
2.683605790E0,-2.014708333E-2,4.873555154E-2,1.634063199E-3,5.276105678E-2
2.686050061E0,-2.014708333E-2,5.056814849E-2,2.855792642E-3,5.450869802E-2
2.688495113E0,-2.075794525E-2,5.178987235E-2,4.688386805E-3,5.599164348E-2
2.690940998E0,-2.075794525E-2,5.362246931E-2,6.520980969E-3,5.786868496E-2
2.693386051E0,-1.831448637E-2,5.301160365E-2,7.742710412E-3,5.661801919E-2
2.695830321E0,-1.831448637E-2,5.240073800E-2,7.742710412E-3,5.604647463E-2
2.698275373E0,-1.770362258E-2,5.056814849E-2,8.353575133E-3,5.422488462E-2
2.700721259E0,-1.709275879E-2,4.934641719E-2,8.964439854E-3,5.298671979E-2
2.703166311E0,-1.403843518E-2,4.690295458E-2,7.742710412E-3,4.956727121E-2
2.705610582E0,-1.220584102E-2,4.568123072E-2,8.964439854E-3,4.812606962E-2
2.708055634E0,-1.159497630E-2,4.445949942E-2,8.353575133E-3,4.669981565E-2
2.710501467E0,-1.037324686E-2,4.445949942E-2,8.353575133E-3,4.641156705E-2
2.712946571E0,-7.318923250E-3,4.384863377E-2,7.131845690E-3,4.502368869E-2
2.715390842E0,-6.708058529E-3,4.323776811E-2,5.299251527E-3,4.407476270E-2
2.717835894E0,-5.486329086E-3,4.323776811E-2,5.299251527E-3,4.390542637E-2
2.720281728E0,-5.486329086E-3,4.323776811E-2,3.466657363E-3,4.372210095E-2
2.722726832E0,-3.653734690E-3,4.018344730E-2,2.244927920E-3,4.041161857E-2
2.725171051E0,-3.042869968E-3,4.018344730E-2,4.123337567E-4,4.030060190E-2
2.727616155E0,6.223183591E-4,3.651826084E-2,-1.420259941E-3,3.655116678E-2
2.730061988E0,2.454912523E-3,3.224220127E-2,-2.031125594E-3,3.239925322E-2
2.732507040E0,3.065777244E-3,2.979874611E-2,-2.641989384E-3,3.007231896E-2
2.734951311E0,3.676641965E-3,2.796614915E-2,-3.863718826E-3,2.847018647E-2
2.737396363E0,5.509235896E-3,2.552269399E-2,-3.863718826E-3,2.639484631E-2
2.739842248E0,7.952694781E-3,2.246836945E-2,-5.696313921E-3,2.450552943E-2
2.742287301E0,9.785288945E-3,1.941404492E-2,-3.863718826E-3,2.208133472E-2
2.744731571E0,1.039615367E-2,1.635972038E-2,-4.474584479E-3,1.989327445E-2
2.747176623E0,1.161788311E-2,1.391626056E-2,-2.641989384E-3,1.831986965E-2
2.749622509E0,1.222874783E-2,1.086193975E-2,-2.031125594E-3,1.648179237E-2
2.752067561E0,1.467220671E-2,7.807615213E-3,-2.641989384E-3,1.682892192E-2
2.754511832E0,1.406134106E-2,5.975021981E-3,-8.093961515E-4,1.529958569E-2
2.756956884E0,1.711566560E-2,1.698966371E-3,-1.985309646E-4,1.720092760E-2
2.759402769E0,1.650479995E-2,-1.966220094E-3,-8.093961515E-4,1.664120082E-2
2.761847821E0,1.894825883E-2,-4.409679212E-3,1.023198478E-3,1.948149683E-2
2.764292092E0,2.016999014E-2,-5.631410517E-3,1.634063199E-3,2.100503390E-2
2.766737144E0,1.894825883E-2,-9.296596982E-3,2.244927920E-3,2.122505429E-2
2.769182978E0,1.955912448E-2,-1.235092152E-2,2.244927920E-3,2.324100502E-2
2.771628082E0,1.955912448E-2,-1.540524606E-2,3.466657363E-3,2.513759475E-2
2.774072301E0,2.200258337E-2,-1.723783836E-2,4.077522084E-3,2.824682164E-2
2.776517405E0,2.322431467E-2,-1.723783836E-2,5.910116248E-3,2.952018525E-2
2.778963238E0,2.505690791E-2,-2.029216290E-2,6.520980969E-3,3.289595266E-2
2.781408290E0,2.627863549E-2,-1.968129724E-2,8.353575133E-3,3.387775615E-2
2.783852561E0,2.872209437E-2,-1.968129724E-2,6.520980969E-3,3.542365536E-2
2.786297665E0,2.933296002E-2,-2.334648557E-2,7.131845690E-3,3.816207745E-2
2.788743498E0,2.872209437E-2,-2.517908067E-2,4.077522084E-3,3.841316174E-2
2.791188551E0,2.933296002E-2,-2.640080824E-2,3.466657363E-3,3.961619534E-2
2.793632821E0,2.994382568E-2,-2.823340334E-2,4.688386805E-3,4.142147669E-2
2.796077873E0,2.933296002E-2,-3.006599844E-2,4.688386805E-3,4.226544424E-2
2.798523759E0,2.933296002E-2,-3.312032297E-2,2.855792642E-3,4.433434210E-2
2.800968811E0,2.933296002E-2,-3.434205055E-2,2.855792642E-3,4.525433163E-2
2.803413082E0,2.933296002E-2,-3.373118490E-2,4.123337567E-4,4.470330410E-2
2.805858134E0,2.994382568E-2,-3.373118490E-2,1.023198478E-3,4.511621068E-2
2.808304019E0,2.872209437E-2,-3.250945732E-2,1.634063199E-3,4.341075538E-2
2.810749071E0,2.994382568E-2,-3.067686222E-2,2.244927920E-3,4.292717407E-2
2.813193342E0,3.116555326E-2,-3.128772601E-2,2.855792642E-3,4.425346383E-2
2.815638394E0,2.994382568E-2,-2.884426713E-2,2.855792642E-3,4.167469249E-2
2.818084228E0,2.994382568E-2,-2.640080824E-2,4.077522084E-3,4.012806447E-2
2.820529332E0,2.933296002E-2,-2.212475613E-2,5.910116248E-3,3.721366485E-2
2.822973603E0,3.055469133E-2,-2.090302669E-2,4.688386805E-3,3.731630552E-2
2.825418655E0,2.933296002E-2,-1.601610892E-2,7.131845690E-3,3.417311094E-2
2.827864488E0,2.933296002E-2,-1.418351475E-2,7.131845690E-3,3.335352841E-2
2.830309540E0,2.933296002E-2,-1.051832829E-2,6.520980969E-3,3.183678637E-2
2.832753811E0,2.872209437E-2,-6.242274307E-3,7.131845690E-3,3.024546109E-2
2.835198915E0,2.994382568E-2,-4.409679212E-3,7.131845690E-3,3.109567799E-2
2.837644748E0,2.933296002E-2,-1.966220094E-3,7.742710412E-3,3.040128500E-2
2.840089801E0,2.872209437E-2,2.309832023E-3,7.742710412E-3,2.983695014E-2
2.842534071E0,2.688950114E-2,5.975021981E-3,7.742710412E-3,2.861285941E-2
2.844979123E0,2.566777356E-2,9.029342793E-3,6.520980969E-3,2.798011479E-2
2.847425009E0,2.383517660E-2,1.269453298E-2,6.520980969E-3,2.778110876E-2
2.849870061E0,2.200258337E-2,1.758145168E-2,8.353575133E-3,2.937691842E-2
2.852314332E0,2.200258337E-2,2.002491057E-2,9.575304575E-3,3.125375459E-2
2.854759384E0,1.894825883E-2,2.491182834E-2,7.131845690E-3,3.210138512E-2
2.857205269E0,1.833739504E-2,2.613355592E-2,7.742710412E-3,3.285075899E-2
2.859650321E0,1.772653125E-2,2.796614915E-2,8.964439854E-3,3.430301139E-2
2.862094592E0,1.528307237E-2,3.163133562E-2,1.018616930E-2,3.657692905E-2
2.864539644E0,1.589393616E-2,3.102047741E-2,1.018616930E-2,3.631315561E-2
2.866985478E0,1.589393616E-2,2.979874611E-2,9.575304575E-3,3.510368832E-2
2.869430582E0,1.528307237E-2,2.857701480E-2,8.353575133E-3,3.346640545E-2
2.871874853E0,1.467220671E-2,2.613355592E-2,9.575304575E-3,3.146303947E-2
2.874319905E0,1.222874783E-2,2.246836945E-2,6.520980969E-3,2.639873278E-2
2.876765738E0,1.283961255E-2,1.635972038E-2,5.299251527E-3,2.146108497E-2
2.879210790E0,1.345047727E-2,1.147280168E-2,4.688386805E-3,1.828992860E-2
2.881655061E0,1.406134106E-2,7.807615213E-3,2.855792642E-3,1.633510696E-2
2.884100165E0,1.406134106E-2,4.142425023E-3,1.023198478E-3,1.469448647E-2
2.886545998E0,1.467220671E-2,4.772387911E-4,-1.985309646E-4,1.468130857E-2
2.888991051E0,1.345047727E-2,-1.355358167E-3,-2.031125594E-3,1.367032574E-2
2.891435321E0,1.467220671E-2,-3.798815189E-3,-4.474584479E-3,1.580273878E-2
2.893880373E0,1.345047727E-2,-5.631410517E-3,-5.696313921E-3,1.565490708E-2
2.896326259E0,1.345047727E-2,-6.242274307E-3,-8.139772341E-3,1.691559107E-2
2.898771311E0,1.222874783E-2,-6.242274307E-3,-1.058323123E-2,1.733531209E-2
2.901215582E0,1.039615367E-2,-5.020544864E-3,-1.058323123E-2,1.566175804E-2
2.903660634E0,9.174424224E-3,-6.242274307E-3,-1.363755390E-2,1.758177820E-2
2.906106519E0,7.341830060E-3,-3.798815189E-3,-1.485928334E-2,1.700387506E-2
2.908551571E0,7.341830060E-3,-3.798815189E-3,-1.669187844E-2,1.862665486E-2
2.910995842E0,5.509235896E-3,-1.355358167E-3,-1.547014900E-2,1.647768752E-2
2.913440894E0,3.676641965E-3,1.088104444E-3,-1.547014900E-2,1.593823006E-2
2.915886728E0,3.065777244E-3,2.920697676E-3,-1.547014900E-2,1.603917002E-2
2.918331832E0,2.454912523E-3,5.975021981E-3,-1.608101279E-2,1.732992947E-2
2.920776103E0,6.223183591E-4,8.418477140E-3,-1.547014900E-2,1.762338070E-2
2.923221155E0,-5.994110834E-4,1.208366733E-2,-1.485928334E-2,1.916174865E-2
2.925666988E0,-2.432005247E-3,1.574885845E-2,-1.302669011E-2,2.058241597E-2
2.928112040E0,-3.653734690E-3,1.880317926E-2,-1.180496067E-2,2.250036497E-2
2.930556311E0,-4.875464365E-3,2.063577622E-2,-8.750636131E-3,2.293859293E-2
2.933001415E0,-5.486329086E-3,2.002491057E-2,-8.139772341E-3,2.230140677E-2
2.935447248E0,-7.318923250E-3,2.063577622E-2,-6.307177711E-3,2.278557413E-2
2.937892301E0,-8.540652692E-3,2.063577622E-2,-5.696313921E-3,2.304834053E-2
2.940336571E0,-9.151517414E-3,1.880317926E-2,-3.863718826E-3,2.126589158E-2
2.942781623E0,-9.762382135E-3,1.574885845E-2,-2.641989384E-3,1.871659038E-2
2.945227509E0,-1.037324686E-2,1.513799187E-2,4.123337567E-4,1.835573663E-2
2.947672561E0,-9.151517414E-3,1.391626056E-2,2.244927920E-3,1.680631668E-2
2.950116832E0,-9.762382135E-3,1.147280168E-2,1.634063199E-3,1.515253925E-2
2.952561884E0,-9.762382135E-3,9.640208445E-3,1.634063199E-3,1.381694200E-2
2.955007769E0,-9.762382135E-3,6.585883908E-3,2.244927920E-3,1.198823061E-2
2.957452821E0,-1.098411158E-2,4.753290676E-3,1.634063199E-3,1.207951332E-2
2.959897092E0,-1.098411158E-2,5.364156328E-3,1.023198478E-3,1.226669537E-2
2.962342144E0,-1.342756953E-2,4.753290676E-3,-8.093961515E-4,1.426704307E-2
2.964787978E0,-1.220584102E-2,7.196749561E-3,-3.252855036E-3,1.453811629E-2
2.967233082E0,-1.220584102E-2,8.418477140E-3,-5.085448269E-3,1.567530212E-2
2.969677301E0,-1.281670574E-2,9.029342793E-3,-6.918043364E-3,1.713640281E-2
2.972122405E0,-1.220584102E-2,9.640208445E-3,-7.528907154E-3,1.728006414E-2
2.974568238E0,-1.098411158E-2,1.147280168E-2,-9.972365573E-3,1.875430512E-2
2.977013290E0,-1.220584102E-2,1.086193975E-2,-1.180496067E-2,2.015741517E-2
2.979457561E0,-1.281670574E-2,9.029342793E-3,-1.363755390E-2,2.077931312E-2
2.981902613E0,-1.342756953E-2,8.418477140E-3,-1.424841955E-2,2.131168320E-2
2.984348498E0,-1.281670574E-2,6.585883908E-3,-1.547014900E-2,2.114160171E-2
2.986793551E0,-1.342756953E-2,6.585883908E-3,-1.669187844E-2,2.241187846E-2
2.989237821E0,-1.281670574E-2,5.975021981E-3,-1.730274409E-2,2.234622534E-2
2.991682873E0,-1.159497630E-2,5.364156328E-3,-1.669187844E-2,2.101990614E-2
2.994128759E0,-1.281670574E-2,5.364156328E-3,-1.791360788E-2,2.267023305E-2
2.996573811E0,-1.281670574E-2,5.364156328E-3,-1.913533732E-2,2.364747880E-2
2.999018082E0,-1.281670574E-2,5.364156328E-3,-1.913533732E-2,2.364747880E-2
3.001463134E0,-1.159497630E-2,3.531559603E-3,-1.974620298E-2,2.316954727E-2
3.003909019E0,-1.220584102E-2,4.142425023E-3,-2.035706677E-2,2.409465516E-2
3.006354071E0,-1.098411158E-2,2.309832023E-3,-1.974620298E-2,2.271340052E-2
3.008798342E0,-8.540652692E-3,2.309832023E-3,-1.913533732E-2,2.108172685E-2
3.011243394E0,-1.037324686E-2,-1.355358167E-3,-1.852447167E-2,2.127433423E-2
3.013689228E0,-8.540652692E-3,-1.966220094E-3,-1.913533732E-2,2.104685022E-2
3.016134332E0,-8.540652692E-3,-1.355358167E-3,-1.791360788E-2,1.989163371E-2
3.018578551E0,-7.929787971E-3,-1.336268615E-4,-1.669187844E-2,1.848021102E-2
3.021023655E0,-6.097193807E-3,-1.355358167E-3,-1.547014900E-2,1.668347320E-2
3.023469488E0,-4.875464365E-3,1.088104444E-3,-1.424841955E-2,1.509872789E-2
3.025914540E0,-4.875464365E-3,3.531559603E-3,-1.302669011E-2,1.435049551E-2
3.028358811E0,-6.708058529E-3,4.753290676E-3,-1.058323123E-2,1.340136578E-2
3.030803863E0,-7.929787971E-3,7.807615213E-3,-1.119409502E-2,1.578442764E-2
3.033249748E0,-7.929787971E-3,1.147280168E-2,-1.058323123E-2,1.750746980E-2
3.035694801E0,-6.097193807E-3,1.269453298E-2,-8.750636131E-3,1.658012583E-2
3.038139071E0,-5.486329086E-3,1.513799187E-2,-9.361501783E-3,1.862515289E-2
3.040584123E0,-3.042869968E-3,1.697058603E-2,-1.058323123E-2,2.023028994E-2
3.043030009E0,-1.210275805E-3,1.513799187E-2,-8.139772341E-3,1.723019034E-2
3.045475061E0,-1.210275805E-3,1.391626056E-2,-7.528907154E-3,1.586857015E-2
3.047919332E0,-5.994110834E-4,1.330539491E-2,-6.918043364E-3,1.500840269E-2
3.050364384E0,6.223183591E-4,1.269453298E-2,-4.474584479E-3,1.347443335E-2
3.052810269E0,2.454912523E-3,8.418477140E-3,-3.252855036E-3,9.352989829E-3
3.055255321E0,3.676641965E-3,5.364156328E-3,-3.252855036E-3,7.271377802E-3
3.057699592E0,4.898371175E-3,2.309832023E-3,-2.031125594E-3,5.784015502E-3
3.060144644E0,6.730965339E-3,-1.966220094E-3,4.123337567E-4,7.024381466E-3
3.062590478E0,7.341830060E-3,-3.187951399E-3,1.634063199E-3,8.169190002E-3
3.065035530E0,9.785288945E-3,-7.464003749E-3,1.634063199E-3,1.241504709E-2
3.067479801E0,1.100701839E-2,-9.296596982E-3,4.077522084E-3,1.497355521E-2
3.069924905E0,1.406134106E-2,-1.174005587E-2,4.077522084E-3,1.876636381E-2
3.072370738E0,1.589393616E-2,-1.540524606E-2,4.077522084E-3,2.250699889E-2
3.074815790E0,1.833739504E-2,-1.540524606E-2,4.077522084E-3,2.429419374E-2
3.077260061E0,1.772653125E-2,-1.662697271E-2,3.466657363E-3,2.455002739E-2
3.079705113E0,1.894825883E-2,-1.662697271E-2,3.466657363E-3,2.544622658E-2
3.082150998E0,2.016999014E-2,-1.601610892E-2,4.077522084E-3,2.607624270E-2
3.084596051E0,2.139171772E-2,-1.235092152E-2,2.244927920E-3,2.480303511E-2
3.087040321E0,2.383517660E-2,-8.685733192E-3,2.244927920E-3,2.546757362E-2
3.089485373E0,2.383517660E-2,-5.020544864E-3,4.123337567E-4,2.436168166E-2
3.091931259E0,2.505690791E-2,-7.444925141E-4,1.023198478E-3,2.508883891E-2
3.094376311E0,2.444604225E-2,1.698966371E-3,-8.093961515E-4,2.451837251E-2
3.096820582E0,2.566777356E-2,4.142425023E-3,-8.093961515E-4,2.601248559E-2
3.099265634E0,2.566777356E-2,8.418477140E-3,-2.641989384E-3,2.714195028E-2
3.101711467E0,2.505690791E-2,1.147280168E-2,-2.641989384E-3,2.768490419E-2
3.104156571E0,2.627863549E-2,1.452712622E-2,-6.307177711E-3,3.068199097E-2
3.106600842E0,2.627863549E-2,1.697058603E-2,-7.528907154E-3,3.217533086E-2
3.109045894E0,2.811123244E-2,2.063577622E-2,-8.139772341E-3,3.580967109E-2
3.111491728E0,2.750036679E-2,2.246836945E-2,-1.058323123E-2,3.705539883E-2
3.113936780E0,2.750036679E-2,2.430096269E-2,-1.180496067E-2,3.855079840E-2
3.116381051E0,2.811123244E-2,2.613355592E-2,-1.547014900E-2,4.138272157E-2
3.118826103E0,2.627863549E-2,2.735528722E-2,-1.669187844E-2,4.144269813E-2
3.121271988E0,2.383517660E-2,2.674442157E-2,-1.852447167E-2,4.033033324E-2
3.123717040E0,2.383517660E-2,2.430096269E-2,-2.035706677E-2,3.966185319E-2
3.126161311E0,2.261344902E-2,2.491182834E-2,-2.218966186E-2,4.030320535E-2
3.128606363E0,2.139171772E-2,2.185750380E-2,-2.157879621E-2,3.742994129E-2
3.131052248E0,2.200258337E-2,1.941404492E-2,-2.218966186E-2,3.678858394E-2
3.133497301E0,2.078085579E-2,1.635972038E-2,-2.096793056E-2,3.375112635E-2
3.135941571E0,2.139171772E-2,1.330539491E-2,-2.096793056E-2,3.277641274E-2
3.138386623E0,2.139171772E-2,8.418477140E-3,-1.913533732E-2,2.991049111E-2
3.140832457E0,2.139171772E-2,2.920697676E-3,-1.852447167E-2,2.844805991E-2
3.143277561E0,2.200258337E-2,-1.966220094E-3,-1.791360788E-2,2.844076377E-2
3.145721832E0,2.322431467E-2,-8.074869402E-3,-1.608101279E-2,2.937977672E-2
3.148166884E0,2.200258337E-2,-1.418351475E-2,-1.424841955E-2,2.980441621E-2
3.150612717E0,2.261344902E-2,-2.151389048E-2,-1.241582446E-2,3.359119315E-2
3.153057769E0,2.322431467E-2,-2.701167390E-2,-1.058323123E-2,3.716186354E-2
3.155502040E0,2.200258337E-2,-3.189859167E-2,-6.918043364E-3,3.936360183E-2
3.157947144E0,2.322431467E-2,-3.617464378E-2,-6.307177711E-3,4.344829267E-2
3.160392978E0,2.566777356E-2,-4.350502044E-2,-5.696313921E-3,5.083275908E-2
3.162838030E0,2.627863549E-2,-4.839193821E-2,-5.696313921E-3,5.536058489E-2
3.165282301E0,2.688950114E-2,-5.144626275E-2,-3.863718826E-3,5.817810194E-2
3.167727353E0,2.750036679E-2,-5.694404617E-2,-3.863718826E-3,6.335473850E-2
3.170173238E0,2.566777356E-2,-6.244182959E-2,-5.085448269E-3,6.770286897E-2
3.172618290E0,2.566777356E-2,-6.977220625E-2,-6.307177711E-3,7.461082934E-2
3.175062561E0,2.505690791E-2,-7.526998967E-2,-6.307177711E-3,7.958140781E-2
3.177507613E0,2.261344902E-2,-8.198950440E-2,-8.139772341E-3,8.543946864E-2
3.179953446E0,2.261344902E-2,-8.870901912E-2,-8.750636131E-3,9.196320886E-2
3.182398551E0,2.200258337E-2,-9.542852640E-2,-8.750636131E-3,9.832238280E-2
3.184842821E0,2.139171772E-2,-1.015371755E-1,-9.972365573E-3,1.042441925E-1
3.187287873E0,2.139171772E-2,-1.045914963E-1,-9.972365573E-3,1.072214286E-1
3.189733707E0,2.200258337E-2,-1.064240858E-1,-1.119409502E-2,1.092497482E-1
3.192178759E0,2.444604225E-2,-1.070349589E-1,-1.180496067E-2,1.104239490E-1
3.194623030E0,2.688950114E-2,-1.058132276E-1,-1.241582446E-2,1.098801033E-1
3.197068134E0,2.688950114E-2,-1.021480337E-1,-1.058323123E-2,1.061568219E-1
3.199513967E0,2.811123244E-2,-9.665025026E-2,-1.058323123E-2,1.012102616E-1
3.201959019E0,2.811123244E-2,-9.115247428E-2,-1.058323123E-2,9.597405765E-2
3.204403290E0,2.444604225E-2,-8.504382521E-2,-1.180496067E-2,8.927159842E-2
3.206848342E0,2.688950114E-2,-7.893518358E-2,-1.241582446E-2,8.430872539E-2
3.209294228E0,2.261344902E-2,-7.282652706E-2,-1.241582446E-2,7.726075211E-2
3.211739280E0,2.261344902E-2,-6.488528848E-2,-1.363755390E-2,7.005320559E-2
3.214183551E0,2.139171772E-2,-6.060923263E-2,-1.485928334E-2,6.596880300E-2
3.216628603E0,1.955912448E-2,-5.083539709E-2,-1.669187844E-2,5.696855057E-2
3.219073811E0,1.772653125E-2,-4.717021063E-2,-1.669187844E-2,5.308368381E-2
3.221519019E0,1.406134106E-2,-4.411588609E-2,-1.852447167E-2,4.987072056E-2
3.223963811E0,1.467220671E-2,-4.106156155E-2,-2.096793056E-2,4.838367079E-2
3.226408863E0,9.174424224E-3,-4.106156155E-2,-2.096793056E-2,4.700931832E-2
3.228854696E0,1.039615367E-2,-3.861810267E-2,-2.218966186E-2,4.573640736E-2
3.231299748E0,7.341830060E-3,-3.861810267E-2,-2.524398454E-2,4.671743869E-2
3.233744019E0,8.563559502E-3,-3.983983397E-2,-2.646571212E-2,4.858992530E-2
3.236189123E0,4.287506454E-3,-4.228329286E-2,-2.829830535E-2,5.105931504E-2
3.238634957E0,3.065777244E-3,-4.533761367E-2,-2.768744342E-2,5.321177244E-2
3.241080009E0,3.065777244E-3,-5.022453144E-2,-2.952003665E-2,5.833811029E-2
3.243524280E0,-5.994110834E-4,-5.144626275E-2,-2.952003665E-2,5.931702798E-2
3.245969332E0,4.287506454E-3,-5.450058728E-2,-2.952003665E-2,6.212993876E-2
3.248415217E0,1.844047802E-3,-5.511144921E-2,-2.890917100E-2,6.226084255E-2
3.250860269E0,4.898371175E-3,-5.450058728E-2,-2.707657777E-2,6.105283874E-2
3.253304540E0,3.676641965E-3,-5.205712840E-2,-2.768744342E-2,5.907670299E-2
3.255749592E0,5.509235896E-3,-4.778107628E-2,-2.707657777E-2,5.519532584E-2
3.258195426E0,2.454912523E-3,-4.472675174E-2,-2.646571212E-2,5.202828879E-2
3.260640530E0,2.454912523E-3,-3.861810267E-2,-2.585484646E-2,4.653877453E-2
3.263084801E0,3.676641965E-3,-3.434205055E-2,-2.585484646E-2,4.314356520E-2
3.265529853E0,1.233183080E-3,-2.945513278E-2,-2.707657777E-2,4.002832311E-2
3.267975686E0,3.676641965E-3,-2.395734936E-2,-2.890917100E-2,3.772548810E-2
3.270420738E0,6.223183591E-4,-1.845956780E-2,-2.952003665E-2,3.482205461E-2
3.272865009E0,1.233183080E-3,-1.418351475E-2,-3.074176423E-2,3.387844299E-2
3.275310113E0,-3.042869968E-3,-1.174005587E-2,-3.074176423E-2,3.304760260E-2
3.277755946E0,-5.994110834E-4,-6.242274307E-3,-3.379609063E-2,3.437296938E-2
3.280200998E0,-5.486329086E-3,-3.798815189E-3,-3.807214275E-2,3.865254011E-2
3.282645269E0,-4.875464365E-3,-1.336268615E-4,-4.051560163E-2,4.080811175E-2
3.285090321E0,-5.486329086E-3,2.920697676E-3,-4.418079183E-2,4.461583405E-2
3.287536207E0,-1.098411158E-2,1.269453298E-2,-4.662425071E-2,4.955423926E-2
3.289981259E0,-1.220584102E-2,1.819231361E-2,-5.028943717E-2,5.485408208E-2
3.292425530E0,-1.526016463E-2,2.613355592E-2,-5.517635494E-2,6.293064050E-2
3.294870582E0,-1.464930084E-2,3.590739518E-2,-5.823068321E-2,6.996252933E-2
3.297316415E0,-1.342756953E-2,4.445949942E-2,-6.433933228E-2,7.935046560E-2
3.299761519E0,-1.464930084E-2,5.117900670E-2,-6.678278744E-2,8.540394277E-2
3.302205790E0,-1.403843518E-2,5.973112211E-2,-6.983711571E-2,9.296293530E-2
3.304650842E0,-1.464930084E-2,6.828322262E-2,-7.289143652E-2,1.009473230E-1
3.307096676E0,-1.403843518E-2,7.561359555E-2,-7.350230217E-2,1.063817744E-1
3.309541728E0,-1.403843518E-2,8.233311027E-2,-7.472403347E-2,1.120691746E-1
3.311985998E0,-1.220584102E-2,8.783089370E-2,-7.533489168E-2,1.163554655E-1
3.314431051E0,-1.220584102E-2,9.332866222E-2,-7.411316782E-2,1.197997637E-1
3.316876936E0,-1.159497630E-2,9.760471433E-2,-7.411316782E-2,1.231011185E-1
3.319321988E0,-1.098411158E-2,9.821558744E-2,-7.533489168E-2,1.242670440E-1
3.321766259E0,-1.220584102E-2,9.760471433E-2,-7.533489168E-2,1.238991877E-1
3.324211311E0,-1.342756953E-2,9.393953532E-2,-7.716748863E-2,1.223100863E-1
3.326657196E0,-1.403843518E-2,9.088521451E-2,-7.900008559E-2,1.212361885E-1
3.329102248E0,-1.648189314E-2,8.416569978E-2,-8.083267510E-2,1.178534649E-1
3.331546519E0,-1.464930084E-2,7.805705816E-2,-8.633045852E-2,1.173049633E-1
3.333991571E0,-1.709275879E-2,7.011581212E-2,-9.060651064E-2,1.158357858E-1
3.336437405E0,-1.709275879E-2,6.461802870E-2,-9.610429406E-2,1.170627497E-1
3.338882509E0,-1.464930084E-2,5.850938708E-2,-1.016020775E-1,1.181563902E-1
3.341326780E0,-1.648189314E-2,5.362246931E-2,-1.070998609E-1,1.209024492E-1
3.343771832E0,-1.648189314E-2,4.873555154E-2,-1.113759130E-1,1.226841505E-1
3.346217665E0,-1.953621767E-2,4.568123072E-2,-1.162628308E-1,1.264337157E-1
3.348662717E0,-2.381226979E-2,4.201603681E-2,-1.211497411E-1,1.304209773E-1
3.351106988E0,-2.442313544E-2,4.079431295E-2,-1.266475171E-1,1.352784502E-1
3.353552040E0,-2.564486302E-2,4.262690246E-2,-1.303127110E-1,1.394851765E-1
3.355997926E0,-2.747745998E-2,4.445949942E-2,-1.321453005E-1,1.421057294E-1
3.358442978E0,-2.808832191E-2,4.812468588E-2,-1.358104944E-1,1.467972398E-1
3.360887248E0,-3.053178079E-2,5.056814849E-2,-1.351996213E-1,1.475407228E-1
3.363332301E0,-3.175351024E-2,5.240073800E-2,-1.370322108E-1,1.501064608E-1
3.365778134E0,-3.419696912E-2,5.301160365E-2,-1.364213526E-1,1.503011918E-1
3.368223238E0,-3.541869670E-2,5.545506626E-2,-1.351996213E-1,1.503618504E-1
3.370667509E0,-3.664042801E-2,5.545506626E-2,-1.339778900E-1,1.495588859E-1
3.373112561E0,-3.725129366E-2,5.301160365E-2,-1.315344274E-1,1.466260365E-1
3.375558394E0,-3.786215559E-2,4.995728284E-2,-1.303127110E-1,1.446052405E-1
3.378003446E0,-3.725129366E-2,4.568123072E-2,-1.272583753E-1,1.402466677E-1
3.380447717E0,-3.664042801E-2,4.323776811E-2,-1.242040619E-1,1.365235311E-1
3.382892821E0,-3.602956235E-2,3.957258165E-2,-1.193171516E-1,1.307696496E-1
3.385338655E0,-3.480783105E-2,3.712911904E-2,-1.162628308E-1,1.269141537E-1
3.387783707E0,-3.358610347E-2,3.529652953E-2,-1.107650474E-1,1.210073017E-1
3.390227978E0,-3.175351024E-2,3.590739518E-2,-1.064889953E-1,1.167798465E-1
3.392673030E0,-3.053178079E-2,3.773998469E-2,-1.016020775E-1,1.126031893E-1
3.395118915E0,-2.808832191E-2,4.201603681E-2,-9.610429406E-2,1.085833160E-1
3.397563967E0,-2.686659433E-2,4.934641719E-2,-9.121737629E-2,1.071330599E-1
3.400008238E0,-2.625572868E-2,5.545506626E-2,-8.571959287E-2,1.054157306E-1
3.402453290E0,-2.442313544E-2,6.217456982E-2,-7.961095124E-2,1.039233864E-1
3.404899123E0,-2.442313544E-2,7.011581212E-2,-7.533489168E-2,1.057736383E-1
3.407344228E0,-2.503400110E-2,7.988964766E-2,-7.044798136E-2,1.094165211E-1
3.409788446E0,-2.625572868E-2,8.783089370E-2,-6.739365309E-2,1.137784411E-1
3.412233551E0,-2.686659433E-2,9.455039352E-2,-6.250673532E-2,1.164846890E-1
3.414679384E0,-2.747745998E-2,1.043242291E-1,-5.945241451E-2,1.231793212E-1
3.417124436E0,-2.747745998E-2,1.098220125E-1,-5.578722060E-2,1.262065736E-1
3.419568707E0,-2.686659433E-2,1.140980646E-1,-5.212203041E-2,1.282844039E-1
3.422013759E0,-2.625572868E-2,1.183741167E-1,-5.151116848E-2,1.317391182E-1
3.424459644E0,-2.381226979E-2,1.208175793E-1,-4.906770959E-2,1.325577300E-1
3.426904696E0,-1.892535202E-2,1.238719001E-1,-4.540251940E-2,1.332809265E-1
3.429348967E0,-1.464930084E-2,1.257045120E-1,-4.295906052E-2,1.336476982E-1
3.431794019E0,-9.151517414E-3,1.281479597E-1,-3.990473971E-2,1.345289489E-1
3.434239853E0,-4.264599644E-3,1.269262433E-1,-3.685041517E-2,1.322361945E-1
3.436684957E0,3.065777244E-3,1.263153702E-1,-3.379609063E-2,1.307942945E-1
3.439129228E0,1.039615367E-2,1.250936389E-1,-3.135263175E-2,1.293811656E-1
3.441574280E0,1.711566560E-2,1.214284524E-1,-2.890917100E-2,1.259902982E-1
3.444020113E0,2.383517660E-2,1.140980646E-1,-2.707657777E-2,1.196646358E-1
3.446465165E0,2.933296002E-2,1.092111543E-1,-2.524398454E-2,1.158652559E-1
3.448909436E0,3.666333854E-2,1.000481769E-1,-2.463311888E-2,1.093646590E-1
3.451354540E0,4.277198762E-2,9.271780401E-2,-2.463311888E-2,1.050372536E-1
3.453800373E0,4.888063297E-2,8.050050586E-2,-2.402225323E-2,9.719421986E-2
3.456245426E0,5.254582316E-2,6.828322262E-2,-2.585484646E-2,8.995629554E-2
3.458689696E0,5.437841639E-2,5.606593192E-2,-2.890917100E-2,8.328349812E-2
3.461134748E0,5.498928204E-2,4.262690246E-2,-3.196349740E-2,7.656721961E-2
3.463580634E0,5.437841639E-2,3.224220127E-2,-3.868300840E-2,7.411441729E-2
3.466025686E0,5.376755074E-2,2.246836945E-2,-4.234819487E-2,7.203573243E-2
3.468469957E0,5.437841639E-2,1.513799187E-2,-5.028943717E-2,7.559893159E-2
3.470915009E0,5.498928204E-2,9.029342793E-3,-5.884154886E-2,8.104121200E-2
3.473360842E0,5.621100962E-2,4.753290676E-3,-6.861538440E-2,8.882759904E-2
3.475805946E0,5.743274093E-2,5.364156328E-3,-8.022181690E-2,9.880705344E-2
3.478250165E0,5.865446851E-2,6.585883908E-3,-8.999565244E-2,1.076240586E-1
3.480695269E0,5.926533416E-2,9.640208445E-3,-1.022129431E-1,1.185445030E-1
3.483141103E0,6.293052435E-2,1.574885845E-2,-1.156519651E-1,1.326033728E-1
3.485586155E0,6.659571081E-2,2.430096269E-2,-1.278692484E-1,1.462055750E-1
3.488030426E0,7.209349424E-2,3.346393257E-2,-1.400865465E-1,1.610637986E-1
3.490475478E0,7.575868070E-2,4.690295458E-2,-1.529147029E-1,1.769807086E-1
3.492921363E0,8.308906108E-2,6.034198031E-2,-1.645211279E-1,1.939385165E-1
3.495366415E0,8.980856836E-2,7.072667032E-2,-1.761275530E-1,2.099732263E-1
3.497810686E0,9.713894874E-2,7.866791636E-2,-1.871231198E-1,2.250326163E-1
3.500255738E0,1.050801873E-1,8.294396847E-2,-1.950643659E-1,2.365832930E-1
3.502701571E0,1.172974855E-1,8.172223717E-2,-2.017838806E-1,2.472932644E-1
3.505146676E0,1.301256418E-1,7.500273734E-2,-2.078925222E-1,2.564710394E-1
3.507590894E0,1.453972608E-1,6.461802870E-2,-2.127794474E-1,2.656895676E-1
3.510035998E0,1.625014693E-1,4.995728284E-2,-2.152228951E-1,2.742687591E-1
3.512481832E0,1.820491403E-1,3.102047741E-2,-2.140011787E-1,2.826670551E-1
3.514926884E0,2.009859532E-1,9.029342793E-3,-2.115577161E-1,2.919478544E-1
3.517371155E0,2.217553556E-1,-1.662697271E-2,-2.072816640E-1,3.040026023E-1
3.519816207E0,2.431356162E-1,-4.411588609E-2,-2.030056119E-1,3.198005906E-1
3.522262092E0,2.657375932E-1,-7.282652706E-2,-1.968969554E-1,3.386570278E-1
3.524707144E0,2.865070105E-1,-1.015371755E-1,-1.895665824E-1,3.582339378E-1
3.527151415E0,3.078872561E-1,-1.284152120E-1,-1.834579408E-1,3.807122867E-1
3.529596467E0,3.304892480E-1,-1.571258605E-1,-1.773492843E-1,4.066502769E-1
3.532042353E0,3.524803817E-1,-1.870582253E-1,-1.700189114E-1,4.337506534E-1
3.534487405E0,3.726389110E-1,-2.114928216E-1,-1.657428592E-1,4.594123061E-1
3.536931623E0,3.952409029E-1,-2.340948135E-1,-1.608559489E-1,4.867138680E-1
3.539376728E0,4.172320366E-1,-2.566967905E-1,-1.565798819E-1,5.142889013E-1
3.541822561E0,4.392231703E-1,-2.774662077E-1,-1.547472924E-1,5.420804500E-1
3.544267613E0,4.624360204E-1,-2.970138788E-1,-1.529147029E-1,5.704798187E-1
3.546711884E0,4.868706167E-1,-3.147289455E-1,-1.523038298E-1,5.994111803E-1
3.549156936E0,5.106943250E-1,-3.330549002E-1,-1.553581655E-1,6.291823421E-1
3.551602821E0,5.375723839E-1,-3.532134295E-1,-1.590233445E-1,6.625950639E-1
3.554047873E0,5.613961220E-1,-3.739828467E-1,-1.639102697E-1,6.941868278E-1
3.556492144E0,5.870524645E-1,-3.971956968E-1,-1.718515009E-1,7.293339125E-1
3.558937196E0,6.145413518E-1,-4.222411513E-1,-1.816253364E-1,7.674219346E-1
3.561383082E0,6.414194107E-1,-4.491192102E-1,-1.901774406E-1,8.057880518E-1
3.563828134E0,6.689082980E-1,-4.790515602E-1,-2.005621493E-1,8.468493869E-1
3.566272405E0,6.970080733E-1,-5.102056265E-1,-2.121685743E-1,8.894636246E-1
3.568717457E0,7.232752442E-1,-5.419706106E-1,-2.237750143E-1,9.310931633E-1
3.571163290E0,7.483206987E-1,-5.737355947E-1,-2.359922975E-1,9.720333149E-1
3.573608342E0,7.709227204E-1,-6.055005789E-1,-2.469878793E-1,1.010918298E0
3.576052613E0,7.959681749E-1,-6.366546750E-1,-2.579834461E-1,1.051403809E0
3.578497665E0,8.185701966E-1,-6.684196591E-1,-2.695898712E-1,1.090651505E0
3.580943551E0,8.411721587E-1,-7.014063001E-1,-2.799745500E-1,1.130454398E0
3.583388603E0,8.704936504E-1,-7.441668510E-1,-2.915810049E-1,1.181762658E0
3.585832873E0,9.034803510E-1,-7.924251556E-1,-3.044091463E-1,1.239709361E0
3.588277926E0,9.431865811E-1,-8.461812735E-1,-3.160155714E-1,1.305943918E0
3.590723811E0,9.822819233E-1,-9.029917121E-1,-3.251785636E-1,1.373321851E0
3.593168863E0,1.023209929E0,-9.622455835E-1,-3.373958468E-1,1.444545285E0
3.595613134E0,1.062916160E0,-1.023942947E0,-3.453370929E-1,1.515753156E0
3.598058186E0,1.095902801E0,-1.086861968E0,-3.557218015E-1,1.583922311E0
3.600504019E0,1.130722046E0,-1.148559332E0,-3.661064804E-1,1.652802117E0
3.602949071E0,1.163097978E0,-1.209034920E0,-3.758803308E-1,1.719258086E0
3.605393342E0,1.193030357E0,-1.265234470E0,-3.862650096E-1,1.781387200E0
3.607838394E0,1.221130133E0,-1.317768812E0,-3.966497183E-1,1.839838157E0
3.610284280E0,1.249840736E0,-1.365416288E0,-4.070344269E-1,1.895294313E0
3.612729332E0,1.276718736E0,-1.408787727E0,-4.174191356E-1,1.946518000E0
3.615173603E0,1.303596854E0,-1.443606973E0,-4.302472770E-1,1.992104056E0
3.617618655E0,1.330474854E0,-1.470484972E0,-4.424645901E-1,2.031813058E0
3.620064540E0,1.357963800E0,-1.489421844E0,-4.546818733E-1,2.066199100E0
3.622509592E0,1.380565763E0,-1.500417352E0,-4.675100446E-1,2.091836441E0
3.624953863E0,1.402556896E0,-1.503471732E0,-4.803381860E-1,2.111472915E0
3.627398915E0,1.421493649E0,-1.502249956E0,-4.931663871E-1,2.126173138E0
3.629844748E0,1.439208746E0,-1.497363091E0,-5.059944987E-1,2.137626832E0
3.632289801E0,1.453869581E0,-1.485756636E0,-5.188226700E-1,2.142518729E0
3.634734071E0,1.466697693E0,-1.472317576E0,-5.322616696E-1,2.145279388E0
3.637179123E0,1.478304148E0,-1.455824256E0,-5.438681245E-1,2.144900919E0
3.639625009E0,1.489299655E0,-1.437498331E0,-5.566962957E-1,2.143437818E0
3.642070061E0,1.500906110E0,-1.418561459E0,-5.689135790E-1,2.142124745E0
3.644514332E0,1.511901736E0,-1.397181273E0,-5.799091458E-1,2.138751268E0
3.646959384E0,1.523508072E0,-1.373357534E0,-5.896829963E-1,2.134224402E0
3.649405217E0,1.533281922E0,-1.351977229E0,-6.000676751E-1,2.130464057E0
3.651850321E0,1.544888377E0,-1.334262133E0,-6.104523540E-1,2.130630802E0
3.654294592E0,1.557105660E0,-1.320212245E0,-6.190044880E-1,2.133238141E0
3.656739644E0,1.569933891E0,-1.309827566E0,-6.300000548E-1,2.139448701E0
3.659185478E0,1.580929399E0,-1.303718925E0,-6.361086965E-1,2.145612983E0
3.661630530E0,1.591924906E0,-1.303718925E0,-6.422173381E-1,2.155539619E0
3.664074801E0,1.605363965E0,-1.304329753E0,-6.495476961E-1,2.168036387E0
3.666519905E0,1.616970420E0,-1.312270999E0,-6.544346213E-1,2.182872691E0
3.668965738E0,1.631631136E0,-1.323877454E0,-6.574889421E-1,2.201627440E0
3.671410790E0,1.646291971E0,-1.334873080E0,-6.593215466E-1,2.219654995E0
3.673855061E0,1.665228724E0,-1.348922968E0,-6.617650390E-1,2.242880479E0
3.676300113E0,1.685998082E0,-1.361140251E0,-6.635975838E-1,2.266198153E0
3.678745998E0,1.706767559E0,-1.372746706E0,-6.654301882E-1,2.289167175E0
3.681191051E0,1.729369521E0,-1.384353042E0,-6.690953970E-1,2.314052924E0
3.683635321E0,1.751360655E0,-1.395348668E0,-6.733714342E-1,2.338309461E0
3.686080373E0,1.770297408E0,-1.403900743E0,-6.782583594E-1,2.359009243E0
3.688526207E0,1.789234281E0,-1.414896369E0,-6.861996055E-1,2.382049736E0
3.690971259E0,1.806338429E0,-1.424059272E0,-6.941408515E-1,2.402630819E0
3.693415530E0,1.822220922E0,-1.433222294E0,-7.063581347E-1,2.423542252E0
3.695860582E0,1.837492585E0,-1.441163540E0,-7.179645896E-1,2.443113690E0
3.698306467E0,1.852764249E0,-1.449715614E0,-7.301818728E-1,2.463245073E0
3.700751519E0,1.863148928E0,-1.454602480E0,-7.442317605E-1,2.478118886E0
3.703195790E0,1.874755383E0,-1.458878636E0,-7.588924766E-1,2.493782751E0
3.705640842E0,1.884529114E0,-1.457046032E0,-7.735532522E-1,2.504559393E0
3.708086728E0,1.894913912E0,-1.450326443E0,-7.912683487E-1,2.514010963E0
3.710531780E0,1.903465986E0,-1.439330935E0,-8.059290648E-1,2.518804867E0
3.712976051E0,1.912018061E0,-1.424670100E0,-8.230332732E-1,2.522475318E0
3.715421103E0,1.918126702E0,-1.406955123E0,-8.401374817E-1,2.522808703E0
3.717866936E0,1.920570135E0,-1.389240026E0,-8.578525782E-1,2.520811088E0
3.720311988E0,1.921791911E0,-1.370914102E0,-8.725133538E-1,2.516737804E0
3.722756259E0,1.921181083E0,-1.350755572E0,-8.908392787E-1,2.511786613E0
3.725201311E0,1.920570135E0,-1.333040476E0,-9.079434872E-1,2.507976860E0
3.727647196E0,1.919959307E0,-1.317157984E0,-9.238259792E-1,2.504915834E0
3.730092248E0,1.919348478E0,-1.300053716E0,-9.390975833E-1,2.501188221E0
3.732536519E0,1.920570135E0,-1.283560395E0,-9.555909634E-1,2.499854200E0
3.734981571E0,1.924846292E0,-1.267677903E0,-9.714734554E-1,2.501159968E0
3.737427405E0,1.928511381E0,-1.251795411E0,-9.861341715E-1,2.501721108E0
3.739872509E0,1.931565762E0,-1.238356471E0,-1.000184178E0,2.502966526E0
3.742316728E0,1.937063575E0,-1.229804277E0,-1.015455842E0,2.509140176E0
3.744761832E0,1.937674403E0,-1.223695636E0,-1.031338334E0,2.513100050E0
3.747207665E0,1.938896179E0,-1.220641375E0,-1.046609879E0,2.518864029E0
3.749652717E0,1.940117836E0,-1.219419599E0,-1.061270714E0,2.525338968E0
3.752096988E0,1.937063575E0,-1.219419599E0,-1.075931430E0,2.529195108E0
3.754542040E0,1.938896179E0,-1.220641375E0,-1.091813922E0,2.537979787E0
3.756987926E0,1.938896179E0,-1.218808770E0,-1.104642034E0,2.542645715E0
3.759432978E0,1.939507008E0,-1.218808770E0,-1.116859317E0,2.548442070E0
3.761877248E0,1.938896179E0,-1.215143561E0,-1.128465772E0,2.551338328E0
3.764322301E0,1.937674403E0,-1.206591487E0,-1.141904831E0,2.552330651E0
3.766768134E0,1.936452627E0,-1.199261069E0,-1.152289510E0,2.552615718E0
3.769213186E0,1.932176590E0,-1.186432958E0,-1.162674189E0,2.548085714E0
3.771657457E0,1.927900553E0,-1.171772122E0,-1.171226263E0,2.541971953E0
3.774102561E0,1.923624516E0,-1.155889630E0,-1.180389285E0,2.535691420E0
3.776548394E0,1.916294098E0,-1.135731101E0,-1.187719703E0,2.524429895E0
3.778993446E0,1.908963799E0,-1.113739967E0,-1.196882606E0,2.513381681E0
3.781437717E0,1.902855158E0,-1.089916229E0,-1.204213023E0,2.501780195E0
3.783882769E0,1.896746516E0,-1.065481663E0,-1.212154269E0,2.490424962E0
3.786328655E0,1.892470360E0,-1.041047096E0,-1.219484568E0,2.480396285E0
3.788773707E0,1.888805270E0,-1.017834306E0,-1.227425814E0,2.471870982E0
3.791217978E0,1.887583494E0,-9.933996797E-1,-1.234145403E0,2.464331400E0
3.793663030E0,1.883918285E0,-9.726302624E-1,-1.240254045E0,2.456295550E0
3.796108863E0,1.877809644E0,-9.549151659E-1,-1.245140910E0,2.447122375E0
3.798553915E0,1.871090174E0,-9.402544498E-1,-1.255525589E0,2.441598119E0
3.800998186E0,1.861927152E0,-9.304805994E-1,-1.261023402E0,2.433669428E0
3.803443238E0,1.852153301E0,-9.219284654E-1,-1.267132044E0,2.426117797E0
3.805889123E0,1.843601227E0,-9.170415998E-1,-1.275073290E0,2.421908890E0
3.808334176E0,1.834438205E0,-9.145981073E-1,-1.283014536E0,2.418218254E0
3.810778446E0,1.828940511E0,-9.133763909E-1,-1.289123178E0,2.416840580E0
3.813223498E0,1.823442698E0,-9.115437865E-1,-1.296453595E0,2.415915410E0
3.815669384E0,1.817334056E0,-9.091003537E-1,-1.303784013E0,2.414336198E0
3.818114436E0,1.811836243E0,-9.109328985E-1,-1.307449102E0,2.412876390E0
3.820558707E0,1.803894997E0,-9.103220701E-1,-1.311725140E0,2.409013548E0
3.823003759E0,1.794732094E0,-9.091003537E-1,-1.316612124E0,2.404369819E0
3.825449592E0,1.786790848E0,-9.127655029E-1,-1.320888162E0,2.402188155E0
3.827894644E0,1.777016997E0,-9.109328985E-1,-1.322720766E0,2.395240777E0
3.830338915E0,1.766632318E0,-9.103220701E-1,-1.325164199E0,2.388668285E0
3.832783967E0,1.756858468E0,-9.097111821E-1,-1.328829408E0,2.383256953E0
3.835229853E0,1.747084618E0,-9.078785777E-1,-1.330662012E0,2.376385820E0
3.837674905E0,1.736699939E0,-9.072677493E-1,-1.331272840E0,2.368870791E0
3.840119176E0,1.724482656E0,-9.048242569E-1,-1.331272840E0,2.358990195E0
3.842564228E0,1.712876201E0,-9.036025405E-1,-1.333716273E0,2.351433930E0
3.845010061E0,1.700047970E0,-9.036025405E-1,-1.336770654E0,2.343846503E0
3.847455113E0,1.688441634E0,-9.029917121E-1,-1.338603258E0,2.336255095E0
3.849899384E0,1.679889441E0,-9.029917121E-1,-1.340435863E0,2.331135103E0
3.852344488E0,1.671948195E0,-9.054351449E-1,-1.343490124E0,2.328129996E0
3.854790321E0,1.665228724E0,-9.060460329E-1,-1.348377109E0,2.326376355E0
3.857235373E0,1.659730911E0,-9.072677493E-1,-1.352653146E0,2.325405771E0
3.859679644E0,1.653011441E0,-9.127655029E-1,-1.357540011E0,2.325618750E0
3.862124696E0,1.648735404E0,-9.188741446E-1,-1.364259601E0,2.328918716E0
3.864570582E0,1.639572382E0,-9.274262786E-1,-1.370368242E0,2.329426156E0
3.867015634E0,1.629798532E0,-9.372001290E-1,-1.378920317E0,2.331524946E0
3.869459905E0,1.618803024E0,-9.518608451E-1,-1.386250734E0,2.334149395E0
3.871904957E0,1.607196569E0,-9.701868296E-1,-1.394802809E0,2.338764240E0
3.874350790E0,1.593757510E0,-9.891235828E-1,-1.402744055E0,2.342246645E0
3.876795842E0,1.581540227E0,-1.011725664E0,-1.413739562E0,2.350216556E0
3.879240113E0,1.567490339E0,-1.036771059E0,-1.422902584E0,2.357238205E0
3.881685165E0,1.557716489E0,-1.063038230E0,-1.432065487E0,2.367982791E0
3.884131051E0,1.545499206E0,-1.092970610E0,-1.440006733E0,2.378396926E0
3.886576103E0,1.535725355E0,-1.119237781E0,-1.447337151E0,2.388708941E0
3.889020373E0,1.524119020E0,-1.149170160E0,-1.455889225E0,2.400654969E0
3.891465426E0,1.514345169E0,-1.177269936E0,-1.461387038E0,2.411401640E0
3.893911259E0,1.503349543E0,-1.205980539E0,-1.464441419E0,2.420544893E0
3.896356363E0,1.494797468E0,-1.232858658E0,-1.469328284E0,2.431724809E0
3.898800582E0,1.485634446E0,-1.259736657E0,-1.471160889E0,2.440975320E0
3.901245686E0,1.477693319E0,-1.285393000E0,-1.473604321E0,2.450983967E0
3.903691519E0,1.471584558E0,-1.310438395E0,-1.475436926E0,2.461650670E0
3.906136571E0,1.464865088E0,-1.335483909E0,-1.473604321E0,2.469991234E0
3.908580842E0,1.456923842E0,-1.356253266E0,-1.472993493E0,2.476239051E0
3.911025894E0,1.446539164E0,-1.376411796E0,-1.472382665E0,2.480906224E0
3.913471780E0,1.436765313E0,-1.395348668E0,-1.471160889E0,2.485076826E0
3.915916832E0,1.424548030E0,-1.414896369E0,-1.469939113E0,2.488370917E0
3.918361103E0,1.411719918E0,-1.430167913E0,-1.469939113E0,2.489790028E0
3.920806155E0,1.398891687E0,-1.444828749E0,-1.470550060E0,2.491374228E0
3.923251988E0,1.384841800E0,-1.460711122E0,-1.470550060E0,2.492785845E0
3.925697040E0,1.370791912E0,-1.472317576E0,-1.472993493E0,2.493290866E0
3.928141311E0,1.354909420E0,-1.485756636E0,-1.471160889E0,2.491498882E0
3.930586363E0,1.339637876E0,-1.497973919E0,-1.471771717E0,2.490916997E0
3.933032248E0,1.321311951E0,-1.506525993E0,-1.473604321E0,2.487367190E0
3.935477301E0,1.304207683E0,-1.516299844E0,-1.474826097E0,2.485001995E0
3.937921571E0,1.285270929E0,-1.524851918E0,-1.475436926E0,2.480727485E0
3.940366623E0,1.265723228E0,-1.535847545E0,-1.477880359E0,2.478913739E0
3.942812457E0,1.244342923E0,-1.544399619E0,-1.478491306E0,2.473761516E0
3.945257561E0,1.224795222E0,-1.557227850E0,-1.480323911E0,2.473143909E0
3.947701780E0,1.205247641E0,-1.570666790E0,-1.480934739E0,2.472404445E0
3.950146884E0,1.186310768E0,-1.584716678E0,-1.482156396E0,2.472943139E0
3.952592717E0,1.168595672E0,-1.596933961E0,-1.483378172E0,2.473100224E0
3.955037769E0,1.151491523E0,-1.610373020E0,-1.482767344E0,2.473425355E0
3.957482040E0,1.135609031E0,-1.625644684E0,-1.483378172E0,2.476436817E0
3.959927092E0,1.117283106E0,-1.636640191E0,-1.483989000E0,2.475709193E0
3.962372978E0,1.103233218E0,-1.648857474E0,-1.484599948E0,2.477880447E0
3.964818030E0,1.087961555E0,-1.656187892E0,-1.483378172E0,2.475283717E0
3.967262301E0,1.072079062E0,-1.660463929E0,-1.482767344E0,2.470848634E0
3.969707353E0,1.057418346E0,-1.665961742E0,-1.483378172E0,2.468597352E0
3.972153186E0,1.047033668E0,-1.668405175E0,-1.485210776E0,2.466922451E0
3.974598238E0,1.037259817E0,-1.672070384E0,-1.488265157E0,2.467115821E0
3.977042509E0,1.026264191E0,-1.678179026E0,-1.491930246E0,2.468878063E0
3.979487561E0,1.018322945E0,-1.684898496E0,-1.496206284E0,2.472751060E0
3.981933446E0,1.010381699E0,-1.695283175E0,-1.502315044E0,2.480283595E0
3.984378498E0,9.999970198E-1,-1.707500577E0,-1.510256171E0,2.489262132E0
