"Time (s)","Gyroscope x (rad/s)","Gyroscope y (rad/s)","Gyroscope z (rad/s)","Absolute (rad/s)"
1.031925050E-1,-1.342756953E-2,-2.762253955E-2,-2.768744342E-2,4.135092306E-2
1.056375570E-1,-1.220584102E-2,-2.701167390E-2,-2.707657777E-2,4.014665796E-2
1.080834430E-1,-1.159497630E-2,-2.517908067E-2,-2.646571212E-2,3.832575500E-2
1.105284430E-1,-1.281670574E-2,-2.395734936E-2,-2.707657777E-2,3.835835760E-2
1.129727130E-1,-1.220584102E-2,-2.212475613E-2,-2.646571212E-2,3.659127364E-2
1.154177650E-1,-1.403843518E-2,-2.090302669E-2,-2.585484646E-2,3.608998854E-2
1.178635990E-1,-1.526016463E-2,-2.151389048E-2,-2.524398454E-2,3.650998306E-2
1.203086510E-1,-1.342756953E-2,-2.029216290E-2,-2.218966186E-2,3.293102780E-2
1.227529220E-1,-1.648189314E-2,-2.029216290E-2,-2.218966186E-2,3.429002435E-2
1.251979740E-1,-1.587102748E-2,-1.845956780E-2,-2.096793056E-2,3.212941438E-2
1.276438070E-1,-1.648189314E-2,-2.151389048E-2,-1.852447167E-2,3.282767636E-2
1.300888590E-1,-1.648189314E-2,-1.968129724E-2,-1.669187844E-2,3.062066407E-2
1.325331300E-1,-1.709275879E-2,-2.090302669E-2,-1.669187844E-2,3.174457014E-2
1.349781820E-1,-1.892535202E-2,-1.968129724E-2,-1.424841955E-2,3.079837447E-2
1.374240150E-1,-1.587102748E-2,-2.090302669E-2,-1.180496067E-2,2.877817114E-2
1.398690680E-1,-1.953621767E-2,-2.212475613E-2,-1.180496067E-2,3.178876737E-2
1.423133380E-1,-1.770362258E-2,-1.907043159E-2,-8.750636131E-3,2.745310995E-2
1.447583900E-1,-2.075794525E-2,-2.212475613E-2,-8.139772341E-3,3.141103339E-2
1.472042240E-1,-1.953621767E-2,-2.273562178E-2,-7.528907154E-3,3.090722798E-2
1.496492760E-1,-2.381226979E-2,-2.334648557E-2,-5.085448269E-3,3.373343097E-2
1.520935470E-1,-2.259054221E-2,-2.334648557E-2,-4.474584479E-3,3.279348856E-2
1.545385990E-1,-2.320140414E-2,-2.151389048E-2,-3.252855036E-3,3.180776168E-2
1.569844320E-1,-2.625572868E-2,-2.334648557E-2,-3.252855036E-3,3.528459639E-2
1.594294840E-1,-2.320140414E-2,-2.273562178E-2,-3.863718826E-3,3.271302455E-2
1.618737550E-1,-2.686659433E-2,-2.273562178E-2,-3.863718826E-3,3.540693028E-2
1.643188070E-1,-2.320140414E-2,-2.151389048E-2,-5.085448269E-3,3.204706572E-2
1.667646400E-1,-2.869918756E-2,-2.395734936E-2,-3.863718826E-3,3.758359054E-2
1.692096930E-1,-2.564486302E-2,-2.273562178E-2,-5.696313921E-3,3.474212845E-2
1.716539630E-1,-2.625572868E-2,-2.701167390E-2,-6.307177711E-3,3.819390404E-2
1.740990150E-1,-2.625572868E-2,-2.701167390E-2,-7.528907154E-3,3.841455789E-2
1.765448490E-1,-2.442313544E-2,-2.945513278E-2,-9.361501783E-3,3.939203102E-2
1.789899010E-1,-2.503400110E-2,-3.128772601E-2,-1.058323123E-2,4.144427335E-2
1.814341720E-1,-2.197967656E-2,-2.884426713E-2,-1.058323123E-2,3.777701300E-2
1.838791720E-1,-2.564486302E-2,-2.823340334E-2,-1.119409502E-2,3.975036889E-2
1.863250570E-1,-2.381226979E-2,-2.762253955E-2,-1.424841955E-2,3.915413572E-2
1.887701090E-1,-2.686659433E-2,-2.701167390E-2,-1.424841955E-2,4.067507686E-2
1.912143800E-1,-2.320140414E-2,-2.456821501E-2,-1.547014900E-2,3.716487391E-2
1.936594320E-1,-2.442313544E-2,-2.395734936E-2,-1.669187844E-2,3.806655933E-2
1.961052650E-1,-2.503400110E-2,-2.334648557E-2,-1.791360788E-2,3.863491875E-2
1.985503180E-1,-2.197967656E-2,-2.273562178E-2,-1.852447167E-2,3.664929372E-2
2.009945360E-1,-2.259054221E-2,-2.090302669E-2,-2.035706677E-2,3.690093887E-2
2.034395880E-1,-2.136881091E-2,-2.090302669E-2,-2.035706677E-2,3.616590620E-2
2.058854740E-1,-2.442313544E-2,-1.968129724E-2,-2.096793056E-2,3.772926076E-2
2.083305260E-1,-2.014708333E-2,-1.784870401E-2,-2.157879621E-2,3.449819774E-2
2.107747450E-1,-2.442313544E-2,-1.845956780E-2,-2.341138944E-2,3.854008749E-2
2.132197970E-1,-2.136881091E-2,-1.662697271E-2,-2.218966186E-2,3.500661929E-2
2.156656820E-1,-2.320140414E-2,-1.907043159E-2,-2.280052565E-2,3.770743276E-2
2.181107340E-1,-2.259054221E-2,-1.662697271E-2,-2.402225323E-2,3.693044095E-2
2.205549530E-1,-2.136881091E-2,-1.784870401E-2,-2.218966186E-2,3.560313761E-2
2.230000050E-1,-2.320140414E-2,-1.845956780E-2,-2.218966186E-2,3.703298382E-2
2.254458380E-1,-2.014708333E-2,-1.784870401E-2,-2.096793056E-2,3.411942721E-2
2.278909430E-1,-2.259054221E-2,-1.968129724E-2,-1.913533732E-2,3.555062859E-2
2.303351610E-1,-1.892535202E-2,-1.845956780E-2,-1.913533732E-2,3.263565117E-2
2.327802130E-1,-2.136881091E-2,-2.151389048E-2,-1.730274409E-2,3.491215427E-2
2.352260990E-1,-1.953621767E-2,-1.907043159E-2,-1.485928334E-2,3.108284838E-2
2.376710990E-1,-1.953621767E-2,-2.090302669E-2,-1.363755390E-2,3.169516055E-2
2.401153700E-1,-1.648189314E-2,-1.968129724E-2,-1.363755390E-2,2.906869689E-2
2.425604220E-1,-1.709275879E-2,-2.090302669E-2,-1.180496067E-2,2.946957794E-2
2.450062550E-1,-2.014708333E-2,-1.845956780E-2,-9.361501783E-3,2.888422278E-2
2.474513070E-1,-1.587102748E-2,-1.968129724E-2,-9.361501783E-3,2.696072496E-2
2.498955780E-1,-2.014708333E-2,-1.907043159E-2,-8.750636131E-3,2.908882879E-2
2.523406300E-1,-1.587102748E-2,-1.662697271E-2,-8.139772341E-3,2.438445465E-2
2.547864630E-1,-1.953621767E-2,-1.845956780E-2,-6.918043364E-3,2.775389645E-2
2.572315150E-1,-1.770362258E-2,-1.601610892E-2,-8.139772341E-3,2.522280498E-2
2.596757860E-1,-1.953621767E-2,-1.601610892E-2,-8.750636131E-3,2.673486822E-2
2.621208380E-1,-1.892535202E-2,-1.479438040E-2,-9.361501783E-3,2.578139555E-2
2.645666720E-1,-1.892535202E-2,-1.418351475E-2,-8.750636131E-3,2.521734864E-2
2.670117240E-1,-2.197967656E-2,-1.357265096E-2,-8.750636131E-3,2.727446917E-2
2.694559950E-1,-2.075794525E-2,-1.235092152E-2,-8.750636131E-3,2.569068287E-2
2.719010470E-1,-2.442313544E-2,-1.357265096E-2,-1.058323123E-2,2.987827275E-2
2.743468800E-1,-2.197967656E-2,-1.479438040E-2,-8.750636131E-3,2.790257167E-2
2.767919320E-1,-2.503400110E-2,-1.540524606E-2,-9.361501783E-3,3.084899565E-2
2.792362030E-1,-2.197967656E-2,-1.601610892E-2,-9.361501783E-3,2.876212165E-2
2.816812550E-1,-2.442313544E-2,-1.723783836E-2,-9.361501783E-3,3.132523474E-2
2.841270880E-1,-2.503400110E-2,-1.845956780E-2,-9.361501783E-3,3.248221929E-2
2.865721400E-1,-2.503400110E-2,-2.090302669E-2,-9.361501783E-3,3.393045021E-2
2.890164110E-1,-2.320140414E-2,-2.334648557E-2,-8.139772341E-3,3.390603835E-2
2.914614630E-1,-2.075794525E-2,-2.517908067E-2,-6.918043364E-3,3.335772352E-2
2.939072970E-1,-2.320140414E-2,-2.823340334E-2,-7.528907154E-3,3.731105280E-2
2.963523490E-1,-1.892535202E-2,-2.945513278E-2,-6.918043364E-3,3.568799687E-2
2.987966200E-1,-2.197967656E-2,-3.250945732E-2,-5.085448269E-3,3.957060501E-2
3.012416720E-1,-1.526016463E-2,-3.312032297E-2,-3.863718826E-3,3.667092501E-2
3.036875050E-1,-1.709275879E-2,-3.495291620E-2,-3.863718826E-3,3.909983475E-2
3.061325570E-1,-1.342756953E-2,-3.495291620E-2,-2.031125594E-3,3.749841925E-2
3.085768280E-1,-1.220584102E-2,-3.312032297E-2,-2.031125594E-3,3.535624160E-2
3.110218800E-1,-1.220584102E-2,-3.250945732E-2,-3.252855036E-3,3.487733413E-2
3.134677130E-1,-9.762382135E-3,-3.006599844E-2,-2.031125594E-3,3.167639244E-2
3.159127650E-1,-1.037324686E-2,-2.945513278E-2,-3.252855036E-3,3.139729548E-2
3.183570360E-1,-6.097193807E-3,-2.701167390E-2,-2.031125594E-3,2.776565811E-2
3.208020880E-1,-9.762382135E-3,-2.578994446E-2,-2.641989384E-3,2.770208382E-2
3.232479220E-1,-4.875464365E-3,-2.517908067E-2,-2.641989384E-3,2.578248172E-2
3.256929740E-1,-6.708058529E-3,-2.517908067E-2,-3.252855036E-3,2.625957384E-2
3.281372450E-1,-4.264599644E-3,-2.273562178E-2,-4.474584479E-3,2.356092558E-2
3.305822970E-1,-3.653734690E-3,-2.273562178E-2,-5.696313921E-3,2.372143055E-2
3.330281300E-1,-3.042869968E-3,-2.029216290E-2,-3.252855036E-3,2.077527373E-2
3.354731820E-1,1.145363785E-5,-1.907043159E-2,-3.863718826E-3,1.945789853E-2
3.379174530E-1,-1.821140526E-3,-1.723783836E-2,-3.863718826E-3,1.775916516E-2
3.403625050E-1,2.454912523E-3,-1.296178717E-2,-2.641989384E-3,1.345416776E-2
3.428083380E-1,6.223183591E-4,-1.112919208E-2,-8.093961515E-4,1.117592585E-2
3.452533900E-1,3.676641965E-3,-6.242274307E-3,4.123337567E-4,7.256287190E-3
3.476976610E-1,6.223183591E-4,-3.798815189E-3,1.023198478E-3,3.983115879E-3
3.501427130E-1,3.065777244E-3,-7.444925141E-4,2.244927920E-3,3.872074455E-3
3.525885470E-1,5.509235896E-3,-1.336268615E-4,4.688386805E-3,7.235365031E-3
3.550335990E-1,4.898371175E-3,2.920697676E-3,5.299251527E-3,7.785022917E-3
3.574778700E-1,5.509235896E-3,5.364156328E-3,7.131845690E-3,1.048756770E-2
3.599229220E-1,3.676641965E-3,7.807615213E-3,9.575304575E-3,1.289042316E-2
3.623687550E-1,6.120100617E-3,1.147280168E-2,1.140789874E-2,1.729800461E-2
3.648138070E-1,4.287506454E-3,1.208366733E-2,1.201876346E-2,1.757408327E-2
3.672580780E-1,7.341830060E-3,1.513799187E-2,1.385135762E-2,2.179269085E-2
3.697031300E-1,7.341830060E-3,1.513799187E-2,1.507308707E-2,2.258891808E-2
3.721489630E-1,7.952694781E-3,1.635972038E-2,1.568395272E-2,2.401816350E-2
3.745940150E-1,7.952694781E-3,1.758145168E-2,1.751654595E-2,2.606112391E-2
3.770382860E-1,6.120100617E-3,1.819231361E-2,1.873827539E-2,2.682422172E-2
3.794833380E-1,9.785288945E-3,1.635972038E-2,1.873827539E-2,2.673041891E-2
3.819291720E-1,7.341830060E-3,1.513799187E-2,2.057087049E-2,2.657483733E-2
3.843742240E-1,1.100701839E-2,1.330539491E-2,1.996000484E-2,2.639298734E-2
3.868184950E-1,9.785288945E-3,9.640208445E-3,1.996000484E-2,2.422988427E-2
3.892635470E-1,1.345047727E-2,1.025107410E-2,2.057087049E-2,2.663006894E-2
3.917093800E-1,1.039615367E-2,6.585883908E-3,1.996000484E-2,2.344900149E-2
3.941544320E-1,1.222874783E-2,6.585883908E-3,2.240346372E-2,2.635965339E-2
3.965987030E-1,1.283961255E-2,4.753290676E-3,2.240346372E-2,2.625575383E-2
3.990437550E-1,1.283961255E-2,2.309832023E-3,2.057087049E-2,2.435881128E-2
4.014895880E-1,1.528307237E-2,-1.336268615E-4,1.996000484E-2,2.513945008E-2
4.039346400E-1,1.406134106E-2,-1.355358167E-3,1.934913918E-2,2.395720133E-2
4.063789110E-1,1.711566560E-2,-3.187951399E-3,1.934913918E-2,2.602879617E-2
4.088239630E-1,1.467220671E-2,-7.464003749E-3,1.690568030E-2,2.359633506E-2
4.112697970E-1,1.772653125E-2,-6.853138097E-3,1.690568030E-2,2.543614433E-2
4.137148490E-1,1.711566560E-2,-9.296596982E-3,1.507308707E-2,2.462865563E-2
4.161591200E-1,2.016999014E-2,-1.174005587E-2,1.446222235E-2,2.745566042E-2
4.186041720E-1,1.955912448E-2,-1.296178717E-2,1.385135762E-2,2.724752072E-2
4.210500050E-1,2.016999014E-2,-1.174005587E-2,1.201876346E-2,2.625086835E-2
4.234950570E-1,2.200258337E-2,-1.235092152E-2,1.201876346E-2,2.794833828E-2
4.259393280E-1,1.955912448E-2,-1.357265096E-2,1.018616930E-2,2.589467609E-2
4.283843800E-1,2.383517660E-2,-1.296178717E-2,8.353575133E-3,2.838847984E-2
4.308302130E-1,1.955912448E-2,-1.662697271E-2,5.299251527E-3,2.621254735E-2
4.332752650E-1,2.078085579E-2,-1.479438040E-2,6.520980969E-3,2.632946736E-2
4.357195360E-1,1.833739504E-2,-1.662697271E-2,5.299251527E-3,2.531399504E-2
4.381645880E-1,2.139171772E-2,-1.601610892E-2,5.299251527E-3,2.724341018E-2
4.406104220E-1,1.955912448E-2,-1.601610892E-2,4.688386805E-3,2.571101060E-2
4.430554740E-1,2.016999014E-2,-1.601610892E-2,5.299251527E-3,2.629498647E-2
4.454997450E-1,2.078085579E-2,-1.357265096E-2,5.299251527E-3,2.537997022E-2
4.479447970E-1,1.955912448E-2,-1.296178717E-2,5.299251527E-3,2.405513135E-2
4.503906300E-1,2.200258337E-2,-9.907462634E-3,4.688386805E-3,2.458154718E-2
4.528356820E-1,1.650479995E-2,-8.685733192E-3,5.299251527E-3,1.938897752E-2
4.552799530E-1,2.016999014E-2,-6.242274307E-3,7.131845690E-3,2.228581867E-2
4.577250050E-1,1.894825883E-2,-6.242274307E-3,7.131845690E-3,2.118645143E-2
4.601708380E-1,2.139171772E-2,-3.187951399E-3,7.742710412E-3,2.297211757E-2
4.626158900E-1,2.016999014E-2,-4.409679212E-3,8.964439854E-3,2.250855293E-2
4.650601610E-1,1.955912448E-2,-7.444925141E-4,8.964439854E-3,2.152846492E-2
4.675052130E-1,1.955912448E-2,1.698966371E-3,1.079703402E-2,2.240584256E-2
4.699510470E-1,1.650479995E-2,1.088104444E-3,1.140789874E-2,2.009309698E-2
4.723960990E-1,1.894825883E-2,3.531559603E-3,1.079703402E-2,2.209263157E-2
4.748403700E-1,1.345047727E-2,4.142425023E-3,1.140789874E-2,1.811670990E-2
4.772854220E-1,1.711566560E-2,6.585883908E-3,1.385135762E-2,2.298216665E-2
4.797312550E-1,1.528307237E-2,6.585883908E-3,1.324049290E-2,2.126633067E-2
4.821763070E-1,1.711566560E-2,9.029342793E-3,1.629481651E-2,2.529814391E-2
4.846205780E-1,1.589393616E-2,9.029342793E-3,1.690568030E-2,2.489876029E-2
4.870656300E-1,1.528307237E-2,1.025107410E-2,1.629481651E-2,2.458002983E-2
4.895114630E-1,1.589393616E-2,9.029342793E-3,1.873827539E-2,2.617764700E-2
4.919565150E-1,1.283961255E-2,8.418477140E-3,1.996000484E-2,2.518190225E-2
4.944007860E-1,1.894825883E-2,8.418477140E-3,2.118173428E-2,2.964073442E-2
4.968458380E-1,1.589393616E-2,2.920697676E-3,1.996000484E-2,2.568169532E-2
4.992917240E-1,2.016999014E-2,4.753290676E-3,2.179259807E-2,3.007223977E-2
5.017367760E-1,1.772653125E-2,2.920697676E-3,2.179259807E-2,2.824318884E-2
5.041809950E-1,2.078085579E-2,4.753290676E-3,2.179259807E-2,3.048532549E-2
5.066260470E-1,1.894825883E-2,2.920697676E-3,2.240346372E-2,2.948698313E-2
5.090719320E-1,2.078085579E-2,1.698966371E-3,2.240346372E-2,3.060466698E-2
5.115169840E-1,2.383517660E-2,2.920697676E-3,2.240346372E-2,3.284145711E-2
5.139612030E-1,2.016999014E-2,3.531559603E-3,1.996000484E-2,2.859549280E-2
5.164062550E-1,2.444604225E-2,2.920697676E-3,1.934913918E-2,3.131339400E-2
5.188521400E-1,2.016999014E-2,-7.444925141E-4,1.934913918E-2,2.796018524E-2
5.212971930E-1,2.444604225E-2,2.309832023E-3,1.873827539E-2,3.088797939E-2
5.237414110E-1,2.261344902E-2,2.309832023E-3,1.751654595E-2,2.869726089E-2
5.261864630E-1,2.627863549E-2,4.753290676E-3,1.751654595E-2,3.193727974E-2
5.286323490E-1,2.444604225E-2,5.975021981E-3,1.629481651E-2,2.998050891E-2
5.310774010E-1,2.383517660E-2,5.975021981E-3,1.507308707E-2,2.882732185E-2
5.335216200E-1,2.505690791E-2,7.807615213E-3,1.507308707E-2,3.026558182E-2
5.359666720E-1,2.322431467E-2,8.418477140E-3,1.385135762E-2,2.832136398E-2
5.384125570E-1,2.566777356E-2,8.418477140E-3,1.385135762E-2,3.035729673E-2
5.408576090E-1,2.261344902E-2,8.418477140E-3,1.201876346E-2,2.695717918E-2
5.433018280E-1,2.505690791E-2,1.086193975E-2,1.140789874E-2,2.959679920E-2
5.457469320E-1,2.261344902E-2,7.807615213E-3,1.262962818E-2,2.705243871E-2
5.481927650E-1,2.444604225E-2,9.640208445E-3,1.018616930E-2,2.818333986E-2
5.506378180E-1,2.261344902E-2,7.196749561E-3,1.140789874E-2,2.633061782E-2
5.530820360E-1,2.322431467E-2,1.147280168E-2,1.079703402E-2,2.806367606E-2
5.555270880E-1,2.322431467E-2,1.025107410E-2,1.079703402E-2,2.758675871E-2
5.579729740E-1,2.139171772E-2,9.640208445E-3,1.140789874E-2,2.608983249E-2
5.604180260E-1,2.261344902E-2,1.147280168E-2,1.201876346E-2,2.806143136E-2
5.628622970E-1,2.078085579E-2,1.086193975E-2,1.201876346E-2,2.634912480E-2
5.653073490E-1,2.322431467E-2,1.147280168E-2,1.079703402E-2,2.806367606E-2
5.677531820E-1,1.955912448E-2,9.029342793E-3,1.140789874E-2,2.437680323E-2
5.701982340E-1,2.200258337E-2,9.029342793E-3,1.324049290E-2,2.722045846E-2
5.726425050E-1,1.894825883E-2,7.196749561E-3,1.324049290E-2,2.421033600E-2
5.750875570E-1,2.078085579E-2,7.196749561E-3,1.385135762E-2,2.599033050E-2
5.775333900E-1,2.016999014E-2,4.753290676E-3,1.324049290E-2,2.459131812E-2
5.799784430E-1,1.711566560E-2,4.142425023E-3,1.324049290E-2,2.203216617E-2
5.824227130E-1,2.078085579E-2,4.753290676E-3,1.446222235E-2,2.576031084E-2
5.848677650E-1,1.772653125E-2,4.142425023E-3,1.446222235E-2,2.324963377E-2
5.873135990E-1,2.261344902E-2,2.920697676E-3,1.568395272E-2,2.767462600E-2
5.897586510E-1,1.833739504E-2,2.309832023E-3,1.385135762E-2,2.309665536E-2
5.922029220E-1,2.200258337E-2,4.142425023E-3,1.507308707E-2,2.699020774E-2
5.946479740E-1,2.016999014E-2,1.698966371E-3,1.446222235E-2,2.487711527E-2
5.970938070E-1,1.894825883E-2,1.088104444E-3,1.385135762E-2,2.349639530E-2
5.995388590E-1,2.078085579E-2,4.772387911E-4,1.568395272E-2,2.603954871E-2
6.019831300E-1,1.894825883E-2,1.088104444E-3,1.446222235E-2,2.386160848E-2
6.044281820E-1,2.139171772E-2,4.772387911E-4,1.507308707E-2,2.617310256E-2
6.068740150E-1,1.833739504E-2,-7.444925141E-4,1.446222235E-2,2.336600525E-2
6.093190680E-1,2.078085579E-2,1.088104444E-3,1.446222235E-2,2.534134593E-2
6.117633380E-1,1.955912448E-2,1.088104444E-3,1.568395272E-2,2.509441561E-2
6.142083900E-1,2.016999014E-2,1.088104444E-3,1.446222235E-2,2.484287319E-2
6.166542240E-1,2.139171772E-2,-7.444925141E-4,1.568395272E-2,2.653575378E-2
6.190992760E-1,1.833739504E-2,4.772387911E-4,1.507308707E-2,2.374206746E-2
6.215435470E-1,1.772653125E-2,1.088104444E-3,1.568395272E-2,2.369388644E-2
6.239885990E-1,1.772653125E-2,1.088104444E-3,1.629481651E-2,2.410259170E-2
6.264344320E-1,1.833739504E-2,1.698966371E-3,1.690568030E-2,2.499897138E-2
6.288794840E-1,1.772653125E-2,4.142425023E-3,1.568395272E-2,2.402864891E-2
6.313237550E-1,1.650479995E-2,6.585883908E-3,1.690568030E-2,2.452721579E-2
6.337688070E-1,1.711566560E-2,9.029342793E-3,1.629481651E-2,2.529814391E-2
6.362146400E-1,1.650479995E-2,1.269453298E-2,1.690568030E-2,2.682091750E-2
6.386596930E-1,1.406134106E-2,1.452712622E-2,1.873827539E-2,2.756595134E-2
6.411039630E-1,1.467220671E-2,1.819231361E-2,1.812741160E-2,2.957764318E-2
6.435490150E-1,1.345047727E-2,2.246836945E-2,1.751654595E-2,3.150511620E-2
6.459948490E-1,1.406134106E-2,2.369009703E-2,1.996000484E-2,3.401975607E-2
6.484399010E-1,1.100701839E-2,2.552269399E-2,1.812741160E-2,3.318381253E-2
6.508841720E-1,9.785288945E-3,2.735528722E-2,1.629481651E-2,3.331042876E-2
6.533292240E-1,1.039615367E-2,2.857701480E-2,1.507308707E-2,3.394000206E-2
6.557751090E-1,8.563559502E-3,3.163133562E-2,1.629481651E-2,3.659777301E-2
6.582201610E-1,7.341830060E-3,3.407479823E-2,1.507308707E-2,3.797620698E-2
6.606643800E-1,7.341830060E-3,3.285306692E-2,1.507308707E-2,3.688393185E-2
6.631094320E-1,6.730965339E-3,3.285306692E-2,1.446222235E-2,3.652103196E-2
6.655553180E-1,6.120100617E-3,3.285306692E-2,1.324049290E-2,3.594565746E-2
6.680003700E-1,4.898371175E-3,3.102047741E-2,1.324049290E-2,3.408188245E-2
6.704445880E-1,4.898371175E-3,3.040961176E-2,1.201876346E-2,3.306341184E-2
6.728896400E-1,3.676641965E-3,2.979874611E-2,9.575304575E-3,3.151459064E-2
6.753355260E-1,4.287506454E-3,2.857701480E-2,8.964439854E-3,3.025540726E-2
6.777805780E-1,4.898371175E-3,2.796614915E-2,7.742710412E-3,2.942871222E-2
6.802247970E-1,3.676641965E-3,2.674442157E-2,5.910116248E-3,2.763532622E-2
6.826699010E-1,3.676641965E-3,2.552269399E-2,6.520980969E-3,2.659790965E-2
6.851157340E-1,3.065777244E-3,2.430096269E-2,5.910116248E-3,2.519653253E-2
6.875607860E-1,2.454912523E-3,2.552269399E-2,5.910116248E-3,2.631281015E-2
6.900050570E-1,2.454912523E-3,2.430096269E-2,5.299251527E-3,2.499290799E-2
6.924501090E-1,1.233183080E-3,2.552269399E-2,2.244927920E-3,2.565089376E-2
6.948959430E-1,6.223183591E-4,2.369009703E-2,4.077522084E-3,2.404650004E-2
6.973409950E-1,-1.210275805E-3,2.124663815E-2,1.634063199E-3,2.134372420E-2
6.997852650E-1,1.844047802E-3,1.880317926E-2,1.634063199E-3,1.896391904E-2
7.022303180E-1,1.145363785E-5,1.880317926E-2,2.244927920E-3,1.893672049E-2
7.046761510E-1,1.233183080E-3,1.574885845E-2,2.855792642E-3,1.605312539E-2
7.071212030E-1,1.233183080E-3,1.513799187E-2,2.244927920E-3,1.535315081E-2
7.095654740E-1,1.844047802E-3,1.391626056E-2,3.466657363E-3,1.445961734E-2
7.120105260E-1,1.844047802E-3,1.330539491E-2,4.688386805E-3,1.422726315E-2
7.144563590E-1,3.065777244E-3,1.208366733E-2,4.077522084E-3,1.311640929E-2
7.169014110E-1,1.844047802E-3,1.269453298E-2,5.299251527E-3,1.387925598E-2
7.193456820E-1,3.676641965E-3,1.086193975E-2,7.131845690E-3,1.350417173E-2
7.217907340E-1,4.287506454E-3,1.269453298E-2,7.131845690E-3,1.517883731E-2
7.242365680E-1,4.287506454E-3,1.208366733E-2,7.742710412E-3,1.497822727E-2
7.266816200E-1,4.287506454E-3,1.086193975E-2,8.964439854E-3,1.472160415E-2
7.291258900E-1,4.287506454E-3,1.330539491E-2,8.964439854E-3,1.660654772E-2
7.315709430E-1,4.287506454E-3,1.147280168E-2,1.018616930E-2,1.593003248E-2
7.340167760E-1,6.120100617E-3,1.147280168E-2,1.018616930E-2,1.651783445E-2
7.364618280E-1,6.730965339E-3,1.086193975E-2,1.140789874E-2,1.712973389E-2
7.389060990E-1,6.730965339E-3,1.147280168E-2,1.079703402E-2,1.713204647E-2
7.413511510E-1,5.509235896E-3,1.086193975E-2,1.018616930E-2,1.587738833E-2
7.437969840E-1,7.341830060E-3,9.029342793E-3,1.201876346E-2,1.672967947E-2
7.462420360E-1,7.952694781E-3,7.807615213E-3,1.324049290E-2,1.730649768E-2
7.486863070E-1,8.563559502E-3,7.196749561E-3,1.262962818E-2,1.687113700E-2
7.511313590E-1,9.174424224E-3,5.364156328E-3,1.324049290E-2,1.697807072E-2
7.535772450E-1,1.161788311E-2,4.142425023E-3,1.385135762E-2,1.854710223E-2
7.560222450E-1,1.100701839E-2,3.531559603E-3,1.385135762E-2,1.804124372E-2
7.584665150E-1,1.100701839E-2,4.753290676E-3,1.507308707E-2,1.925996313E-2
7.609115680E-1,1.345047727E-2,2.309832023E-3,1.629481651E-2,2.125492197E-2
7.633574530E-1,1.406134106E-2,1.698966371E-3,1.568395272E-2,2.113277483E-2
7.658025050E-1,1.589393616E-2,3.531559603E-3,1.507308707E-2,2.218754321E-2
7.682467240E-1,1.589393616E-2,4.142425023E-3,1.385135762E-2,2.148573945E-2
7.706917760E-1,1.833739504E-2,5.364156328E-3,1.446222235E-2,2.396226419E-2
7.731376610E-1,1.833739504E-2,9.640208445E-3,1.324049290E-2,2.458666972E-2
7.755827130E-1,1.711566560E-2,1.208366733E-2,1.262962818E-2,2.446361652E-2
7.780269840E-1,1.894825883E-2,1.147280168E-2,1.262962818E-2,2.549841562E-2
7.804719840E-1,2.016999014E-2,1.391626056E-2,1.201876346E-2,2.729361620E-2
7.829178700E-1,1.833739504E-2,1.391626056E-2,1.079703402E-2,2.542633101E-2
7.853629220E-1,1.894825883E-2,1.391626056E-2,9.575304575E-3,2.538474500E-2
7.878071930E-1,1.894825883E-2,1.330539491E-2,1.018616930E-2,2.529482341E-2
7.902522450E-1,2.016999014E-2,1.208366733E-2,8.353575133E-3,2.495246953E-2
7.926980780E-1,1.894825883E-2,1.269453298E-2,9.575304575E-3,2.473608979E-2
7.951431300E-1,2.078085579E-2,1.147280168E-2,9.575304575E-3,2.559600757E-2
7.975874010E-1,1.772653125E-2,1.025107410E-2,1.140789874E-2,2.344044761E-2
8.000324530E-1,1.894825883E-2,8.418477140E-3,1.079703402E-2,2.337698042E-2
8.024782860E-1,1.833739504E-2,7.807615213E-3,1.140789874E-2,2.296429981E-2
8.049233380E-1,1.894825883E-2,7.196749561E-3,1.201876346E-2,2.356438822E-2
8.073676090E-1,1.894825883E-2,4.753290676E-3,1.385135762E-2,2.394765945E-2
8.098126610E-1,1.955912448E-2,2.309832023E-3,1.568395272E-2,2.517699441E-2
8.122584950E-1,2.016999014E-2,4.772387911E-4,1.690568030E-2,2.632220138E-2
8.147035470E-1,1.955912448E-2,-2.577085746E-3,1.751654595E-2,2.638238245E-2
8.171478180E-1,1.955912448E-2,-6.242274307E-3,1.873827539E-2,2.779655201E-2
8.195928700E-1,2.016999014E-2,-9.296596982E-3,1.934913918E-2,2.945580426E-2
8.220387030E-1,2.078085579E-2,-1.051832829E-2,2.057087049E-2,3.107474714E-2
8.244837550E-1,2.016999014E-2,-1.112919208E-2,2.118173428E-2,3.129462071E-2
8.269280260E-1,2.078085579E-2,-1.174005587E-2,2.118173428E-2,3.191142031E-2
8.293730780E-1,2.078085579E-2,-1.235092152E-2,2.118173428E-2,3.214117448E-2
8.318189110E-1,2.261344902E-2,-1.112919208E-2,2.118173428E-2,3.292252815E-2
8.342639630E-1,2.078085579E-2,-9.907462634E-3,2.179259807E-2,3.170045920E-2
8.367082340E-1,2.139171772E-2,-1.112919208E-2,2.057087049E-2,3.169582332E-2
8.391532860E-1,2.078085579E-2,-8.685733192E-3,1.996000484E-2,3.009464606E-2
8.415991200E-1,2.016999014E-2,-6.853138097E-3,1.873827539E-2,2.837105865E-2
8.440442240E-1,2.016999014E-2,-5.020544864E-3,1.996000484E-2,2.881728936E-2
8.464884430E-1,2.016999014E-2,-3.798815189E-3,1.873827539E-2,2.779176971E-2
8.489334950E-1,2.016999014E-2,-1.355358167E-3,1.690568030E-2,2.635275174E-2
8.513793800E-1,1.955912448E-2,4.772387911E-4,1.690568030E-2,2.585709059E-2
8.538244320E-1,1.894825883E-2,2.920697676E-3,1.690568030E-2,2.556108398E-2
8.562686510E-1,1.833739504E-2,7.196749561E-3,1.568395272E-2,2.518014365E-2
8.587137030E-1,1.833739504E-2,9.029342793E-3,1.507308707E-2,2.539659509E-2
8.611595880E-1,1.711566560E-2,1.147280168E-2,1.446222235E-2,2.517393617E-2
8.636046400E-1,1.711566560E-2,1.330539491E-2,1.324049290E-2,2.540256276E-2
8.660489110E-1,1.589393616E-2,1.452712622E-2,1.507308707E-2,2.628407420E-2
8.684939630E-1,1.589393616E-2,1.513799187E-2,1.446222235E-2,2.628558311E-2
8.709397970E-1,1.467220671E-2,1.635972038E-2,1.446222235E-2,2.630722289E-2
8.733848490E-1,1.283961255E-2,1.819231361E-2,1.446222235E-2,2.655130506E-2
8.758291200E-1,1.222874783E-2,1.880317926E-2,1.446222235E-2,2.668815653E-2
8.782741720E-1,1.406134106E-2,1.819231361E-2,1.507308707E-2,2.749326355E-2
8.807200050E-1,1.345047727E-2,1.758145168E-2,1.568395272E-2,2.712948866E-2
8.831650570E-1,1.406134106E-2,1.758145168E-2,1.690568030E-2,2.815369926E-2
8.856093280E-1,1.345047727E-2,1.697058603E-2,1.690568030E-2,2.747213416E-2
8.880543800E-1,1.406134106E-2,1.758145168E-2,1.629481651E-2,2.779118207E-2
8.905002130E-1,1.283961255E-2,1.635972038E-2,1.751654595E-2,2.719054033E-2
8.929452650E-1,1.100701839E-2,1.574885845E-2,1.690568030E-2,2.559263610E-2
8.953895360E-1,1.100701839E-2,1.513799187E-2,1.751654595E-2,2.563479342E-2
8.978345880E-1,9.174424224E-3,1.452712622E-2,1.690568030E-2,2.410413828E-2
9.002804220E-1,9.785288945E-3,1.391626056E-2,1.690568030E-2,2.398366557E-2
9.027254740E-1,9.785288945E-3,1.269453298E-2,1.629481651E-2,2.285659844E-2
9.051697450E-1,7.952694781E-3,1.269453298E-2,1.690568030E-2,2.258757509E-2
9.076147970E-1,8.563559502E-3,1.269453298E-2,1.751654595E-2,2.326617934E-2
9.100606300E-1,8.563559502E-3,1.025107410E-2,1.568395272E-2,2.060110299E-2
9.125056820E-1,9.785288945E-3,1.025107410E-2,1.385135762E-2,1.981657155E-2
9.149499530E-1,8.563559502E-3,1.086193975E-2,1.140789874E-2,1.792920634E-2
9.173950050E-1,9.174424224E-3,9.640208445E-3,1.201876346E-2,1.793193670E-2
9.198408380E-1,8.563559502E-3,8.418477140E-3,1.201876346E-2,1.698987886E-2
9.222858900E-1,7.341830060E-3,8.418477140E-3,1.079703402E-2,1.553541662E-2
9.247301610E-1,8.563559502E-3,6.585883908E-3,9.575304575E-3,1.443588847E-2
9.271752130E-1,7.341830060E-3,5.364156328E-3,7.742710412E-3,1.194262141E-2
9.296210470E-1,6.730965339E-3,3.531559603E-3,7.131845690E-3,1.042310081E-2
9.320661510E-1,7.341830060E-3,3.531559603E-3,7.131845690E-3,1.082763154E-2
9.345103700E-1,6.120100617E-3,-1.336268615E-4,5.910116248E-3,8.508992994E-3
9.369554220E-1,6.730965339E-3,-1.336268615E-4,4.688386805E-3,8.203945475E-3
9.394013070E-1,7.952694781E-3,-2.577085746E-3,4.688386805E-3,9.584763746E-3
9.418463590E-1,9.174424224E-3,-2.577085746E-3,3.466657363E-3,1.014047060E-2
9.442905780E-1,9.174424224E-3,-3.187951399E-3,1.634063199E-3,9.849023124E-3
9.467356300E-1,9.174424224E-3,-2.577085746E-3,1.023198478E-3,9.584277015E-3
9.491815150E-1,9.174424224E-3,-2.577085746E-3,1.023198478E-3,9.584277015E-3
9.516265680E-1,7.952694781E-3,-2.577085746E-3,4.123337567E-4,8.369990702E-3
9.540708380E-1,8.563559502E-3,-2.577085746E-3,-1.420259941E-3,9.055001966E-3
9.565158380E-1,7.952694781E-3,-1.966220094E-3,-2.031125594E-3,8.440192351E-3
9.589617240E-1,6.730965339E-3,-3.798815189E-3,-2.031125594E-3,7.991393020E-3
9.614067760E-1,6.120100617E-3,-3.187951399E-3,-3.252855036E-3,7.628874857E-3
9.638510470E-1,6.730965339E-3,-1.966220094E-3,-3.863718826E-3,8.006262487E-3
9.662960990E-1,6.120100617E-3,-1.355358167E-3,-3.863718826E-3,7.363487658E-3
9.687419320E-1,6.730965339E-3,-7.444925141E-4,-3.863718826E-3,7.796697164E-3
9.711869840E-1,5.509235896E-3,-7.444925141E-4,-2.641989384E-3,6.155165080E-3
9.736312550E-1,5.509235896E-3,1.088104444E-3,-3.252855036E-3,6.489739388E-3
9.760763070E-1,4.898371175E-3,1.088104444E-3,-3.863718826E-3,6.332956230E-3
9.785221400E-1,5.509235896E-3,4.772387911E-4,-1.420259941E-3,5.709341059E-3
9.809671930E-1,3.676641965E-3,-1.355358167E-3,-2.641989384E-3,4.725970779E-3
9.834114630E-1,3.065777244E-3,-1.355358167E-3,-8.093961515E-4,3.448348590E-3
9.858565150E-1,3.676641965E-3,-3.798815189E-3,4.123337567E-4,5.302707998E-3
9.883023490E-1,4.898371175E-3,-5.020544864E-3,4.123337567E-4,7.026373889E-3
9.907474010E-1,5.509235896E-3,-5.020544864E-3,1.634063199E-3,7.630708580E-3
9.931916720E-1,4.898371175E-3,-6.853138097E-3,1.023198478E-3,8.485663030E-3
9.956367240E-1,6.120100617E-3,-8.685733192E-3,2.244927920E-3,1.085989383E-2
9.980825570E-1,7.341830060E-3,-9.296596982E-3,2.855792642E-3,1.218543129E-2
1.000527609E0,6.730965339E-3,-1.174005587E-2,2.855792642E-3,1.383077575E-2
1.002971880E0,7.341830060E-3,-1.296178717E-2,4.077522084E-3,1.544462954E-2
1.005416932E0,7.952694781E-3,-1.235092152E-2,5.910116248E-3,1.583414319E-2
1.007862765E0,6.730965339E-3,-1.296178717E-2,4.077522084E-3,1.516377286E-2
1.010307818E0,8.563559502E-3,-1.357265096E-2,4.688386805E-3,1.671922176E-2
1.012752088E0,7.341830060E-3,-1.357265096E-2,5.299251527E-3,1.631567925E-2
1.015197140E0,5.509235896E-3,-1.235092152E-2,4.077522084E-3,1.412526562E-2
1.017643026E0,7.341830060E-3,-1.112919208E-2,3.466657363E-3,1.377603347E-2
1.020088078E0,7.952694781E-3,-8.074869402E-3,2.855792642E-3,1.168778943E-2
1.022532297E0,7.952694781E-3,-2.577085746E-3,2.244927920E-3,8.656005233E-3
1.024977349E0,9.785288945E-3,-7.444925141E-4,2.244927920E-3,1.006706761E-2
1.027423234E0,7.952694781E-3,2.309832023E-3,1.023198478E-3,8.344316232E-3
1.029868286E0,9.174424224E-3,4.142425023E-3,-8.093961515E-4,1.009875572E-2
1.032312505E0,7.952694781E-3,8.418477140E-3,-2.031125594E-3,1.175761808E-2
1.034757609E0,6.120100617E-3,8.418477140E-3,-3.252855036E-3,1.090446949E-2
1.037203443E0,5.509235896E-3,1.025107410E-2,-3.863718826E-3,1.226232129E-2
1.039648495E0,5.509235896E-3,1.147280168E-2,-5.696313921E-3,1.394363119E-2
1.042092713E0,5.509235896E-3,1.208366733E-2,-5.696313921E-3,1.445042174E-2
1.044537818E0,6.120100617E-3,1.269453298E-2,-6.918043364E-3,1.569923957E-2
1.046983651E0,6.120100617E-3,1.391626056E-2,-6.307177711E-3,1.645899238E-2
1.049428703E0,7.952694781E-3,1.513799187E-2,-6.918043364E-3,1.844623203E-2
1.051872974E0,6.120100617E-3,1.391626056E-2,-6.307177711E-3,1.645899238E-2
1.054318026E0,6.120100617E-3,1.147280168E-2,-5.696313921E-3,1.419608404E-2
1.056763859E0,7.341830060E-3,1.208366733E-2,-4.474584479E-3,1.483035371E-2
1.059208911E0,7.952694781E-3,9.029342793E-3,-3.863718826E-3,1.263735371E-2
1.061653182E0,7.952694781E-3,8.418477140E-3,-2.641989384E-3,1.187839297E-2
1.064098234E0,8.563559502E-3,4.753290676E-3,-1.420259941E-3,9.896739963E-3
1.066544068E0,7.952694781E-3,2.309832023E-3,-1.420259941E-3,8.402250684E-3
1.068989120E0,8.563559502E-3,-1.355358167E-3,-1.985309646E-4,8.672425362E-3
1.071433390E0,1.039615367E-2,-4.409679212E-3,-1.985309646E-4,1.129445423E-2
1.073878443E0,1.161788311E-2,-8.074869402E-3,1.023198478E-3,1.418540302E-2
1.076324276E0,1.039615367E-2,-1.112919208E-2,2.244927920E-3,1.539411019E-2
1.078769328E0,1.039615367E-2,-1.357265096E-2,1.634063199E-3,1.717460415E-2
1.081213599E0,1.161788311E-2,-1.601610892E-2,2.244927920E-3,1.991307746E-2
1.083658651E0,1.283961255E-2,-1.601610892E-2,2.855792642E-3,2.072503189E-2
1.086104484E0,1.345047727E-2,-1.723783836E-2,2.244927920E-3,2.197949298E-2
1.088549536E0,1.467220671E-2,-1.540524606E-2,1.634063199E-3,2.133694961E-2
1.090993807E0,1.345047727E-2,-1.662697271E-2,2.244927920E-3,2.150374994E-2
1.093438859E0,1.100701839E-2,-1.540524606E-2,1.634063199E-3,1.900384757E-2
1.095884745E0,1.283961255E-2,-1.418351475E-2,1.023198478E-3,1.915919300E-2
1.098329745E0,1.161788311E-2,-1.296178717E-2,4.123337567E-4,1.741129386E-2
1.100774015E0,9.785288945E-3,-1.112919208E-2,-1.420259941E-3,1.488717348E-2
1.103219068E0,9.174424224E-3,-1.051832829E-2,-1.420259941E-3,1.402934168E-2
1.105664953E0,9.785288945E-3,-1.051832829E-2,-1.420259941E-3,1.443621308E-2
1.108110005E0,1.039615367E-2,-1.051832829E-2,-2.031125594E-3,1.492785022E-2
1.110554224E0,9.785288945E-3,-8.685733192E-3,-2.641989384E-3,1.334818148E-2
1.112999276E0,9.174424224E-3,-5.631410517E-3,-3.252855036E-3,1.124561737E-2
1.115445161E0,9.785288945E-3,-5.020544864E-3,-2.641989384E-3,1.131096187E-2
1.117890213E0,7.952694781E-3,-3.187951399E-3,-2.641989384E-3,8.965963211E-3
1.120334432E0,7.341830060E-3,-2.577085746E-3,-2.641989384E-3,8.217295630E-3
1.122779536E0,7.341830060E-3,-1.966220094E-3,-8.093961515E-4,7.643534014E-3
1.125225370E0,6.120100617E-3,-7.444925141E-4,-1.420259941E-3,6.326692578E-3
1.127670422E0,6.120100617E-3,-7.444925141E-4,-8.093961515E-4,6.218120520E-3
1.130114693E0,6.120100617E-3,-1.966220094E-3,4.123337567E-4,6.441402965E-3
1.132559745E0,6.120100617E-3,-1.336268615E-4,4.123337567E-4,6.135430452E-3
1.135005578E0,5.509235896E-3,1.088104444E-3,1.634063199E-3,5.848573670E-3
1.137450630E0,4.898371175E-3,4.772387911E-4,2.855792642E-3,5.690109722E-3
1.139894901E0,6.120100617E-3,2.309832023E-3,2.244927920E-3,6.915971147E-3
1.142339953E0,5.509235896E-3,2.309832023E-3,4.688386805E-3,7.593943309E-3
1.144785786E0,3.676641965E-3,1.698966371E-3,4.688386805E-3,6.195575333E-3
1.147230838E0,4.287506454E-3,2.920697676E-3,4.688386805E-3,6.992435723E-3
1.149675109E0,4.287506454E-3,3.531559603E-3,5.299251527E-3,7.677023614E-3
1.152120161E0,4.898371175E-3,3.531559603E-3,6.520980969E-3,8.887583822E-3
1.154565995E0,2.454912523E-3,3.531559603E-3,7.131845690E-3,8.328369089E-3
1.157011047E0,1.233183080E-3,3.531559603E-3,7.742710412E-3,8.598966116E-3
1.159455318E0,1.844047802E-3,2.920697676E-3,7.742710412E-3,8.478239896E-3
1.161900370E0,1.233183080E-3,4.753290676E-3,7.131845690E-3,8.658968513E-3
1.164346203E0,1.233183080E-3,4.753290676E-3,4.688386805E-3,6.789365478E-3
1.166791255E0,6.223183591E-4,5.975021981E-3,3.466657363E-3,6.935840330E-3
1.169235526E0,3.065777244E-3,7.196749561E-3,4.688386805E-3,9.119932301E-3
1.171680578E0,1.233183080E-3,7.807615213E-3,3.466657363E-3,8.631182370E-3
1.174126411E0,1.145363785E-5,9.640208445E-3,2.244927920E-3,9.898153940E-3
1.176571463E0,6.223183591E-4,1.147280168E-2,4.123337567E-4,1.149706387E-2
1.179015734E0,1.233183080E-3,1.025107410E-2,4.123337567E-4,1.033321246E-2
1.181460786E0,1.233183080E-3,8.418477140E-3,-2.031125594E-3,8.747397845E-3
1.183906672E0,1.145363785E-5,6.585883908E-3,-2.641989384E-3,7.096062707E-3
1.186351724E0,2.454912523E-3,6.585883908E-3,-4.474584479E-3,8.332008678E-3
1.188795943E0,1.233183080E-3,2.920697676E-3,-6.918043364E-3,7.609897464E-3
1.191240995E0,1.844047802E-3,-1.336268615E-4,-7.528907154E-3,7.752600297E-3
1.193686880E0,2.454912523E-3,-1.355358167E-3,-8.139772341E-3,8.609267391E-3
1.196131932E0,2.454912523E-3,-3.187951399E-3,-9.972365573E-3,1.075349733E-2
1.198576203E0,2.454912523E-3,-4.409679212E-3,-9.972365573E-3,1.117675898E-2
1.201021255E0,3.065777244E-3,-7.464003749E-3,-1.119409502E-2,1.379920669E-2
1.203467088E0,3.065777244E-3,-8.685733192E-3,-9.361501783E-3,1.313311337E-2
1.205912140E0,3.676641965E-3,-9.907462634E-3,-9.361501783E-3,1.411783367E-2
1.208356411E0,4.287506454E-3,-1.112919208E-2,-1.058323123E-2,1.594510618E-2
1.210801463E0,4.898371175E-3,-1.296178717E-2,-1.058323123E-2,1.743578934E-2
1.213247297E0,4.898371175E-3,-1.357265096E-2,-1.058323123E-2,1.789457117E-2
1.215692349E0,7.341830060E-3,-1.479438040E-2,-9.361501783E-3,1.898456941E-2
1.218136620E0,6.730965339E-3,-1.479438040E-2,-8.750636131E-3,1.845950212E-2
1.220581672E0,7.341830060E-3,-1.540524606E-2,-7.528907154E-3,1.865230596E-2
1.223027505E0,6.730965339E-3,-1.479438040E-2,-6.918043364E-3,1.766462312E-2
1.225472557E0,7.952694781E-3,-1.540524606E-2,-6.307177711E-3,1.844850810E-2
1.227916828E0,7.952694781E-3,-1.540524606E-2,-5.085448269E-3,1.806733916E-2
1.230361880E0,7.341830060E-3,-1.540524606E-2,-4.474584479E-3,1.764216486E-2
1.232807713E0,7.341830060E-3,-1.540524606E-2,-2.031125594E-3,1.718573670E-2
1.235252765E0,9.174424224E-3,-1.418351475E-2,-2.641989384E-3,1.709743426E-2
1.237697036E0,8.563559502E-3,-1.174005587E-2,-8.093961515E-4,1.455398864E-2
1.240142088E0,7.952694781E-3,-1.174005587E-2,-1.420259941E-3,1.425101415E-2
1.242587922E0,7.341830060E-3,-1.357265096E-2,-1.985309646E-4,1.543239247E-2
1.245032974E0,8.563559502E-3,-1.174005587E-2,4.123337567E-4,1.453731345E-2
1.247477245E0,6.120100617E-3,-1.112919208E-2,1.023198478E-3,1.274211454E-2
1.249922297E0,8.563559502E-3,-8.685733192E-3,2.244927920E-3,1.240226648E-2
1.252368130E0,4.287506454E-3,-9.296596982E-3,1.634063199E-3,1.036723635E-2
1.254813182E0,7.952694781E-3,-6.853138097E-3,2.244927920E-3,1.073548124E-2
1.257257453E0,4.898371175E-3,-6.242274307E-3,2.244927920E-3,8.246194883E-3
1.259702505E0,3.676641965E-3,-3.187951399E-3,2.855792642E-3,5.642364919E-3
1.262148338E0,6.730965339E-3,-3.798815189E-3,2.855792642E-3,8.239687060E-3
1.264593443E0,4.287506454E-3,-1.966220094E-3,1.023198478E-3,4.826558626E-3
1.267037661E0,9.174424224E-3,-7.444925141E-4,4.123337567E-4,9.213812895E-3
1.269482713E0,6.120100617E-3,-1.966220094E-3,1.023198478E-3,6.509115773E-3
1.271928599E0,8.563559502E-3,-7.444925141E-4,1.023198478E-3,8.656544090E-3
1.274373651E0,6.730965339E-3,-1.966220094E-3,1.023198478E-3,7.086526016E-3
1.276817870E0,7.952694781E-3,-7.444925141E-4,2.244927920E-3,8.296946713E-3
1.279262922E0,7.952694781E-3,-1.966220094E-3,1.023198478E-3,8.255804677E-3
1.281708807E0,7.341830060E-3,-2.577085746E-3,2.244927920E-3,8.098366560E-3
1.284153859E0,7.341830060E-3,-3.798815189E-3,1.634063199E-3,8.426365053E-3
1.286598078E0,5.509235896E-3,-4.409679212E-3,2.855792642E-3,7.612654105E-3
1.289043182E0,7.952694781E-3,-5.631410517E-3,2.855792642E-3,1.015449114E-2
1.291489015E0,5.509235896E-3,-9.296596982E-3,2.855792642E-3,1.117738553E-2
1.293934068E0,8.563559502E-3,-6.853138097E-3,2.855792642E-3,1.133382569E-2
1.296378338E0,4.287506454E-3,-1.112919208E-2,4.077522084E-3,1.260427762E-2
1.298823390E0,6.730965339E-3,-9.907462634E-3,4.688386805E-3,1.286253012E-2
1.301269224E0,6.730965339E-3,-1.112919208E-2,4.688386805E-3,1.382554814E-2
1.303714276E0,8.563559502E-3,-1.357265096E-2,5.299251527E-3,1.690069443E-2
1.306158547E0,8.563559502E-3,-1.235092152E-2,4.688386805E-3,1.574359503E-2
1.308603599E0,6.730965339E-3,-1.235092152E-2,4.688386805E-3,1.482673692E-2
1.311049432E0,9.785288945E-3,-9.296596982E-3,5.910116248E-3,1.473458751E-2
1.313494484E0,6.730965339E-3,-9.907462634E-3,4.688386805E-3,1.286253012E-2
1.315938755E0,1.100701839E-2,-8.074869402E-3,3.466657363E-3,1.408459026E-2
1.318383807E0,6.730965339E-3,-9.907462634E-3,3.466657363E-3,1.246921904E-2
1.320829640E0,7.341830060E-3,-7.464003749E-3,3.466657363E-3,1.102866873E-2
1.323274693E0,7.952694781E-3,-5.631410517E-3,3.466657363E-3,1.034291313E-2
1.325718963E0,7.952694781E-3,-5.020544864E-3,4.077522084E-3,1.025072736E-2
1.328164015E0,9.785288945E-3,-3.798815189E-3,3.466657363E-3,1.105443756E-2
1.330609849E0,4.898371175E-3,-4.409679212E-3,3.466657363E-3,7.446947307E-3
1.333054901E0,9.174424224E-3,-3.187951399E-3,4.688386805E-3,1.078489985E-2
1.335499172E0,6.120100617E-3,-1.355358167E-3,3.466657363E-3,7.163123662E-3
1.337944224E0,9.785288945E-3,-1.355358167E-3,4.077522084E-3,1.068714470E-2
1.340390057E0,6.730965339E-3,-2.577085746E-3,4.077522084E-3,8.280908868E-3
1.342835109E0,9.174424224E-3,-1.336268615E-4,3.466657363E-3,9.808446831E-3
1.345279380E0,8.563559502E-3,-1.966220094E-3,3.466657363E-3,9.445543186E-3
1.347724432E0,9.785288945E-3,-7.444925141E-4,4.077522084E-3,1.062696265E-2
1.350170318E0,7.952694781E-3,-1.336268615E-4,4.688386805E-3,9.232777548E-3
1.352615370E0,8.563559502E-3,1.698966371E-3,5.910116248E-3,1.054279432E-2
1.355059588E0,8.563559502E-3,2.309832023E-3,5.299251527E-3,1.033208314E-2
1.357504693E0,9.174424224E-3,2.309832023E-3,5.910116248E-3,1.115503733E-2
1.359950526E0,8.563559502E-3,4.142425023E-3,5.910116248E-3,1.119927277E-2
1.362395578E0,1.039615367E-2,3.531559603E-3,5.910116248E-3,1.246921803E-2
1.364839797E0,8.563559502E-3,4.142425023E-3,5.910116248E-3,1.119927277E-2
1.367284849E0,7.952694781E-3,5.975021981E-3,5.910116248E-3,1.157046741E-2
1.369730734E0,7.952694781E-3,7.196749561E-3,5.299251527E-3,1.196330328E-2
1.372175786E0,9.174424224E-3,7.807615213E-3,5.299251527E-3,1.316096432E-2
1.374620057E0,8.563559502E-3,7.807615213E-3,5.299251527E-3,1.274266351E-2
1.377065109E0,7.952694781E-3,7.807615213E-3,4.688386805E-3,1.209070637E-2
1.379510943E0,7.341830060E-3,7.807615213E-3,4.688386805E-3,1.169796114E-2
1.381955995E0,7.952694781E-3,5.364156328E-3,4.077522084E-3,1.042332546E-2
1.384400265E0,7.952694781E-3,5.364156328E-3,2.855792642E-3,1.000875012E-2
1.386845318E0,7.952694781E-3,4.753290676E-3,4.077522084E-3,1.012251515E-2
1.389291151E0,7.341830060E-3,2.920697676E-3,3.466657363E-3,8.628479403E-3
1.391736203E0,8.563559502E-3,1.698966371E-3,2.244927920E-3,9.014473886E-3
1.394180474E0,7.952694781E-3,1.698966371E-3,4.077522084E-3,9.097143912E-3
1.396625526E0,9.174424224E-3,4.772387911E-4,3.466657363E-3,9.819141000E-3
1.399071359E0,7.341830060E-3,4.772387911E-4,2.855792642E-3,7.892133875E-3
1.401516411E0,7.952694781E-3,-7.444925141E-4,2.855792642E-3,8.482639624E-3
1.403960682E0,8.563559502E-3,-3.187951399E-3,2.855792642E-3,9.573564492E-3
1.406405734E0,9.174424224E-3,-5.020544864E-3,2.244927920E-3,1.069652429E-2
1.408851568E0,7.952694781E-3,-4.409679212E-3,2.244927920E-3,9.366446840E-3
1.411296620E0,7.341830060E-3,-6.853138097E-3,2.244927920E-3,1.029114531E-2
1.413740890E0,6.730965339E-3,-1.112919208E-2,1.634063199E-3,1.310858395E-2
1.416185943E0,8.563559502E-3,-1.174005587E-2,2.244927920E-3,1.470384863E-2
1.418631776E0,8.563559502E-3,-1.174005587E-2,1.634063199E-3,1.462305117E-2
1.421076880E0,7.952694781E-3,-1.479438040E-2,4.123337567E-4,1.680146020E-2
1.423521099E0,6.730965339E-3,-1.601610892E-2,4.123337567E-4,1.737790719E-2
1.425966151E0,7.952694781E-3,-1.723783836E-2,1.023198478E-3,1.901145341E-2
1.428412036E0,8.563559502E-3,-1.845956780E-2,1.634063199E-3,2.041470934E-2
1.430857088E0,8.563559502E-3,-1.968129724E-2,4.123337567E-4,2.146760424E-2
1.433301307E0,9.174424224E-3,-1.907043159E-2,-1.985309646E-4,2.116343156E-2
1.435746411E0,9.174424224E-3,-1.784870401E-2,-2.031125594E-3,2.017106259E-2
1.438192245E0,8.563559502E-3,-1.723783836E-2,-2.641989384E-3,1.942827142E-2
1.440637297E0,8.563559502E-3,-1.418351475E-2,-2.031125594E-3,1.669227705E-2
1.443081568E0,7.341830060E-3,-1.235092152E-2,-3.863718826E-3,1.487871144E-2
1.445526620E0,6.730965339E-3,-9.907462634E-3,-3.863718826E-3,1.258538968E-2
1.447972453E0,5.509235896E-3,-8.685733192E-3,-5.085448269E-3,1.147411981E-2
1.450417505E0,4.898371175E-3,-8.685733192E-3,-7.528907154E-3,1.249481669E-2
1.452861776E0,4.287506454E-3,-8.074869402E-3,-8.750636131E-3,1.265542809E-2
1.455306828E0,3.676641965E-3,-8.074869402E-3,-8.750636131E-3,1.246173522E-2
1.457752661E0,5.509235896E-3,-8.074869402E-3,-8.750636131E-3,1.311978768E-2
1.460197713E0,3.065777244E-3,-5.631410517E-3,-9.361501783E-3,1.134678325E-2
1.462641984E0,3.676641965E-3,-4.409679212E-3,-8.139772341E-3,9.960866461E-3
1.465087036E0,4.898371175E-3,-3.187951399E-3,-6.918043364E-3,9.056290536E-3
1.467532870E0,2.454912523E-3,-3.187951399E-3,-6.307177711E-3,7.481318086E-3
1.469977922E0,3.065777244E-3,-1.336268615E-4,-5.085448269E-3,5.939581664E-3
1.472422193E0,1.844047802E-3,1.698966371E-3,-4.474584479E-3,5.129220729E-3
1.474867245E0,2.454912523E-3,1.698966371E-3,-4.474584479E-3,5.379125253E-3
1.477313078E0,1.233183080E-3,2.309832023E-3,-3.863718826E-3,4.667374814E-3
1.479758130E0,1.145363785E-5,2.920697676E-3,-3.252855036E-3,4.371689832E-3
1.482202401E0,6.223183591E-4,4.753290676E-3,-2.031125594E-3,5.206392567E-3
1.484647453E0,-5.994110834E-4,6.585883908E-3,-1.420259941E-3,6.763896717E-3
1.487093286E0,-1.210275805E-3,6.585883908E-3,-2.031125594E-3,6.997435641E-3
1.489538338E0,-2.432005247E-3,8.418477140E-3,-2.031125594E-3,8.995047419E-3
1.491982609E0,-3.042869968E-3,8.418477140E-3,-1.420259941E-3,9.063495645E-3
1.494427661E0,-3.042869968E-3,9.640208445E-3,-2.031125594E-3,1.031106918E-2
1.496873547E0,-4.875464365E-3,1.086193975E-2,-3.252855036E-3,1.234232368E-2
1.499318599E0,-4.875464365E-3,1.208366733E-2,-3.252855036E-3,1.343004970E-2
1.501762818E0,-3.653734690E-3,1.330539491E-2,-3.252855036E-3,1.417619049E-2
1.504207870E0,-4.264599644E-3,1.452712622E-2,-5.085448269E-3,1.597141166E-2
1.506653755E0,-6.708058529E-3,1.452712622E-2,-3.252855036E-3,1.632839585E-2
1.509098807E0,-7.318923250E-3,1.513799187E-2,-5.696313921E-3,1.775312445E-2
1.511543026E0,-6.097193807E-3,1.697058603E-2,-6.307177711E-3,1.910384917E-2
1.513988130E0,-7.318923250E-3,1.819231361E-2,-6.307177711E-3,2.059872333E-2
1.516433963E0,-9.151517414E-3,1.758145168E-2,-6.918043364E-3,2.099326174E-2
1.518879015E0,-9.762382135E-3,1.819231361E-2,-8.139772341E-3,2.219279778E-2
1.521323286E0,-9.762382135E-3,1.574885845E-2,-9.361501783E-3,2.075977753E-2
1.523768338E0,-9.151517414E-3,1.697058603E-2,-9.361501783E-3,2.143335664E-2
1.526214172E0,-1.037324686E-2,1.513799187E-2,-9.361501783E-3,2.060098939E-2
1.528659224E0,-1.098411158E-2,1.513799187E-2,-9.972365573E-3,2.119569721E-2
1.531103495E0,-9.762382135E-3,1.452712622E-2,-9.361501783E-3,1.984890971E-2
1.533548547E0,-1.037324686E-2,1.208366733E-2,-9.361501783E-3,1.847314218E-2
1.535994380E0,-1.037324686E-2,1.208366733E-2,-1.058323123E-2,1.912129833E-2
1.538439432E0,-9.762382135E-3,1.208366733E-2,-8.750636131E-3,1.782954721E-2
1.540883703E0,-9.762382135E-3,1.147280168E-2,-9.361501783E-3,1.773603673E-2
1.543328755E0,-8.540652692E-3,1.086193975E-2,-8.139772341E-3,1.603684437E-2
1.545774588E0,-7.929787971E-3,1.025107410E-2,-9.361501783E-3,1.598761311E-2
1.548219640E0,-6.708058529E-3,1.086193975E-2,-7.528907154E-3,1.482107376E-2
1.550663911E0,-6.708058529E-3,1.330539491E-2,-8.139772341E-3,1.697903050E-2
1.553108963E0,-7.929787971E-3,1.208366733E-2,-8.139772341E-3,1.658771977E-2
1.555554797E0,-7.929787971E-3,1.330539491E-2,-8.139772341E-3,1.749774170E-2
1.557999849E0,-7.318923250E-3,1.391626056E-2,-8.139772341E-3,1.770550308E-2
1.560444120E0,-7.318923250E-3,1.452712622E-2,-8.139772341E-3,1.818955545E-2
1.562889172E0,-7.929787971E-3,1.391626056E-2,-8.139772341E-3,1.796662848E-2
1.565335005E0,-8.540652692E-3,1.208366733E-2,-8.139772341E-3,1.688826984E-2
1.567780057E0,-7.929787971E-3,1.330539491E-2,-6.918043364E-3,1.696391449E-2
1.570224328E0,-7.318923250E-3,1.147280168E-2,-7.528907154E-3,1.555237148E-2
1.572669380E0,-7.318923250E-3,1.147280168E-2,-6.307177711E-3,1.499907686E-2
1.575115265E0,-7.318923250E-3,1.025107410E-2,-6.307177711E-3,1.408657689E-2
1.577560318E0,-6.097193807E-3,9.640208445E-3,-8.139772341E-3,1.401303982E-2
1.580004588E0,-4.875464365E-3,1.025107410E-2,-8.139772341E-3,1.396819841E-2
1.582449588E0,-4.875464365E-3,9.029342793E-3,-5.696313921E-3,1.173657430E-2
1.584895474E0,-3.042869968E-3,9.640208445E-3,-6.918043364E-3,1.224957144E-2
1.587340526E0,-1.210275805E-3,9.029342793E-3,-5.696313921E-3,1.074438417E-2
1.589784797E0,-3.653734690E-3,8.418477140E-3,-5.085448269E-3,1.049201213E-2
1.592229849E0,-3.653734690E-3,7.196749561E-3,-5.696313921E-3,9.878814388E-3
1.594675682E0,-1.821140526E-3,6.585883908E-3,-6.307177711E-3,9.298973618E-3
1.597120734E0,-3.042869968E-3,5.975021981E-3,-6.307177711E-3,9.205456860E-3
1.599565005E0,-2.432005247E-3,4.753290676E-3,-5.085448269E-3,7.373615522E-3
1.602010057E0,-2.432005247E-3,4.142425023E-3,-6.307177711E-3,7.928103511E-3
1.604455890E0,-5.994110834E-4,4.753290676E-3,-6.307177711E-3,7.920451791E-3
1.606900943E0,1.145363785E-5,4.142425023E-3,-5.696313921E-3,7.043281092E-3
1.609345213E0,1.145363785E-5,5.364156328E-3,-5.085448269E-3,7.391622852E-3
1.611790265E0,1.844047802E-3,7.807615213E-3,-5.085448269E-3,9.498481547E-3
1.614236099E0,1.233183080E-3,9.029342793E-3,-5.085448269E-3,1.043606994E-2
1.616681151E0,1.233183080E-3,9.029342793E-3,-6.307177711E-3,1.108288151E-2
1.619125422E0,6.223183591E-4,7.807615213E-3,-5.085448269E-3,9.338518060E-3
1.621570474E0,2.454912523E-3,5.975021981E-3,-6.307177711E-3,9.028176662E-3
1.624016307E0,1.233183080E-3,5.975021981E-3,-5.696313921E-3,8.346832960E-3
1.626461359E0,1.844047802E-3,2.920697676E-3,-5.696313921E-3,6.661754986E-3
1.628905630E0,1.844047802E-3,4.772387911E-4,-4.474584479E-3,4.863144602E-3
1.631350682E0,1.844047802E-3,-1.966220094E-3,-5.085448269E-3,5.755720445E-3
1.633796568E0,3.065777244E-3,-4.409679212E-3,-4.474584479E-3,6.990433972E-3
1.636241620E0,4.287506454E-3,-6.853138097E-3,-4.474584479E-3,9.239595209E-3
1.638685838E0,5.509235896E-3,-9.296596982E-3,-3.252855036E-3,1.128536492E-2
1.641130890E0,6.730965339E-3,-8.074869402E-3,-2.641989384E-3,1.083925819E-2
1.643576776E0,6.120100617E-3,-1.051832829E-2,-1.420259941E-3,1.225185699E-2
1.646021828E0,7.952694781E-3,-1.174005587E-2,4.123337567E-4,1.418605954E-2
1.648466099E0,7.952694781E-3,-1.051832829E-2,1.634063199E-3,1.328724000E-2
1.650911151E0,9.174424224E-3,-1.174005587E-2,1.634063199E-3,1.498896708E-2
1.653356984E0,9.174424224E-3,-1.174005587E-2,1.023198478E-3,1.493472151E-2
1.655802036E0,9.785288945E-3,-8.685733192E-3,1.634063199E-3,1.318575001E-2
1.658246307E0,9.785288945E-3,-8.685733192E-3,2.855792642E-3,1.339213920E-2
1.660691359E0,8.563559502E-3,-9.296596982E-3,2.855792642E-3,1.295827220E-2
1.663137193E0,8.563559502E-3,-9.907462634E-3,2.244927920E-3,1.328653712E-2
1.665582245E0,8.563559502E-3,-9.907462634E-3,-1.985309646E-4,1.309701423E-2
1.668026515E0,7.341830060E-3,-9.296596982E-3,4.123337567E-4,1.185323598E-2
1.670471568E0,7.952694781E-3,-9.907462634E-3,4.123337567E-4,1.271114429E-2
1.672917401E0,6.730965339E-3,-8.685733192E-3,-8.093961515E-4,1.101830194E-2
1.675362453E0,6.120100617E-3,-9.907462634E-3,-1.985309646E-4,1.164701086E-2
1.677806724E0,7.341830060E-3,-8.074869402E-3,-1.985309646E-4,1.091537443E-2
1.680251776E0,7.341830060E-3,-6.853138097E-3,-8.093961515E-4,1.007586684E-2
1.682697609E0,5.509235896E-3,-7.464003749E-3,1.023198478E-3,9.333272055E-3
1.685142661E0,5.509235896E-3,-6.242274307E-3,-1.985309646E-4,8.328090011E-3
1.687586932E0,6.730965339E-3,-5.631410517E-3,-1.985309646E-4,8.778273939E-3
1.690031984E0,5.509235896E-3,-7.464003749E-3,1.023198478E-3,9.333272055E-3
1.692477870E0,4.898371175E-3,-6.242274307E-3,3.466657363E-3,8.658968874E-3
1.694922922E0,4.898371175E-3,-6.853138097E-3,5.299251527E-3,9.951965066E-3
1.697367140E0,4.287506454E-3,-6.853138097E-3,5.910116248E-3,1.001387475E-2
1.699812245E0,4.898371175E-3,-8.685733192E-3,5.299251527E-3,1.129238983E-2
1.702258078E0,3.676641965E-3,-9.296596982E-3,6.520980969E-3,1.193597941E-2
1.704703130E0,3.676641965E-3,-1.112919208E-2,7.131845690E-3,1.372005231E-2
1.707147401E0,4.287506454E-3,-1.235092152E-2,7.742710412E-3,1.519465493E-2
1.709592453E0,4.287506454E-3,-1.601610892E-2,9.575304575E-3,1.914640734E-2
1.712038286E0,4.898371175E-3,-1.723783836E-2,9.575304575E-3,2.031806017E-2
1.714483338E0,6.120100617E-3,-1.784870401E-2,9.575304575E-3,2.115935548E-2
1.716927609E0,7.341830060E-3,-1.968129724E-2,1.079703402E-2,2.361846467E-2
1.719372661E0,9.174424224E-3,-2.090302669E-2,1.262962818E-2,2.608858165E-2
1.721818495E0,9.174424224E-3,-2.090302669E-2,1.262962818E-2,2.608858165E-2
1.724263547E0,9.174424224E-3,-2.212475613E-2,1.385135762E-2,2.766830319E-2
1.726707818E0,9.174424224E-3,-2.212475613E-2,1.568395272E-2,2.862972697E-2
1.729152870E0,9.785288945E-3,-2.090302669E-2,1.507308707E-2,2.756603631E-2
1.731598703E0,1.161788311E-2,-2.090302669E-2,1.324049290E-2,2.733536875E-2
1.734043755E0,1.283961255E-2,-2.029216290E-2,1.507308707E-2,2.835181615E-2
1.736488026E0,1.406134106E-2,-1.907043159E-2,1.629481651E-2,2.875628138E-2
1.738933078E0,1.406134106E-2,-1.723783836E-2,1.751654595E-2,2.831419725E-2
1.741378963E0,1.406134106E-2,-1.601610892E-2,1.812741160E-2,2.797927999E-2
1.743824015E0,1.467220671E-2,-1.601610892E-2,1.812741160E-2,2.829120793E-2
1.746268234E0,1.467220671E-2,-1.540524606E-2,1.996000484E-2,2.917185371E-2
1.748713286E0,1.528307237E-2,-1.479438040E-2,2.057087049E-2,2.959065233E-2
1.751159172E0,1.528307237E-2,-1.479438040E-2,1.934913918E-2,2.875474186E-2
1.753604224E0,1.467220671E-2,-1.479438040E-2,2.118173428E-2,2.971217273E-2
1.756048495E0,1.528307237E-2,-1.540524606E-2,2.057087049E-2,2.990074614E-2
1.758493547E0,1.772653125E-2,-1.479438040E-2,2.179259807E-2,3.174934538E-2
1.760939380E0,1.894825883E-2,-1.174005587E-2,2.118173428E-2,3.074949254E-2
1.763384432E0,1.894825883E-2,-1.112919208E-2,2.179259807E-2,3.094855020E-2
1.765828703E0,1.711566560E-2,-9.907462634E-3,2.118173428E-2,2.897878003E-2
1.768273755E0,1.833739504E-2,-1.235092152E-2,2.057087049E-2,3.019877534E-2
1.770719588E0,2.078085579E-2,-1.357265096E-2,2.057087049E-2,3.223695913E-2
1.773164640E0,2.016999014E-2,-1.540524606E-2,2.240346372E-2,3.385358615E-2
1.775608911E0,2.139171772E-2,-1.662697271E-2,2.240346372E-2,3.515646448E-2
1.778053963E0,2.139171772E-2,-1.662697271E-2,2.362519316E-2,3.594734427E-2
1.780499797E0,1.833739504E-2,-1.784870401E-2,2.362519316E-2,3.482794918E-2
1.782944849E0,2.078085579E-2,-1.907043159E-2,2.179259807E-2,3.564326948E-2
1.785389120E0,2.139171772E-2,-1.845956780E-2,2.057087049E-2,3.495027815E-2
1.787834172E0,2.139171772E-2,-1.662697271E-2,2.179259807E-2,3.477037732E-2
1.790280005E0,2.139171772E-2,-1.479438040E-2,2.057087049E-2,3.316082012E-2
1.792725109E0,2.200258337E-2,-1.357265096E-2,1.873827539E-2,3.192888181E-2
1.795169328E0,2.200258337E-2,-1.296178717E-2,1.751654595E-2,3.096693371E-2
1.797614380E0,2.322431467E-2,-1.296178717E-2,1.629481651E-2,3.119130911E-2
1.800060265E0,2.139171772E-2,-1.174005587E-2,1.507308707E-2,2.868156991E-2
1.802505318E0,2.261344902E-2,-1.357265096E-2,1.385135762E-2,2.979001576E-2
1.804949588E0,2.261344902E-2,-1.479438040E-2,1.201876346E-2,2.957519980E-2
1.807394640E0,2.078085579E-2,-1.601610892E-2,8.964439854E-3,2.772581638E-2
1.809840474E0,2.078085579E-2,-1.601610892E-2,8.353575133E-3,2.753437723E-2
1.812285526E0,2.139171772E-2,-1.662697271E-2,8.353575133E-3,2.835214323E-2
1.814729797E0,2.016999014E-2,-1.845956780E-2,6.520980969E-3,2.810884804E-2
1.817174849E0,2.078085579E-2,-1.845956780E-2,5.910116248E-3,2.841705623E-2
1.819620682E0,2.078085579E-2,-1.907043159E-2,4.688386805E-3,2.859206707E-2
1.822065734E0,2.016999014E-2,-2.090302669E-2,4.077522084E-3,2.933242597E-2
1.824510005E0,2.261344902E-2,-2.029216290E-2,3.466657363E-3,3.058034769E-2
1.826955057E0,2.261344902E-2,-2.273562178E-2,2.244927920E-3,3.214523722E-2
1.829400890E0,2.322431467E-2,-2.273562178E-2,4.077522084E-3,3.275520533E-2
1.831845943E0,2.261344902E-2,-2.517908067E-2,1.634063199E-3,3.388250791E-2
1.834290213E0,2.261344902E-2,-2.884426713E-2,4.123337567E-4,3.665419269E-2
1.836735265E0,2.261344902E-2,-3.006599844E-2,4.123337567E-4,3.762316252E-2
1.839181151E0,2.139171772E-2,-3.067686222E-2,-8.093961515E-4,3.740762736E-2
1.841626203E0,2.016999014E-2,-3.250945732E-2,-1.420259941E-3,3.828459815E-2
1.844070422E0,1.955912448E-2,-3.189859167E-2,-2.641989384E-3,3.751079323E-2
1.846515526E0,2.078085579E-2,-3.250945732E-2,-2.641989384E-3,3.867413723E-2
1.848961359E0,1.894825883E-2,-3.128772601E-2,-5.085448269E-3,3.692993496E-2
1.851406411E0,1.955912448E-2,-3.128772601E-2,-6.307177711E-3,3.743342945E-2
1.853850682E0,2.016999014E-2,-2.884426713E-2,-7.528907154E-3,3.599312006E-2
1.856295734E0,1.833739504E-2,-2.762253955E-2,-8.139772341E-3,3.413972235E-2
1.858741568E0,1.650479995E-2,-2.456821501E-2,-9.361501783E-3,3.104260501E-2
1.861186620E0,1.650479995E-2,-2.517908067E-2,-1.058323123E-2,3.191236919E-2
1.863630890E0,1.528307237E-2,-2.212475613E-2,-1.302669011E-2,2.987928697E-2
1.866075943E0,1.528307237E-2,-2.090302669E-2,-1.363755390E-2,2.926587948E-2
1.868521776E0,1.345047727E-2,-1.784870401E-2,-1.363755390E-2,2.618156699E-2
1.870966828E0,1.222874783E-2,-1.540524606E-2,-1.424841955E-2,2.428747289E-2
1.873411099E0,1.039615367E-2,-1.296178717E-2,-1.302669011E-2,2.111356419E-2
1.875856151E0,1.100701839E-2,-1.235092152E-2,-1.363755390E-2,2.144020971E-2
1.878302036E0,1.100701839E-2,-7.464003749E-3,-1.547014900E-2,2.040076753E-2
1.880747088E0,8.563559502E-3,-4.409679212E-3,-1.485928334E-2,1.770813721E-2
1.883191307E0,6.730965339E-3,-2.577085746E-3,-1.302669011E-2,1.488764322E-2
1.885636411E0,7.341830060E-3,4.772387911E-4,-1.424841955E-2,1.603582506E-2
1.888082245E0,6.730965339E-3,1.088104444E-3,-1.363755390E-2,1.524705683E-2
1.890527297E0,4.898371175E-3,2.920697676E-3,-1.363755390E-2,1.478199552E-2
1.892971568E0,3.065777244E-3,5.975021981E-3,-1.241582446E-2,1.411568542E-2
1.895416620E0,4.287506454E-3,6.585883908E-3,-1.180496067E-2,1.418145531E-2
1.897862453E0,4.287506454E-3,7.807615213E-3,-1.180496067E-2,1.478846386E-2
1.900307505E0,2.454912523E-3,9.029342793E-3,-1.180496067E-2,1.506362251E-2
1.902751776E0,2.454912523E-3,1.086193975E-2,-9.972365573E-3,1.494845831E-2
1.905196828E0,2.454912523E-3,1.208366733E-2,-9.361501783E-3,1.548158026E-2
1.907642661E0,2.454912523E-3,1.391626056E-2,-1.058323123E-2,1.765484882E-2
1.910087713E0,6.223183591E-4,1.391626056E-2,-9.972365573E-3,1.713177350E-2
1.912531984E0,2.454912523E-3,1.635972038E-2,-8.750636131E-3,1.871471825E-2
1.914977036E0,1.844047802E-3,1.758145168E-2,-8.750636131E-3,1.972515116E-2
1.917422922E0,6.223183591E-4,1.758145168E-2,-8.750636131E-3,1.964862225E-2
1.919867974E0,1.233183080E-3,1.880317926E-2,-8.750636131E-3,2.077628272E-2
1.922312193E0,1.233183080E-3,2.063577622E-2,-9.361501783E-3,2.269347299E-2
1.924757245E0,1.844047802E-3,2.124663815E-2,-9.972365573E-3,2.354290169E-2
1.927203130E0,1.233183080E-3,2.002491057E-2,-8.139772341E-3,2.165118190E-2
1.929648182E0,6.223183591E-4,2.124663815E-2,-9.972365573E-3,2.347881999E-2
1.932092453E0,6.223183591E-4,2.185750380E-2,-1.180496067E-2,2.484944363E-2
1.934537505E0,2.454912523E-3,2.185750380E-2,-1.302669011E-2,2.556309299E-2
1.936983338E0,2.454912523E-3,2.063577622E-2,-1.241582446E-2,2.420773746E-2
1.939428390E0,1.145363785E-5,2.124663815E-2,-1.424841955E-2,2.558197067E-2
1.941872661E0,1.233183080E-3,1.941404492E-2,-1.424841955E-2,2.411313626E-2
1.944317713E0,1.233183080E-3,2.063577622E-2,-1.547014900E-2,2.582017643E-2
1.946763547E0,6.223183591E-4,2.002491057E-2,-1.730274409E-2,2.647204708E-2
1.949208599E0,6.223183591E-4,2.063577622E-2,-1.852447167E-2,2.773767458E-2
1.951652870E0,1.844047802E-3,2.185750380E-2,-1.913533732E-2,2.910862620E-2
1.954097922E0,6.223183591E-4,2.185750380E-2,-1.974620298E-2,2.946269310E-2
1.956543807E0,-5.994110834E-4,2.430096269E-2,-2.035706677E-2,3.170656475E-2
1.958988859E0,-5.994110834E-4,2.491182834E-2,-2.035706677E-2,3.217714487E-2
1.961433078E0,-1.210275805E-3,2.735528722E-2,-2.280052565E-2,3.563201477E-2
1.963878182E0,-2.432005247E-3,2.857701480E-2,-2.218966186E-2,3.626212236E-2
1.966324015E0,-4.264599644E-3,2.857701480E-2,-2.280052565E-2,3.680620267E-2
1.968769068E0,-3.653734690E-3,3.040961176E-2,-2.341138944E-2,3.855110141E-2
1.971213338E0,-5.486329086E-3,3.224220127E-2,-2.463311888E-2,4.094447332E-2
1.973658390E0,-7.929787971E-3,3.468566388E-2,-2.402225323E-2,4.293070540E-2
1.976104224E0,-7.318923250E-3,3.468566388E-2,-2.524398454E-2,4.351919888E-2
1.978549276E0,-1.098411158E-2,3.590739518E-2,-2.341138944E-2,4.425025301E-2
1.980993547E0,-1.342756953E-2,3.529652953E-2,-2.341138944E-2,4.443239557E-2
1.983438599E0,-1.587102748E-2,3.835085034E-2,-2.463311888E-2,4.826456030E-2
1.985884432E0,-1.587102748E-2,4.323776811E-2,-2.402225323E-2,5.194672998E-2
1.988329536E0,-1.464930084E-2,5.056814849E-2,-2.524398454E-2,5.838662871E-2
1.990773755E0,-1.403843518E-2,5.912025273E-2,-2.341138944E-2,6.511816260E-2
1.993218807E0,-1.464930084E-2,6.950495392E-2,-2.524398454E-2,7.538434446E-2
1.995664693E0,-1.709275879E-2,8.111137897E-2,-2.402225323E-2,8.630345793E-2
1.998109745E0,-1.770362258E-2,9.088521451E-2,-2.585484646E-2,9.613539179E-2
2.000554015E0,-2.014708333E-2,1.031024978E-1,-2.463311888E-2,1.079019025E-1
2.002999068E0,-2.136881091E-2,1.116546169E-1,-2.524398454E-2,1.164501537E-1
2.005444901E0,-2.503400110E-2,1.208175793E-1,-2.768744342E-2,1.264522962E-1
2.007889953E0,-2.686659433E-2,1.293696910E-1,-2.707657777E-2,1.348757647E-1
2.010334224E0,-2.992091514E-2,1.354783475E-1,-2.646571212E-2,1.412447441E-1
2.012779276E0,-3.175351024E-2,1.428087205E-1,-2.707657777E-2,1.487809031E-1
2.015225109E0,-3.419696912E-2,1.495282352E-1,-2.768744342E-2,1.558676372E-1
2.017670161E0,-3.480783105E-2,1.568586081E-1,-2.768744342E-2,1.630423337E-1
2.020114432E0,-3.786215559E-2,1.654107124E-1,-2.646571212E-2,1.717401540E-1
2.022559484E0,-3.786215559E-2,1.739628166E-1,-2.646571212E-2,1.799917729E-1
2.025005370E0,-3.969474882E-2,1.794606000E-1,-2.585484646E-2,1.856077938E-1
2.027450422E0,-4.030561447E-2,1.874018461E-1,-2.646571212E-2,1.935056288E-1
2.029894640E0,-4.213821143E-2,1.935104877E-1,-2.585484646E-2,1.997258391E-1
2.032339745E0,-4.580339789E-2,1.959539503E-1,-2.585484646E-2,2.028900564E-1
2.034785578E0,-4.519253224E-2,1.977865398E-1,-2.646571212E-2,2.046028206E-1
2.037230630E0,-4.946858436E-2,2.014517337E-1,-2.646571212E-2,2.091180905E-1
2.039674901E0,-4.946858436E-2,2.020625919E-1,-2.707657777E-2,2.097845870E-1
2.042119953E0,-5.191204697E-2,2.008408606E-1,-2.707657777E-2,2.092009870E-1
2.044565786E0,-5.435550213E-2,2.002300024E-1,-2.829830535E-2,2.093976327E-1
2.047010838E0,-5.435550213E-2,1.990082711E-1,-2.707657777E-2,2.080671854E-1
2.049455109E0,-5.557723343E-2,1.953430772E-1,-2.768744342E-2,2.049740013E-1
2.051900161E0,-5.740982667E-2,1.922887564E-1,-2.646571212E-2,2.024136555E-1
2.054346047E0,-5.924241990E-2,1.849583834E-1,-2.707657777E-2,1.960928581E-1
2.056791099E0,-5.985328555E-2,1.782388687E-1,-2.646571212E-2,1.898734948E-1
2.059235318E0,-6.046415120E-2,1.715193540E-1,-2.646571212E-2,1.837804024E-1
2.061680370E0,-5.985328555E-2,1.654107124E-1,-2.524398454E-2,1.777086895E-1
2.064126255E0,-6.046415120E-2,1.580803394E-1,-2.585484646E-2,1.712126759E-1
2.066571307E0,-6.046415120E-2,1.519716829E-1,-2.585484646E-2,1.655891877E-1
2.069015578E0,-6.229674816E-2,1.458630413E-1,-2.646571212E-2,1.608021939E-1
2.071460630E0,-6.351847202E-2,1.415869892E-1,-2.524398454E-2,1.572219150E-1
2.073906463E0,-6.535106897E-2,1.348674744E-1,-2.585484646E-2,1.520804753E-1
2.076351515E0,-6.535106897E-2,1.281479597E-1,-2.768744342E-2,1.464897823E-1
2.078795786E0,-6.718366593E-2,1.250936389E-1,-2.768744342E-2,1.446674047E-1
2.081240838E0,-6.718366593E-2,1.183741167E-1,-2.890917100E-2,1.391467450E-1
2.083686672E0,-6.779453158E-2,1.147089377E-1,-3.013090231E-2,1.366093341E-1
2.086131776E0,-7.084885240E-2,1.092111543E-1,-3.013090231E-2,1.336207595E-1
2.088575995E0,-7.268144190E-2,1.055459604E-1,-3.196349740E-2,1.320765192E-1
2.091021047E0,-7.390317321E-2,1.000481769E-1,-3.318522498E-2,1.287345170E-1
2.093466932E0,-7.573577017E-2,9.577212483E-2,-3.440695629E-2,1.268544261E-1
2.095911984E0,-8.001182228E-2,9.027434140E-2,-3.562868387E-2,1.257805690E-1
2.098356255E0,-8.123355359E-2,8.538743109E-2,-3.746127710E-2,1.236658841E-1
2.100801307E0,-8.245527744E-2,7.988964766E-2,-3.868300840E-2,1.211511606E-1
2.103247140E0,-8.489874005E-2,7.317013294E-2,-3.929387406E-2,1.187673059E-1
2.105692193E0,-8.734220266E-2,6.706149131E-2,-3.929387406E-2,1.169184011E-1
2.108136463E0,-8.978565782E-2,5.973112211E-2,-3.807214275E-2,1.143624036E-1
2.110581515E0,-8.978565782E-2,5.301160365E-2,-3.868300840E-2,1.112118232E-1
2.113027349E0,-9.100738913E-2,4.384863377E-2,-3.929387406E-2,1.083930630E-1
2.115472401E0,-9.406170994E-2,3.651826084E-2,-3.623954952E-2,1.072123762E-1
2.117916672E0,-9.589430690E-2,3.102047741E-2,-3.623954952E-2,1.071041225E-1
2.120361724E0,-9.650517255E-2,2.124663815E-2,-3.440695629E-2,1.046351117E-1
2.122807609E0,-9.711603820E-2,1.391626056E-2,-3.440695629E-2,1.039664649E-1
2.125252661E0,-9.772689641E-2,7.196749561E-3,-3.196349740E-2,1.030728124E-1
2.127696932E0,-9.955949336E-2,-7.444925141E-4,-3.196349740E-2,1.045672614E-1
2.130141984E0,-1.001703590E-1,-6.853138097E-3,-2.952003665E-2,1.046541872E-1
2.132587818E0,-1.013920903E-1,-1.174005587E-2,-2.952003665E-2,1.062526115E-1
2.135032870E0,-1.013920903E-1,-1.723783836E-2,-2.952003665E-2,1.069996804E-1
2.137477140E0,-1.032246798E-1,-1.845956780E-2,-2.707657777E-2,1.083015754E-1
2.139922193E0,-1.038355455E-1,-2.029216290E-2,-2.829830535E-2,1.095188863E-1
2.142368026E0,-1.038355455E-1,-2.090302669E-2,-2.768744342E-2,1.094776304E-1
2.144813130E0,-1.056681424E-1,-2.212475613E-2,-2.646571212E-2,1.111561743E-1
2.147257349E0,-1.062790081E-1,-2.273562178E-2,-2.952003665E-2,1.126213507E-1
2.149702401E0,-1.087224633E-1,-2.090302669E-2,-2.890917100E-2,1.144257432E-1
2.152148286E0,-1.105550602E-1,-2.151389048E-2,-3.074176423E-2,1.167489824E-1
2.154593338E0,-1.117767841E-1,-2.212475613E-2,-3.135263175E-2,1.181801244E-1
2.157037609E0,-1.136093810E-1,-1.845956780E-2,-3.318522498E-2,1.197877550E-1
2.159482661E0,-1.160528436E-1,-1.907043159E-2,-3.440695629E-2,1.225389021E-1
2.161928495E0,-1.203288957E-1,-2.029216290E-2,-3.623954952E-2,1.272954044E-1
2.164373547E0,-1.215506196E-1,-2.090302669E-2,-3.685041517E-2,1.287223475E-1
2.166817818E0,-1.239940822E-1,-2.395734936E-2,-3.746127710E-2,1.317263614E-1
2.169262870E0,-1.264375448E-1,-2.517908067E-2,-3.685041517E-2,1.340835260E-1
2.171708703E0,-1.270484030E-1,-2.884426713E-2,-3.746127710E-2,1.355604505E-1
2.174153807E0,-1.264375448E-1,-3.250945732E-2,-3.685041517E-2,1.356512833E-1
2.176598026E0,-1.282701343E-1,-3.434205055E-2,-3.685041517E-2,1.378062295E-1
2.179043078E0,-1.276592761E-1,-3.617464378E-2,-3.807214275E-2,1.380397902E-1
2.181488963E0,-1.301027238E-1,-3.678550944E-2,-3.685041517E-2,1.401350975E-1
2.183934015E0,-1.307135969E-1,-3.861810267E-2,-3.746127710E-2,1.413532793E-1
2.186378286E0,-1.325461864E-1,-3.922896832E-2,-3.685041517E-2,1.430571795E-1
2.188823338E0,-1.319353282E-1,-3.861810267E-2,-3.685041517E-2,1.423244244E-1
2.191269172E0,-1.319353282E-1,-3.739637509E-2,-3.685041517E-2,1.419977916E-1
2.193714224E0,-1.319353282E-1,-3.617464378E-2,-3.685041517E-2,1.416809401E-1
2.196158495E0,-1.331570596E-1,-3.495291620E-2,-3.746127710E-2,1.426739505E-1
2.198603547E0,-1.325461864E-1,-3.067686222E-2,-3.623954952E-2,1.407937014E-1
2.201049432E0,-1.349896491E-1,-2.701167390E-2,-3.746127710E-2,1.426715920E-1
2.203494484E0,-1.349896491E-1,-2.212475613E-2,-3.929387406E-2,1.423225868E-1
2.205938755E0,-1.374331117E-1,-1.784870401E-2,-4.112646729E-2,1.445607925E-1
2.208383807E0,-1.386548430E-1,-1.051832829E-2,-4.234819487E-2,1.453587642E-1
2.210829640E0,-1.392657012E-1,-6.853138097E-3,-4.540251940E-2,1.466400007E-1
2.213274693E0,-1.404874325E-1,-7.444925141E-4,-4.723511264E-2,1.482175051E-1
2.215718963E0,-1.429308951E-1,6.585883908E-3,-4.906770959E-2,1.512622053E-1
2.218164015E0,-1.429308951E-1,1.025107410E-2,-5.212203041E-2,1.524828887E-1
2.220609849E0,-1.441526115E-1,1.513799187E-2,-5.334376171E-2,1.544496394E-1
2.223054901E0,-1.453743428E-1,1.941404492E-2,-5.578722060E-2,1.569165978E-1
2.225499172E0,-1.472069472E-1,2.246836945E-2,-5.700895190E-2,1.594513516E-1
2.227944224E0,-1.490395367E-1,2.552269399E-2,-6.006327271E-2,1.627015309E-1
2.230390109E0,-1.508721262E-1,2.674442157E-2,-6.311760098E-2,1.657150992E-1
2.232835161E0,-1.502612680E-1,2.735528722E-2,-6.433933228E-2,1.657296295E-1
2.235279432E0,-1.520938575E-1,3.040961176E-2,-6.433933228E-2,1.679191343E-1
2.237724484E0,-1.520938575E-1,2.857701480E-2,-6.617192179E-2,1.683089733E-1
2.240170318E0,-1.527047306E-1,3.285306692E-2,-6.678278744E-2,1.698764241E-1
2.242615370E0,-1.545373201E-1,3.346393257E-2,-6.678278744E-2,1.716436972E-1
2.245059640E0,-1.557590514E-1,3.529652953E-2,-6.861538440E-2,1.738240434E-1
2.247504693E0,-1.600351036E-1,3.651826084E-2,-6.983711571E-2,1.783873327E-1
2.249950578E0,-1.588133723E-1,3.712911904E-2,-7.044798136E-2,1.776602847E-1
2.252395630E0,-1.649220139E-1,3.712911904E-2,-7.289143652E-2,1.840950941E-1
2.254839849E0,-1.643111557E-1,3.712911904E-2,-7.289143652E-2,1.835480560E-1
2.257284953E0,-1.685872078E-1,3.529652953E-2,-7.350230217E-2,1.872700725E-1
2.259730786E0,-1.698089391E-1,3.407479823E-2,-7.411316782E-2,1.883850560E-1
2.262175838E0,-1.722524017E-1,3.285306692E-2,-7.472403347E-2,1.906145196E-1
2.264620109E0,-1.777501851E-1,2.979874611E-2,-7.533489168E-2,1.953418529E-1
2.267065161E0,-1.765284538E-1,2.613355592E-2,-7.472403347E-2,1.934656014E-1
2.269510995E0,-1.814153641E-1,1.941404492E-2,-7.472403347E-2,1.971601397E-1
2.271956099E0,-1.808045059E-1,1.574885845E-2,-7.472403347E-2,1.962701635E-1
2.274400318E0,-1.887457371E-1,9.640208445E-3,-7.289143652E-2,2.025612214E-1
2.276845370E0,-1.881348789E-1,4.142425023E-3,-7.228057086E-2,2.015846553E-1
2.279291255E0,-1.918000728E-1,-5.020544864E-3,-7.044798136E-2,2.043902930E-1
2.281736307E0,-1.918000728E-1,-1.112919208E-2,-6.922625005E-2,2.042141046E-1
2.284180578E0,-1.930217892E-1,-1.784870401E-2,-6.800451875E-2,2.054278509E-1
2.286625630E0,-1.960761249E-1,-2.090302669E-2,-6.556105614E-2,2.078004701E-1
2.289071463E0,-1.924109310E-1,-2.395734936E-2,-6.372846663E-2,2.041010495E-1
2.291516515E0,-1.954652518E-1,-2.701167390E-2,-6.128500402E-2,2.066207804E-1
2.293960786E0,-1.924109310E-1,-2.578994446E-2,-6.006327271E-2,2.032109356E-1
2.296405838E0,-1.948543936E-1,-2.578994446E-2,-6.067413837E-2,2.057053889E-1
2.298851724E0,-1.924109310E-1,-2.151389048E-2,-6.006327271E-2,2.027126305E-1
2.301296776E0,-1.918000728E-1,-1.968129724E-2,-5.945241451E-2,2.017652373E-1
2.303740995E0,-1.936326623E-1,-1.479438040E-2,-6.128500402E-2,2.036377502E-1
2.306186099E0,-1.918000728E-1,-1.112919208E-2,-6.189586967E-2,2.018470350E-1
2.308631932E0,-1.936326623E-1,-7.464003749E-3,-6.311760098E-2,2.037968371E-1
2.311076984E0,-1.918000728E-1,-7.444925141E-4,-6.556105614E-2,2.026970011E-1
2.313521255E0,-1.960761249E-1,4.142425023E-3,-6.800451875E-2,2.075755790E-1
2.315966307E0,-1.930217892E-1,1.025107410E-2,-7.105883956E-2,2.059413856E-1
2.318412140E0,-1.979087144E-1,1.391626056E-2,-7.411316782E-2,2.117882981E-1
2.320857193E0,-1.954652518E-1,1.758145168E-2,-7.594575733E-2,2.104365229E-1
2.323301463E0,-1.979087144E-1,2.063577622E-2,-7.900008559E-2,2.140904202E-1
2.325746568E0,-1.985195726E-1,2.369009703E-2,-8.266527206E-2,2.163441439E-1
2.328192401E0,-1.972978562E-1,2.735528722E-2,-8.327613771E-2,2.158927301E-1
2.330637453E0,-1.960761249E-1,3.407479823E-2,-8.510872722E-2,2.164496110E-1
2.333081724E0,-1.936326623E-1,3.835085034E-2,-8.633045852E-2,2.154468466E-1
2.335526776E0,-1.979087144E-1,4.445949942E-2,-8.877392113E-2,2.214166105E-1
2.337972609E0,-1.936326623E-1,5.423333496E-2,-8.816305548E-2,2.195622620E-1
2.340417661E0,-1.972978562E-1,6.156371161E-2,-8.938478678E-2,2.251803161E-1
2.342861932E0,-1.954652518E-1,7.378100604E-2,-8.877392113E-2,2.270046488E-1
2.345306984E0,-1.997413039E-1,8.294396847E-2,-8.877392113E-2,2.337885786E-1
2.347752870E0,-1.991304457E-1,9.516126662E-2,-8.816305548E-2,2.376580010E-1
2.350197922E0,-2.034064978E-1,1.098220125E-1,-8.877392113E-2,2.476204492E-1
2.352642193E0,-2.027956247E-1,1.226501688E-1,-8.633045852E-2,2.522341717E-1
2.355087245E0,-2.070716769E-1,1.373109370E-1,-8.510872722E-2,2.626337150E-1
2.357533078E0,-2.095151395E-1,1.489173621E-1,-8.327613771E-2,2.701997215E-1
2.359978130E0,-2.113477439E-1,1.611346602E-1,-8.266527206E-2,2.783267770E-1
2.362422401E0,-2.131803334E-1,1.745736897E-1,-8.266527206E-2,2.876723394E-1
2.364867453E0,-2.186781168E-1,1.904561669E-1,-8.144354075E-2,3.012087658E-1
2.367313338E0,-2.198998481E-1,2.057277858E-1,-8.083267510E-2,3.117912546E-1
2.369758390E0,-2.217324376E-1,2.216102779E-1,-8.022181690E-2,3.235922265E-1
2.372202661E0,-2.247867584E-1,2.387144864E-1,-7.961095124E-2,3.374190219E-1
2.374647713E0,-2.296736836E-1,2.582621574E-1,-7.838921994E-2,3.543927380E-1
2.377093547E0,-2.351714671E-1,2.747555077E-1,-7.961095124E-2,3.703162317E-1
2.379538599E0,-2.400583774E-1,2.906379700E-1,-7.900008559E-2,3.851486306E-1
2.381982870E0,-2.467778921E-1,3.052987456E-1,-7.961095124E-2,4.005553091E-1
2.384427922E0,-2.504431009E-1,3.199594915E-1,-7.900008559E-2,4.139285404E-1
2.386873807E0,-2.553300261E-1,3.352310956E-1,-8.083267510E-2,4.290771854E-1
2.389318859E0,-2.596060634E-1,3.498918712E-1,-8.144354075E-2,4.432298275E-1
2.391763078E0,-2.638821304E-1,3.669960797E-1,-8.144354075E-2,4.592961480E-1
2.394208182E0,-2.675473094E-1,3.834894300E-1,-8.266527206E-2,4.748465572E-1
2.396654015E0,-2.730450928E-1,4.018153548E-1,-8.388700336E-2,4.929971921E-1
2.399099068E0,-2.760994136E-1,4.189195633E-1,-8.571959287E-2,5.089914885E-1
2.401543338E0,-2.803754807E-1,4.384672344E-1,-8.571959287E-2,5.274578413E-1
2.403988390E0,-2.840406597E-1,4.592366517E-1,-8.755218983E-2,5.470308808E-1
2.406434224E0,-2.877058387E-1,4.787843227E-1,-8.816305548E-2,5.654925302E-1
2.408879328E0,-2.907601595E-1,4.977211356E-1,-8.938478678E-2,5.833159001E-1
2.411323547E0,-2.950362265E-1,5.154361725E-1,-9.121737629E-2,6.008672338E-1
2.413768651E0,-2.974796891E-1,5.325404406E-1,-9.366083890E-2,6.171432889E-1
2.416214484E0,-3.017557263E-1,5.490337610E-1,-9.427170455E-2,6.335469544E-1
2.418659536E0,-3.041991889E-1,5.630836487E-1,-9.549342841E-2,6.470852624E-1
2.421103807E0,-3.060317934E-1,5.759118199E-1,-9.732602537E-2,6.593953580E-1
2.423548859E0,-3.078643680E-1,5.862964988E-1,-1.003803462E-1,6.697762816E-1
2.425994693E0,-3.103078306E-1,5.948486328E-1,-1.034346744E-1,6.788479782E-1
2.428439797E0,-3.127512932E-1,6.034007072E-1,-1.040455401E-1,6.875545501E-1
2.430884015E0,-3.133621514E-1,6.070659161E-1,-1.052672639E-1,6.912351707E-1
2.433329120E0,-3.133621514E-1,6.119528413E-1,-1.058781296E-1,6.956236743E-1
2.435774953E0,-3.127512932E-1,6.119528413E-1,-1.083215922E-1,6.957249591E-1
2.438220005E0,-3.115295768E-1,6.088985205E-1,-1.089324579E-1,6.925852769E-1
2.440664276E0,-3.103078306E-1,6.070659161E-1,-1.095433235E-1,6.905213363E-1
2.443109328E0,-3.084752560E-1,6.040115952E-1,-1.070998609E-1,6.866275344E-1
2.445555161E0,-3.054209054E-1,5.979029536E-1,-1.046563983E-1,6.795019007E-1
2.448000213E0,-3.017557263E-1,5.930160284E-1,-1.034346744E-1,6.733671066E-1
2.450444484E0,-2.993122637E-1,5.887399912E-1,-1.009912118E-1,6.681330955E-1
2.452889536E0,-2.974796891E-1,5.838530660E-1,-9.793689102E-2,6.625482644E-1
2.455335422E0,-2.925927639E-1,5.771335363E-1,-9.304997325E-2,6.537216088E-1
2.457780474E0,-2.907601595E-1,5.704140067E-1,-9.060651064E-2,6.466244267E-1
2.460224745E0,-2.889275849E-1,5.636945367E-1,-8.877392113E-2,6.396182370E-1
2.462669797E0,-2.858732343E-1,5.545315146E-1,-8.694132417E-2,6.299107085E-1
2.465115630E0,-2.834298015E-1,5.429251194E-1,-8.449786901E-2,6.182556328E-1
2.467560682E0,-2.797645926E-1,5.282643437E-1,-8.144354075E-2,6.032946995E-1
2.470004953E0,-2.760994136E-1,5.160470605E-1,-8.266527206E-2,5.910744471E-1
2.472450005E0,-2.718233466E-1,4.977211356E-1,-8.205440640E-2,5.730158691E-1
2.474895890E0,-2.693799138E-1,4.800060391E-1,-8.266527206E-2,5.566011883E-1
2.477340943E0,-2.663255632E-1,4.604583681E-1,-8.205440640E-2,5.382231321E-1
2.479785213E0,-2.626603842E-1,4.409106970E-1,-8.327613771E-2,5.199304138E-1
2.482230265E0,-2.602169216E-1,4.219738841E-1,-8.388700336E-2,5.028039722E-1
2.484676099E0,-2.571626008E-1,4.005936384E-1,-8.388700336E-2,4.833682816E-1
2.487121151E0,-2.541082799E-1,3.786025047E-1,-8.327613771E-2,4.635146056E-1
2.489565422E0,-2.534974217E-1,3.584439754E-1,-8.266527206E-2,4.467399395E-1
2.492010474E0,-2.516648173E-1,3.340093791E-1,-8.388700336E-2,4.265377767E-1
2.494456359E0,-2.504431009E-1,3.095747828E-1,-8.388700336E-2,4.069340516E-1
2.496901411E0,-2.479996234E-1,2.881945372E-1,-8.510872722E-2,3.896195579E-1
2.499345682E0,-2.412801087E-1,2.655925155E-1,-8.510872722E-2,3.687803826E-1
2.501790734E0,-2.400583774E-1,2.442122698E-1,-8.510872722E-2,3.528613789E-1
2.504236568E0,-2.357823253E-1,2.228319943E-1,-8.633045852E-2,3.357087289E-1
2.506681620E0,-2.339497358E-1,2.032843232E-1,-8.877392113E-2,3.223938647E-1
2.509125890E0,-2.308954149E-1,1.825149208E-1,-8.999565244E-2,3.077720040E-1
2.511570943E0,-2.290628105E-1,1.635781229E-1,-9.060651064E-2,2.956976720E-1
2.514016828E0,-2.284519523E-1,1.458630413E-1,-9.243910760E-2,2.863761686E-1
2.516461880E0,-2.260084897E-1,1.269262433E-1,-9.304997325E-2,2.754058935E-1
2.518906151E0,-2.260084897E-1,1.116546169E-1,-9.427170455E-2,2.691351801E-1
2.521351203E0,-2.260084897E-1,9.577212483E-2,-9.304997325E-2,2.625079710E-1
2.523797036E0,-2.241759002E-1,8.050050586E-2,-9.243910760E-2,2.554998127E-1
2.526242088E0,-2.229541689E-1,6.400717050E-2,-9.121737629E-2,2.492510563E-1
2.528686359E0,-2.223432958E-1,4.812468588E-2,-8.938478678E-2,2.444221076E-1
2.531131411E0,-2.192889750E-1,3.285306692E-2,-8.755218983E-2,2.383953953E-1
2.533577297E0,-2.156237960E-1,1.880317926E-2,-8.633045852E-2,2.330238808E-1
2.536022349E0,-2.119586021E-1,2.920697676E-3,-8.388700336E-2,2.279737020E-1
2.538466620E0,-2.076825500E-1,-1.235092152E-2,-8.205440640E-2,2.236459533E-1
2.540911672E0,-2.034064978E-1,-2.395734936E-2,-8.022181690E-2,2.199629466E-1
2.543357505E0,-1.991304457E-1,-3.556377813E-2,-7.961095124E-2,2.173835787E-1
2.545802557E0,-1.960761249E-1,-4.778107628E-2,-8.022181690E-2,2.171737045E-1
2.548246828E0,-1.918000728E-1,-5.511144921E-2,-7.961095124E-2,2.148544701E-1
2.550691880E0,-1.899674684E-1,-6.122009829E-2,-8.022181690E-2,2.151071347E-1
2.553137765E0,-1.869131476E-1,-6.671788543E-2,-8.144354075E-2,2.145247102E-1
2.555582818E0,-1.838588268E-1,-7.038307190E-2,-8.266527206E-2,2.135214092E-1
2.558027088E0,-1.826370955E-1,-7.038307190E-2,-8.510872722E-2,2.134328487E-1
2.560472140E0,-1.814153641E-1,-6.977220625E-2,-8.633045852E-2,2.126796727E-1
2.562917974E0,-1.789719015E-1,-6.549615413E-2,-8.755218983E-2,2.097285715E-1
2.565363026E0,-1.795827746E-1,-5.999836698E-2,-8.938478678E-2,2.093786453E-1
2.567807297E0,-1.795827746E-1,-5.266799405E-2,-9.182824194E-2,2.084617868E-1
2.570252349E0,-1.801936328E-1,-4.533761367E-2,-9.366083890E-2,2.080807470E-1
2.572698234E0,-1.814153641E-1,-3.983983397E-2,-9.549342841E-2,2.088486093E-1
2.575143286E0,-1.832479537E-1,-3.312032297E-2,-9.549342841E-2,2.092743730E-1
2.577587557E0,-1.850805581E-1,-2.456821501E-2,-9.549342841E-2,2.097079041E-1
2.580032609E0,-1.844696850E-1,-1.845956780E-2,-9.488256276E-2,2.082607045E-1
2.582478443E0,-1.869131476E-1,-1.174005587E-2,-9.366083890E-2,2.093960515E-1
2.584923495E0,-1.875240058E-1,-6.853138097E-3,-9.304997325E-2,2.094528963E-1
2.587367765E0,-1.893566102E-1,-2.577085746E-3,-9.182824194E-2,2.104637575E-1
2.589812818E0,-1.893566102E-1,1.698966371E-3,-9.182824194E-2,2.104548368E-1
2.592258703E0,-1.911891997E-1,2.920697676E-3,-9.060651064E-2,2.115924864E-1
2.594703755E0,-1.911891997E-1,4.142425023E-3,-8.938478678E-2,2.110926571E-1
2.597148026E0,-1.911891997E-1,4.753290676E-3,-8.877392113E-2,2.108476059E-1
2.599593078E0,-1.918000728E-1,5.364156328E-3,-8.816305548E-2,2.111605229E-1
2.602038911E0,-1.936326623E-1,5.364156328E-3,-8.816305548E-2,2.128264702E-1
2.604483963E0,-1.954652518E-1,4.142425023E-3,-8.755218983E-2,2.142176704E-1
2.606928234E0,-1.966869831E-1,4.753290676E-3,-8.755218983E-2,2.153456502E-1
2.609373286E0,-1.985195726E-1,3.531559603E-3,-8.694132417E-2,2.167516701E-1
2.611819172E0,-2.009630352E-1,2.309832023E-3,-8.633045852E-2,2.187336849E-1
2.614264224E0,-2.027956247E-1,4.753290676E-3,-8.510872722E-2,2.199821689E-1
2.616708495E0,-2.040173560E-1,4.142425023E-3,-8.571959287E-2,2.213325323E-1
2.619153547E0,-2.070716769E-1,3.531559603E-3,-8.633045852E-2,2.243749080E-1
2.621599380E0,-2.076825500E-1,4.142425023E-3,-8.633045852E-2,2.249492150E-1
2.624044432E0,-2.107368708E-1,3.531559603E-3,-8.571959287E-2,2.275309852E-1
2.626488703E0,-2.125694603E-1,4.142425023E-3,-8.633045852E-2,2.294686976E-1
2.628933755E0,-2.131803334E-1,3.531559603E-3,-8.633045852E-2,2.300245085E-1
2.631379640E0,-2.156237960E-1,3.531559603E-3,-8.755218983E-2,2.327476729E-1
2.633824693E0,-2.168455273E-1,2.309832023E-3,-8.633045852E-2,2.334100814E-1
2.636268963E0,-2.168455273E-1,4.772387911E-4,-8.571959287E-2,2.331738816E-1
2.638714015E0,-2.162346542E-1,-7.444925141E-4,-8.633045852E-2,2.328324033E-1
2.641159849E0,-2.174563855E-1,-1.966220094E-3,-8.633045852E-2,2.339745578E-1
2.643604953E0,-2.186781168E-1,-7.444925141E-4,-8.694132417E-2,2.353284235E-1
2.646049172E0,-2.180672437E-1,-1.966220094E-3,-8.633045852E-2,2.345423989E-1
2.648494276E0,-2.192889750E-1,-1.966220094E-3,-8.877392113E-2,2.365847198E-1
2.650940109E0,-2.186781168E-1,-4.409679212E-3,-8.938478678E-2,2.362820436E-1
2.653385161E0,-2.174563855E-1,-6.853138097E-3,-8.999565244E-2,2.354431196E-1
2.655829432E0,-2.168455273E-1,-1.051832829E-2,-8.877392113E-2,2.345494127E-1
2.658274484E0,-2.168455273E-1,-1.296178717E-2,-9.060651064E-2,2.353710484E-1
2.660720318E0,-2.168455273E-1,-1.907043159E-2,-9.060651064E-2,2.357863521E-1
2.663165422E0,-2.150129229E-1,-2.456821501E-2,-8.999565244E-2,2.343786928E-1
2.665609693E0,-2.137911916E-1,-2.823340334E-2,-8.999565244E-2,2.336728827E-1
2.668054745E0,-2.089042813E-1,-3.189859167E-2,-8.755218983E-2,2.287441908E-1
2.670500578E0,-2.052390873E-1,-3.617464378E-2,-8.694132417E-2,2.258107209E-1
2.672945630E0,-2.021847665E-1,-4.106156155E-2,-8.633045852E-2,2.236463273E-1
2.675389901E0,-1.991304457E-1,-4.472675174E-2,-8.449786901E-2,2.208920700E-1
2.677834953E0,-1.985195726E-1,-4.594847932E-2,-8.510872722E-2,2.208274868E-1
2.680280838E0,-1.960761249E-1,-4.472675174E-2,-8.449786901E-2,2.181426573E-1
2.682725890E0,-1.911891997E-1,-4.717021063E-2,-8.327613771E-2,2.138065807E-1
2.685170161E0,-1.887457371E-1,-4.472675174E-2,-8.205440640E-2,2.106142474E-1
2.687615213E0,-1.875240058E-1,-4.289415851E-2,-8.266527206E-2,2.093769538E-1
2.690061047E0,-1.869131476E-1,-4.167242721E-2,-8.144354075E-2,2.081013365E-1
2.692506099E0,-1.850805581E-1,-3.800724074E-2,-8.022181690E-2,2.052678816E-1
2.694950370E0,-1.838588268E-1,-3.556377813E-2,-8.022181690E-2,2.037262634E-1
2.697395422E0,-1.850805581E-1,-3.312032297E-2,-8.144354075E-2,2.049019744E-1
2.699841307E0,-1.856914163E-1,-3.006599844E-2,-8.327613771E-2,2.057186949E-1
2.702286359E0,-1.863022894E-1,-2.884426713E-2,-8.388700336E-2,2.063433161E-1
2.704730630E0,-1.856914163E-1,-2.701167390E-2,-8.388700336E-2,2.055430902E-1
2.707175682E0,-1.850805581E-1,-2.640080824E-2,-8.327613771E-2,2.046624801E-1
2.709621515E0,-1.832479537E-1,-2.578994446E-2,-8.266527206E-2,2.026782696E-1
2.712066568E0,-1.826370955E-1,-2.578994446E-2,-8.144354075E-2,2.016295618E-1
2.714510838E0,-1.814153641E-1,-2.762253955E-2,-8.022181690E-2,2.002750083E-1
2.716955890E0,-1.777501851E-1,-2.823340334E-2,-7.777835429E-2,1.960656160E-1
2.719401776E0,-1.765284538E-1,-3.006599844E-2,-7.716748863E-2,1.949899499E-1
2.721846828E0,-1.746958494E-1,-3.067686222E-2,-7.411316782E-2,1.922302560E-1
2.724291099E0,-1.722524017E-1,-3.312032297E-2,-7.166970521E-2,1.894845438E-1
2.726736151E0,-1.691980660E-1,-3.556377813E-2,-6.922625005E-2,1.862392052E-1
2.729181984E0,-1.667546183E-1,-3.861810267E-2,-6.678278744E-2,1.837345947E-1
2.731627036E0,-1.643111557E-1,-4.350502044E-2,-6.372846663E-2,1.815272986E-1
2.734071307E0,-1.612568349E-1,-4.655934498E-2,-6.006327271E-2,1.782670360E-1
2.736516359E0,-1.600351036E-1,-5.022453144E-2,-5.578722060E-2,1.767652452E-1
2.738962245E0,-1.606459618E-1,-5.511144921E-2,-5.273289606E-2,1.778346288E-1
2.741407297E0,-1.582025141E-1,-5.877663940E-2,-5.028943717E-2,1.761015511E-1
2.743851568E0,-1.563699096E-1,-6.122009829E-2,-4.784597829E-2,1.746100991E-1
2.746296620E0,-1.539264470E-1,-6.060923263E-2,-4.479165748E-2,1.713858884E-1
2.748742453E0,-1.527047306E-1,-5.938750505E-2,-4.295906052E-2,1.693844485E-1
2.751187557E0,-1.520938575E-1,-5.633318052E-2,-4.173733294E-2,1.674752928E-1
2.753631776E0,-1.508721262E-1,-5.022453144E-2,-4.051560163E-2,1.640927055E-1
2.756076828E0,-1.508721262E-1,-4.533761367E-2,-3.685041517E-2,1.617895262E-1
2.758522713E0,-1.490395367E-1,-3.617464378E-2,-3.623954952E-2,1.575902703E-1
2.760967765E0,-1.484286636E-1,-2.701167390E-2,-3.379609063E-2,1.546055447E-1
2.763412036E0,-1.465960741E-1,-1.784870401E-2,-3.379609063E-2,1.514964056E-1
2.765857088E0,-1.459852159E-1,-9.296596982E-3,-3.501782194E-2,1.504139549E-1
2.768302922E0,-1.435417533E-1,-3.798815189E-3,-3.501782194E-2,1.478002496E-1
2.770748026E0,-1.429308951E-1,1.698966371E-3,-3.685041517E-2,1.476146346E-1
2.773192245E0,-1.410982907E-1,4.142425023E-3,-3.929387406E-2,1.465260928E-1
2.775637349E0,-1.374331117E-1,4.142425023E-3,-3.990473971E-2,1.431691591E-1
2.778083182E0,-1.349896491E-1,1.088104444E-3,-4.173733294E-2,1.412989536E-1
2.780528234E0,-1.325461864E-1,-3.798815189E-3,-4.356992617E-2,1.395752879E-1
2.782972505E0,-1.294918656E-1,-9.907462634E-3,-4.601338506E-2,1.377807413E-1
2.785417557E0,-1.264375448E-1,-1.968129724E-2,-5.028943717E-2,1.374875765E-1
2.787863390E0,-1.215506196E-1,-3.189859167E-2,-5.273289606E-2,1.362821764E-1
2.790308495E0,-1.184962988E-1,-4.472675174E-2,-5.334376171E-2,1.374314813E-1
2.792752713E0,-1.142202467E-1,-6.060923263E-2,-5.456549302E-2,1.403464886E-1
2.795197818E0,-1.068898737E-1,-7.893518358E-2,-5.761981755E-2,1.448318048E-1
2.797643651E0,-1.020029485E-1,-9.726112336E-2,-6.067413837E-2,1.534460123E-1
2.800088703E0,-9.711603820E-2,-1.149762049E-1,-6.128500402E-2,1.625020132E-1
2.802532974E0,-9.100738913E-2,-1.314695328E-1,-6.311760098E-2,1.719023400E-1
2.804978026E0,-8.428787440E-2,-1.473520249E-1,-6.617192179E-2,1.821971137E-1
2.807423911E0,-7.634663582E-2,-1.607910544E-1,-6.922625005E-2,1.909838885E-1
2.809868963E0,-7.023798674E-2,-1.717866063E-1,-7.350230217E-2,1.996161349E-1
2.812313234E0,-6.351847202E-2,-1.797278523E-1,-7.655662298E-2,2.054205776E-1
2.814758286E0,-5.802069232E-2,-1.870582253E-1,-8.144354075E-2,2.121090067E-1
2.817204120E0,-5.313377455E-2,-1.901125610E-1,-8.571959287E-2,2.152064879E-1
2.819649172E0,-4.824685678E-2,-1.931668818E-1,-9.060651064E-2,2.187481273E-1
2.822093443E0,-4.335993901E-2,-1.943886131E-1,-9.610429406E-2,2.211403458E-1
2.824538495E0,-3.725129366E-2,-1.937777400E-1,-1.009912118E-1,2.216679866E-1
2.826984380E0,-3.236437589E-2,-1.931668818E-1,-1.064889953E-1,2.229367694E-1
2.829429432E0,-2.686659433E-2,-1.907234192E-1,-1.089324579E-1,2.212770139E-1
2.831873703E0,-2.014708333E-2,-1.925560087E-1,-1.113759130E-1,2.233569239E-1
2.834318755E0,-1.403843518E-2,-1.919451505E-1,-1.138193756E-1,2.235953236E-1
2.836764588E0,-5.486329086E-3,-1.895016879E-1,-1.125976443E-1,2.204976622E-1
2.839209640E0,3.065777244E-3,-1.895016879E-1,-1.125976443E-1,2.204507161E-1
2.841653911E0,1.222874783E-2,-1.888908297E-1,-1.095433235E-1,2.186984855E-1
2.844098963E0,2.139171772E-2,-1.907234192E-1,-1.070998609E-1,2.197803640E-1
2.846544849E0,3.238728642E-2,-1.913342774E-1,-1.034346744E-1,2.199010548E-1
2.848989901E0,4.216112196E-2,-1.937777400E-1,-9.915862232E-2,2.217201053E-1
2.851434172E0,5.437841639E-2,-1.962212026E-1,-9.549342841E-2,2.248972374E-1
2.853879224E0,6.354138255E-2,-1.986646652E-1,-9.243910760E-2,2.281450090E-1
2.856325057E0,7.270435989E-2,-2.011081129E-1,-8.877392113E-2,2.315409383E-1
2.858770109E0,8.186732978E-2,-2.047733068E-1,-8.510872722E-2,2.363849875E-1
2.861214380E0,9.286289662E-2,-2.072167695E-1,-8.327613771E-2,2.418619900E-1
2.863659484E0,1.032475978E-1,-2.133254111E-1,-8.144354075E-2,2.506009733E-1
2.866105318E0,1.154648885E-1,-2.188231945E-1,-8.022181690E-2,2.600985791E-1
2.868550370E0,1.246278584E-1,-2.237101197E-1,-8.083267510E-2,2.685372267E-1
2.870994640E0,1.362342834E-1,-2.316513509E-1,-7.900008559E-2,2.801127306E-1
2.873439693E0,1.490624547E-1,-2.383708656E-1,-8.022181690E-2,2.923624888E-1
2.875885578E0,1.618906111E-1,-2.444795072E-1,-8.022181690E-2,3.039972686E-1
2.878330630E0,1.741078943E-1,-2.505881786E-1,-8.083267510E-2,3.156610769E-1
2.880774901E0,1.893795133E-1,-2.603619993E-1,-8.083267510E-2,3.319441099E-1
2.883219953E0,2.015968114E-1,-2.695249617E-1,-8.266527206E-2,3.465811976E-1
2.885665786E0,2.150358409E-1,-2.774662077E-1,-8.449786901E-2,3.610648130E-1
2.888110838E0,2.321400493E-1,-2.860183120E-1,-8.694132417E-2,3.784894598E-1
2.890555109E0,2.492442429E-1,-2.957921624E-1,-8.938478678E-2,3.969953855E-1
2.893000161E0,2.669593096E-1,-3.025116622E-1,-9.060651064E-2,4.135095144E-1
2.895446047E0,2.865070105E-1,-3.055659831E-1,-9.182824194E-2,4.288231140E-1
2.897891099E0,3.066655397E-1,-3.067877293E-1,-9.366083890E-2,4.437733846E-1
2.900335370E0,3.268240690E-1,-3.031225204E-1,-9.366083890E-2,4.554882954E-1
2.902780422E0,3.463717401E-1,-2.988464832E-1,-9.427170455E-2,4.670864558E-1
2.905226255E0,3.695845902E-1,-2.939595580E-1,-9.488256276E-2,4.816717677E-1
2.907671307E0,3.940191865E-1,-2.884617746E-1,-9.488256276E-2,4.974575514E-1
2.910115578E0,4.190646410E-1,-2.792987823E-1,-9.488256276E-2,5.124701785E-1
2.912560630E0,4.477752745E-1,-2.738010287E-1,-9.854775667E-2,5.340237449E-1
2.915006515E0,4.789293706E-1,-2.670814991E-1,-1.058781296E-1,5.584944472E-1
2.917451568E0,5.100834966E-1,-2.597511113E-1,-1.180954203E-1,5.844675710E-1
2.919895838E0,5.430701971E-1,-2.530316114E-1,-1.315344274E-1,6.133934634E-1
2.922340890E0,5.760568976E-1,-2.438686490E-1,-1.498603821E-1,6.432508075E-1
2.924786724E0,6.066001058E-1,-2.310404927E-1,-1.657428592E-1,6.699358872E-1
2.927231776E0,6.340889931E-1,-2.145471424E-1,-1.773492843E-1,6.924970008E-1
2.929676047E0,6.591344476E-1,-1.949994713E-1,-1.871231198E-1,7.123889919E-1
2.932121099E0,6.823473573E-1,-1.760626733E-1,-1.944535077E-1,7.310322480E-1
2.934566984E0,7.031167150E-1,-1.571258605E-1,-1.999512911E-1,7.476912262E-1
2.937012036E0,7.226644158E-1,-1.467411518E-1,-2.054490596E-1,7.654973152E-1
2.939456307E0,7.440446615E-1,-1.406325102E-1,-2.109468430E-1,7.860524994E-1
2.941901359E0,7.635923624E-1,-1.449085623E-1,-2.170554996E-1,8.069602699E-1
2.944347193E0,7.861943245E-1,-1.595693231E-1,-2.201098204E-1,8.318727173E-1
2.946792297E0,8.094071746E-1,-1.821713150E-1,-2.243858725E-1,8.594622633E-1
2.949236515E0,8.356744051E-1,-2.194340676E-1,-2.286619246E-1,8.937501313E-1
2.951681620E0,8.649958968E-1,-2.603619993E-1,-2.317162454E-1,9.325763725E-1
2.954127453E0,8.961499929E-1,-3.006790578E-1,-2.335488498E-1,9.736723119E-1
2.956572505E0,9.297475219E-1,-3.416070044E-1,-2.353814393E-1,1.018101283E0
2.959016776E0,9.621233940E-1,-3.770371675E-1,-2.353814393E-1,1.059831530E0
2.961461828E0,9.957209229E-1,-4.088021219E-1,-2.353814393E-1,1.101809309E0
2.963907661E0,1.028096795E0,-4.338475764E-1,-2.366031706E-1,1.140696191E0
2.966352765E0,1.058640003E0,-4.521735311E-1,-2.359922975E-1,1.175105069E0
2.968796984E0,1.086128950E0,-4.668342769E-1,-2.353814393E-1,1.205410619E0
2.971242088E0,1.112396121E0,-4.759972394E-1,-2.359922975E-1,1.232757424E0
2.973687922E0,1.134387255E0,-4.851602018E-1,-2.353814393E-1,1.256033155E0
2.976132974E0,1.157600164E0,-4.931014478E-1,-2.347705662E-1,1.279962655E0
2.978577245E0,1.177147865E0,-4.998209774E-1,-2.372140288E-1,1.300680054E0
2.981022297E0,1.197306395E0,-5.065404773E-1,-2.384357601E-1,1.321732753E0
2.983468182E0,1.219908357E0,-5.150925517E-1,-2.408792228E-1,1.345927017E0
2.985913234E0,1.238845110E0,-5.212011933E-1,-2.463770211E-1,1.366414844E0
2.988357505E0,1.262668848E0,-5.297533274E-1,-2.506530583E-1,1.392048190E0
2.990802557E0,1.285270929E0,-5.376945734E-1,-2.543182373E-1,1.416232531E0
2.993248390E0,1.309705496E0,-5.468575358E-1,-2.585943043E-1,1.442654728E0
2.995693443E0,1.333529234E0,-5.547987819E-1,-2.665355504E-1,1.468721589E0
2.998137713E0,1.357963800E0,-5.639617443E-1,-2.744767666E-1,1.495812832E0
3.000582765E0,1.381787539E0,-5.761790872E-1,-2.805854380E-1,1.523170158E0
3.003028651E0,1.404389501E0,-5.902289748E-1,-2.854723334E-1,1.549895018E0
3.005473703E0,1.428213239E0,-6.055005789E-1,-2.928027213E-1,1.578656847E0
3.007917974E0,1.450815201E0,-6.207721829E-1,-2.970787883E-1,1.605764197E0
3.010363026E0,1.475249767E0,-6.390981078E-1,-3.031874299E-1,1.636071785E0
3.012808859E0,1.500295281E0,-6.555914879E-1,-3.080743253E-1,1.666011981E0
3.015253911E0,1.527173281E0,-6.720848083E-1,-3.129612505E-1,1.697616259E0
3.017698182E0,1.552829623E0,-6.891890168E-1,-3.178481758E-1,1.728377506E0
3.020143234E0,1.581540227E0,-7.062932253E-1,-3.251785636E-1,1.762345229E0
3.022589120E0,1.604753137E0,-7.215648890E-1,-3.294546008E-1,1.790091856E0
3.025034172E0,1.630409479E0,-7.368364930E-1,-3.367849886E-1,1.820600784E0
3.027478443E0,1.654233217E0,-7.521080971E-1,-3.441153467E-1,1.849478169E0
3.029923495E0,1.678056836E0,-7.679905891E-1,-3.490022719E-1,1.878160503E0
3.032369328E0,1.700047970E0,-7.820404768E-1,-3.557218015E-1,1.904806659E0
3.034814432E0,1.720206499E0,-7.954794765E-1,-3.624413013E-1,1.929575522E0
3.037258703E0,1.743419409E0,-8.070859313E-1,-3.679390848E-1,1.956087448E0
3.039703755E0,1.764799714E0,-8.180814981E-1,-3.740477264E-1,1.980829894E0
3.042149588E0,1.785569072E0,-8.260227442E-1,-3.813781142E-1,2.004000936E0
3.044594640E0,1.808781981E0,-8.309096694E-1,-3.880976140E-1,2.027984934E0
3.047038911E0,1.829551339E0,-8.351857066E-1,-3.948171437E-1,2.049554548E0
3.049483963E0,1.847877264E0,-8.394617438E-1,-4.003149271E-1,2.068719034E0
3.051929849E0,1.863148928E0,-8.419052362E-1,-4.076452851E-1,2.084778893E0
3.054374901E0,1.879031420E0,-8.449595571E-1,-4.143648148E-1,2.101526571E0
3.056819172E0,1.891859531E0,-8.467921019E-1,-4.235277772E-1,2.115553150E0
3.059264224E0,1.905298591E0,-8.486247063E-1,-4.284147024E-1,2.129287620E0
3.061710057E0,1.916905046E0,-8.492355943E-1,-4.345233440E-1,2.141153097E0
3.064155109E0,1.932176590E0,-8.486247063E-1,-4.418537021E-1,2.156085564E0
3.066599380E0,1.949280858E0,-8.474029899E-1,-4.473514855E-1,2.172075285E0
3.069044432E0,1.966385007E0,-8.467921019E-1,-4.528492689E-1,2.188332543E0
3.071490318E0,1.981656671E0,-8.461812735E-1,-4.595687985E-1,2.203222501E0
3.073935370E0,1.998149991E0,-8.455703855E-1,-4.644556940E-1,2.218853703E0
3.076379640E0,2.012810469E0,-8.449595571E-1,-4.705643654E-1,2.233112952E0
3.078824693E0,2.026860476E0,-8.443486691E-1,-4.772838652E-1,2.246973064E0
3.081270526E0,2.040910244E0,-8.480138779E-1,-4.840033650E-1,2.262454733E0
3.083715578E0,2.057403564E0,-8.498464823E-1,-4.919446111E-1,2.279727609E0
3.086159849E0,2.070842743E0,-8.541225195E-1,-4.986641407E-1,2.294903237E0
3.088604901E0,2.086114168E0,-8.602311611E-1,-5.072162151E-1,2.312820413E0
3.091050786E0,2.099553347E0,-8.632854819E-1,-5.157683492E-1,2.327961140E0
3.093495838E0,2.111159801E0,-8.693941236E-1,-5.255421996E-1,2.342869278E0
3.095940109E0,2.122155190E0,-8.755027652E-1,-5.340942740E-1,2.356969332E0
3.098385161E0,2.134372711E0,-8.797788024E-1,-5.438681245E-1,2.371782062E0
3.100830995E0,2.146589994E0,-8.828331232E-1,-5.536419749E-1,2.386160591E0
3.103276047E0,2.155752897E0,-8.852766156E-1,-5.640266538E-1,2.397730449E0
3.105720318E0,2.164304972E0,-8.889418244E-1,-5.744113326E-1,2.409228498E0
3.108165370E0,2.171635389E0,-8.932178617E-1,-5.841851830E-1,2.419733609E0
3.110611255E0,2.175911427E0,-8.974938989E-1,-5.964024663E-1,2.428123089E0
3.113056307E0,2.180187464E0,-9.017699361E-1,-6.067872047E-1,2.436102852E0
3.115500578E0,2.184463501E0,-9.054351449E-1,-6.183936000E-1,2.444198076E0
3.117945630E0,2.189350367E0,-9.072677493E-1,-6.287783384E-1,2.451887435E0
3.120391463E0,2.196069956E0,-9.084894657E-1,-6.391630173E-1,2.461017213E0
3.122836568E0,2.200956821E0,-9.060460329E-1,-6.495476961E-1,2.467193254E0
3.125280786E0,2.204011202E0,-9.042134285E-1,-6.593215466E-1,2.471835796E0
3.127725890E0,2.204011202E0,-9.042134285E-1,-6.690953970E-1,2.474460740E0
3.130171724E0,2.204011202E0,-9.048242569E-1,-6.776474714E-1,2.477009974E0
3.132616776E0,2.202178478E0,-9.060460329E-1,-6.880322099E-1,2.478688723E0
3.135061047E0,2.198513508E0,-9.072677493E-1,-6.959734559E-1,2.478099164E0
3.137506099E0,2.197291613E0,-9.115437865E-1,-7.026929259E-1,2.480479763E0
3.139951984E0,2.195459127E0,-9.182633162E-1,-7.112450600E-1,2.483770890E0
3.142397036E0,2.192404747E0,-9.280371666E-1,-7.161319852E-1,2.486108722E0
3.144841307E0,2.189350367E0,-9.372001290E-1,-7.210189104E-1,2.488265938E0
3.147286359E0,2.189350367E0,-9.475848079E-1,-7.252949476E-1,2.493436335E0
3.149732193E0,2.189961195E0,-9.549151659E-1,-7.283492684E-1,2.497656034E0
3.152177245E0,2.191183090E0,-9.610238075E-1,-7.314035892E-1,2.501959493E0
3.154621515E0,2.192404747E0,-9.659107327E-1,-7.301818728E-1,2.504553390E0
3.157066568E0,2.191793919E0,-9.701868296E-1,-7.307927012E-1,2.505849365E0
3.159512453E0,2.193015575E0,-9.720193744E-1,-7.314035892E-1,2.507805851E0
3.161957505E0,2.196069956E0,-9.726302624E-1,-7.307927012E-1,2.510535969E0
3.164401776E0,2.201567650E0,-9.720193744E-1,-7.295709848E-1,2.514755575E0
3.166846828E0,2.206454754E0,-9.732411504E-1,-7.289601564E-1,2.519330035E0
3.169292661E0,2.213174105E0,-9.750736952E-1,-7.283492684E-1,2.525747609E0
3.171737713E0,2.220504522E0,-9.854584336E-1,-7.240732312E-1,2.534965622E0
3.174181984E0,2.229056597E0,-1.000119209E0,-7.222406268E-1,2.547658389E0
3.176627036E0,2.240663052E0,-1.020277739E0,-7.161319852E-1,2.564055888E0
3.179072922E0,2.252880335E0,-1.045934081E0,-7.124667764E-1,2.584000157E0
3.181517974E0,2.268762827E0,-1.077088118E0,-7.075798512E-1,2.609228396E0
3.183962245E0,2.285256147E0,-1.113129139E0,-7.002494931E-1,2.636626916E0
3.186407297E0,2.302360296E0,-1.154057026E0,-6.923082471E-1,2.666833565E0
3.188853130E0,2.320686340E0,-1.198039293E0,-6.825343966E-1,2.699395570E0
3.191298182E0,2.336568832E0,-1.246297598E0,-6.733714342E-1,2.732442259E0
3.193742453E0,2.353672981E0,-1.299442887E0,-6.629867554E-1,2.769093671E0
3.196187557E0,2.370777130E0,-1.352588177E0,-6.538237929E-1,2.806699936E0
3.198633390E0,2.386659622E0,-1.408176780E0,-6.440499425E-1,2.844979143E0
3.201078443E0,2.401320457E0,-1.467430711E0,-6.342760921E-1,2.884787512E0
3.203522713E0,2.415370464E0,-1.523019433E0,-6.245022416E-1,2.922944701E0
3.205967765E0,2.430031061E0,-1.579218984E0,-6.171718836E-1,2.963087020E0
3.208413599E0,2.441637516E0,-1.631753325E0,-6.104523540E-1,2.999477413E0
3.210858703E0,2.454465628E0,-1.683676839E0,-6.049546003E-1,3.037291439E0
3.213302922E0,2.465461254E0,-1.729491711E0,-6.006785631E-1,3.070904673E0
3.215748026E0,2.473402500E0,-1.775306463E0,-5.982350707E-1,3.102791995E0
3.218193859E0,2.477067709E0,-1.816234469E0,-5.976242423E-1,3.129173504E0
3.220638911E0,2.475235224E0,-1.854108095E0,-5.988459587E-1,3.150098844E0
3.223083182E0,2.468515635E0,-1.887705564E0,-6.012893915E-1,3.165209419E0
3.225528234E0,2.459352732E0,-1.919470549E0,-6.067872047E-1,3.178202913E0
3.227974120E0,2.447746277E0,-1.946348667E0,-6.141175628E-1,3.186985308E0
3.230419172E0,2.434917927E0,-1.966507196E0,-6.245022416E-1,3.191548043E0
3.232863443E0,2.420868158E0,-1.982389688E0,-6.379413009E-1,3.193343173E0
3.235308495E0,2.406818151E0,-1.993996024E0,-6.532129049E-1,3.193036307E0
3.237754328E0,2.390935898E0,-1.993996024E0,-6.715388298E-1,3.184895448E0
3.240199380E0,2.372609854E0,-1.989109159E0,-6.916973591E-1,3.172424625E0
3.242643651E0,2.352451324E0,-1.976891875E0,-7.161319852E-1,3.155150352E0
3.245088703E0,2.330460072E0,-1.958565950E0,-7.399557233E-1,3.132819688E0
3.247534588E0,2.306025505E0,-1.937796474E0,-7.680554986E-1,3.108491282E0
3.249979640E0,2.279758453E0,-1.909696698E0,-7.985987067E-1,3.079285628E0
3.252423911E0,2.246160746E0,-1.883429527E0,-8.334180117E-1,3.047479362E0
3.254868963E0,2.218672037E0,-1.847999454E0,-8.682373166E-1,3.015202087E0
3.257314797E0,2.186295986E0,-1.813791037E0,-9.030565619E-1,2.980811839E0
3.259759849E0,2.158807278E0,-1.772863030E0,-9.390975833E-1,2.947099669E0
3.262204120E0,2.130707502E0,-1.733767748E0,-9.763603210E-1,2.915329234E0
3.264649172E0,2.103218555E0,-1.692228913E0,-1.014234066E0,2.883719426E0
3.267095057E0,2.076951265E0,-1.650690079E0,-1.050885916E0,2.853570658E0
3.269540109E0,2.048851490E0,-1.608540416E0,-1.086316109E0,2.822282301E0
3.271984380E0,2.028082132E0,-1.566390753E0,-1.120524526E0,2.796832555E0
3.274429432E0,1.999371648E0,-1.527906299E0,-1.152900338E0,2.767880748E0
3.276875265E0,1.976769686E0,-1.483313203E0,-1.184665322E0,2.740669330E0
3.279320318E0,1.952335119E0,-1.439941764E0,-1.212765098E0,2.712165903E0
3.281764588E0,1.929122329E0,-1.397181273E0,-1.239032269E0,2.684926336E0
3.284209640E0,1.904687643E0,-1.356253266E0,-1.259190798E0,2.655714481E0
3.286655526E0,1.877198815E0,-1.317157984E0,-1.278738499E0,2.625633770E0
3.289100578E0,1.853375077E0,-1.280506134E0,-1.293399215E0,2.597609798E0
3.291544849E0,1.824053526E0,-1.247519374E0,-1.305005670E0,2.566420786E0
3.293989901E0,1.802062392E0,-1.217586994E0,-1.314779520E0,2.541376033E0
3.296435734E0,1.773962617E0,-1.198650241E0,-1.320277333E0,2.515320656E0
3.298880838E0,1.755636692E0,-1.179713368E0,-1.321498990E0,2.494061629E0
3.301325057E0,1.732423902E0,-1.167496085E0,-1.322109938E0,2.472309522E0
3.303770161E0,1.713487029E0,-1.158944011E0,-1.318444729E0,2.453056363E0
3.306215995E0,1.694550276E0,-1.155278802E0,-1.311725140E0,2.434500480E0
3.308661047E0,1.677446008E0,-1.155889630E0,-1.306838274E0,2.420275237E0
3.311105318E0,1.664006948E0,-1.158944011E0,-1.298897028E0,2.408153615E0
3.313550370E0,1.646902800E0,-1.163830876E0,-1.290955782E0,2.394443144E0
3.315996255E0,1.637739778E0,-1.172993898E0,-1.283625364E0,2.388681716E0
3.318441307E0,1.623079062E0,-1.185822010E0,-1.276905894E0,2.381396259E0
3.320885578E0,1.613305211E0,-1.199261069E0,-1.269575477E0,2.377562346E0
3.323330630E0,1.600477099E0,-1.218197823E0,-1.264688611E0,2.375914595E0
3.325776463E0,1.589481473E0,-1.235302091E0,-1.262856007E0,2.376389678E0
3.328221515E0,1.575431585E0,-1.255460620E0,-1.259801745E0,2.375976954E0
3.330665786E0,1.561381698E0,-1.276840925E0,-1.259801745E0,2.378095034E0
3.333110838E0,1.550386190E0,-1.300053716E0,-1.261023402E0,2.384117662E0
3.335556724E0,1.535725355E0,-1.320212245E0,-1.264077783E0,2.387321800E0
3.338001776E0,1.525340676E0,-1.337316513E0,-1.267132044E0,2.391799166E0
3.340446047E0,1.510679960E0,-1.356864214E0,-1.271408081E0,2.395769802E0
3.342891099E0,1.500906110E0,-1.370303154E0,-1.278127670E0,2.400845731E0
3.345336932E0,1.488077998E0,-1.382520437E0,-1.284847140E0,2.403449825E0
3.347781984E0,1.475249767E0,-1.389240026E0,-1.291566610E0,2.403017694E0
3.350226255E0,1.459978223E0,-1.394737840E0,-1.300118804E0,2.401486822E0
3.352671307E0,1.447149992E0,-1.395959496E0,-1.307449102E0,2.398409717E0
3.355117193E0,1.432489276E0,-1.397181273E0,-1.317222953E0,2.395666367E0
3.357562245E0,1.417828560E0,-1.395348668E0,-1.325164199E0,2.390250172E0
3.360006515E0,1.403167725E0,-1.391683459E0,-1.333716273E0,2.384210899E0
3.362451568E0,1.390339613E0,-1.386796594E0,-1.341046691E0,2.377951904E0
3.364897401E0,1.378733158E0,-1.382520437E0,-1.350209713E0,2.373885875E0
3.367342453E0,1.361018062E0,-1.380077004E0,-1.356318355E0,2.365709657E0
3.369786724E0,1.343302965E0,-1.385574818E0,-1.362426996E0,2.362305601E0
3.372231776E0,1.325587988E0,-1.402678967E0,-1.370368242E0,2.366981393E0
3.374677661E0,1.319479346E0,-1.422226667E0,-1.380142093E0,2.380870982E0
3.377122713E0,1.313981533E0,-1.441163540E0,-1.389304996E0,2.394507922E0
3.379566984E0,1.309094548E0,-1.457656860E0,-1.399078846E0,2.407470389E0
3.382012036E0,1.301153302E0,-1.471706748E0,-1.408852696E0,2.417392518E0
3.384457870E0,1.292601228E0,-1.482702255E0,-1.418015599E0,2.424869512E0
3.386902974E0,1.281605721E0,-1.492476106E0,-1.426567793E0,2.430039880E0
3.389347193E0,1.269388437E0,-1.499806523E0,-1.435119867E0,2.433173986E0
3.391792297E0,1.257781982E0,-1.509580374E0,-1.444282889E0,2.438606464E0
3.394238130E0,1.246786356E0,-1.518132448E0,-1.451002359E0,2.442255145E0
3.396683182E0,1.234569073E0,-1.526684523E0,-1.460165381E0,2.446836604E0
3.399127453E0,1.223573565E0,-1.537680149E0,-1.468106508E0,2.452942973E0
3.401572505E0,1.211967111E0,-1.547454000E0,-1.474215269E0,2.456987753E0
3.404018338E0,1.201582432E0,-1.556616902E0,-1.478491306E0,2.460242481E0
3.406463443E0,1.191808581E0,-1.564558148E0,-1.483378172E0,2.463465180E0
3.408907713E0,1.182645559E0,-1.570055962E0,-1.485821605E0,2.464019497E0
3.411352765E0,1.170428276E0,-1.573110342E0,-1.487043381E0,2.460869057E0
3.413798599E0,1.159432769E0,-1.577386379E0,-1.488875985E0,2.459508860E0
3.416243651E0,1.147215486E0,-1.583495021E0,-1.491319418E0,2.459185527E0
3.418687922E0,1.132554650E0,-1.589603662E0,-1.491930246E0,2.456700165E0
3.421132974E0,1.118504763E0,-1.597544909E0,-1.492541194E0,2.455785384E0
3.423578807E0,1.106898427E0,-1.606707811E0,-1.492541194E0,2.456504292E0
3.426023911E0,1.093459368E0,-1.612205625E0,-1.491319418E0,2.453343427E0
3.428468130E0,1.084296346E0,-1.618925095E0,-1.491930246E0,2.454072714E0
3.430913234E0,1.072690010E0,-1.624422908E0,-1.490097642E0,2.451490286E0
3.433359068E0,1.062305212E0,-1.622590303E0,-1.488875985E0,2.445003754E0
3.435804120E0,1.053753138E0,-1.621368647E0,-1.487043381E0,2.439370816E0
3.438248390E0,1.043368459E0,-1.615870833E0,-1.486432552E0,2.430871865E0
3.440693443E0,1.033594608E0,-1.605486155E0,-1.484599948E0,2.418665048E0
3.443139328E0,1.020766497E0,-1.595712304E0,-1.485210776E0,2.407096394E0
3.445584380E0,1.007938266E0,-1.584716678E0,-1.484599948E0,2.394014098E0
3.448028651E0,9.926666021E-1,-1.571888566E0,-1.484599948E0,2.379129600E0
3.450473703E0,9.755623937E-1,-1.565779924E0,-1.486432552E0,2.369149740E0
3.452919536E0,9.602907896E-1,-1.559671283E0,-1.489486814E0,2.360784590E0
3.455364588E0,9.425756931E-1,-1.562725544E0,-1.492541194E0,2.357591839E0
3.457808859E0,9.248606563E-1,-1.570666790E0,-1.494984627E0,2.357401203E0
3.460253911E0,9.077563882E-1,-1.587771058E0,-1.498649836E0,2.364527421E0
3.462699797E0,8.955391049E-1,-1.611594796E0,-1.502925873E0,2.378658079E0
3.465144849E0,8.833218217E-1,-1.643359780E0,-1.505980134E0,2.397679080E0
3.467589120E0,8.729371428E-1,-1.682455063E0,-1.511477947E0,2.424301936E0
3.470034172E0,8.625524044E-1,-1.728269935E0,-1.516975760E0,2.456039307E0
3.472480005E0,8.527786136E-1,-1.774695635E0,-1.523084402E0,2.489289468E0
3.474925057E0,8.442264795E-1,-1.824786544E0,-1.529803872E0,2.526433092E0
3.477369328E0,8.350635171E-1,-1.879764318E0,-1.536523461E0,2.567440227E0
3.479814380E0,8.246788383E-1,-1.937796474E0,-1.545075536E0,2.611974114E0
3.482260265E0,8.100180626E-1,-1.995828629E0,-1.553627610E0,2.655789888E0
3.484705318E0,7.984116077E-1,-2.058136940E0,-1.564623237E0,2.705814966E0
3.487149588E0,7.837508917E-1,-2.118001699E0,-1.576229572E0,2.754032738E0
3.489594640E0,7.666466832E-1,-2.179088116E0,-1.587225199E0,2.802758638E0
3.492040474E0,7.513750196E-1,-2.238342047E0,-1.600053310E0,2.852176386E0
3.494485526E0,7.336599827E-1,-2.293319702E0,-1.613492370E0,2.898435760E0
3.496929797E0,7.177774906E-1,-2.345243216E0,-1.626931429E0,2.943174501E0
3.499374849E0,6.994515657E-1,-2.392890692E0,-1.639148712E0,2.983616406E0
3.501820734E0,6.823473573E-1,-2.436262131E0,-1.651976824E0,3.021588740E0
3.504265786E0,6.676865816E-1,-2.471692324E0,-1.662361503E0,3.052624130E0
3.506710057E0,6.499714851E-1,-2.502846479E0,-1.673357129E0,3.080069401E0
3.509155109E0,6.304238439E-1,-2.527891874E0,-1.683741808E0,3.102040945E0
3.511600943E0,6.127087474E-1,-2.551715612E0,-1.693515658E0,3.123245085E0
3.514045995E0,5.968262553E-1,-2.571263313E0,-1.705122113E0,3.142457323E0
3.516490265E0,5.797220469E-1,-2.591421843E0,-1.714895964E0,3.161077820E0
3.518935370E0,5.601744056E-1,-2.605471611E0,-1.724058867E0,3.174059964E0
3.521381203E0,5.406267047E-1,-2.621354103E0,-1.735054493E0,3.189700403E0
3.523826255E0,5.204681754E-1,-2.636625767E0,-1.744828224E0,3.204232839E0
3.526270526E0,5.009205341E-1,-2.654340744E0,-1.755823851E0,3.221701967E0
3.528715578E0,4.813728333E-1,-2.671445131E0,-1.767430305E0,3.239158653E0
3.531161411E0,4.618251622E-1,-2.686105728E0,-1.777204156E0,3.253751846E0
3.533606515E0,4.441100955E-1,-2.697101355E0,-1.785756230E0,3.265044381E0
3.536050734E0,4.239515662E-1,-2.705653429E0,-1.794308305E0,3.274116324E0
3.538495838E0,4.044038951E-1,-2.706875324E0,-1.802860379E0,3.277349856E0
3.540941672E0,3.879105449E-1,-2.706264257E0,-1.810801625E0,3.279229078E0
3.543386724E0,3.689737320E-1,-2.701377392E0,-1.818132043E0,3.277069660E0
3.545830995E0,3.488152027E-1,-2.692825317E0,-1.824240685E0,3.271212972E0
3.548276047E0,3.298783898E-1,-2.681829691E0,-1.828516722E0,3.262591553E0
3.550721880E0,3.127741814E-1,-2.669612408E0,-1.834014535E0,3.253961802E0
3.553166932E0,2.938373685E-1,-2.658005953E0,-1.837068796E0,3.244404076E0
3.555611203E0,2.755114436E-1,-2.643345356E0,-1.842566609E0,3.233919130E0
3.558056307E0,2.577963471E-1,-2.629906178E0,-1.848064423E0,3.224625183E0
3.560502140E0,2.376378328E-1,-2.613412857E0,-1.854173064E0,3.213153630E0
3.562947193E0,2.150358409E-1,-2.597530365E0,-1.860892534E0,3.202549833E0
3.565391463E0,1.930447072E-1,-2.580426216E0,-1.870666385E0,3.193001478E0
3.567836515E0,1.704427153E-1,-2.562100172E0,-1.884105444E0,3.184848715E0
3.570282401E0,1.466189921E-1,-2.537665606E0,-1.899377108E0,3.173149422E0
3.572727453E0,1.240169853E-1,-2.512009382E0,-1.914648652E0,3.160925626E0
3.575171724E0,1.014150009E-1,-2.479022741E0,-1.929920316E0,3.143315317E0
3.577616776E0,7.942386717E-2,-2.440538168E0,-1.945191860E0,3.121907441E0
3.580062609E0,5.865446851E-2,-2.397777557E0,-1.960463524E0,3.097772553E0
3.582507661E0,4.032852873E-2,-2.350130320E0,-1.975735188E0,3.070548557E0
3.584951932E0,1.772653125E-2,-2.296374083E0,-1.991006732E0,3.039367691E0
3.587396984E0,-7.929787971E-3,-2.257889748E0,-2.006278276E0,3.020477035E0
3.589842870E0,-2.564486302E-2,-2.238342047E0,-2.025825977E0,3.019073313E0
3.592287922E0,-4.335993901E-2,-2.224902868E0,-2.043541193E0,3.021280104E0
3.594732193E0,-6.412933767E-2,-2.202911854E0,-2.057590961E0,3.015064472E0
3.597177245E0,-8.612047136E-2,-2.166870832E0,-2.069808245E0,2.997807884E0
3.599623078E0,-1.081115976E-1,-2.118001699E0,-2.078360319E0,2.969377196E0
3.602068130E0,-1.246049404E-1,-2.060580254E0,-2.088134289E0,2.936293953E0
3.604512401E0,-1.435417533E-1,-1.995828629E0,-2.097297192E0,2.898722418E0
3.606957453E0,-1.600351036E-1,-1.929244399E0,-2.105238438E0,2.860004207E0
3.609403338E0,-1.777501851E-1,-1.866325378E0,-2.110125303E0,2.822657319E0
3.611848390E0,-1.942435205E-1,-1.802795410E0,-2.116234064E0,2.786798961E0
3.614292661E0,-2.095151395E-1,-1.745374084E0,-2.120510101E0,2.754412891E0
3.616737713E0,-2.278410792E-1,-1.688563704E0,-2.126007795E0,2.724530801E0
3.619183547E0,-2.467778921E-1,-1.635418534E0,-2.129062176E0,2.695996821E0
3.621628599E0,-2.632712424E-1,-1.582884073E0,-2.132116556E0,2.668474235E0
3.624072870E0,-2.815971971E-1,-1.530349731E0,-2.132727385E0,2.640036625E0
3.626517922E0,-3.005340099E-1,-1.474150181E0,-2.135781765E0,2.612470707E0
3.628963807E0,-3.182490766E-1,-1.417339802E0,-2.135781765E0,2.582963092E0
3.631408859E0,-3.335207105E-1,-1.356864214E0,-2.137003422E0,2.553252863E0
3.633853130E0,-3.500140309E-1,-1.295166850E0,-2.133949041E0,2.520655768E0
3.636298182E0,-3.665073812E-1,-1.230415225E0,-2.135170937E0,2.491426141E0
3.638744015E0,-3.805572689E-1,-1.166885257E0,-2.133338213E0,2.461214531E0
3.641189068E0,-3.952180445E-1,-1.104577065E0,-2.129673004E0,2.431418290E0
3.643633338E0,-4.104896486E-1,-1.045934081E0,-2.127840519E0,2.406280351E0
3.646078390E0,-4.257612824E-1,-9.872910380E-1,-2.125396967E0,2.381875003E0
3.648524276E0,-4.398111701E-1,-9.341458082E-1,-2.124175310E0,2.361817733E0
3.650969328E0,-4.556936324E-1,-8.846657276E-1,-2.119899273E0,2.341850350E0
3.653413599E0,-4.691326618E-1,-8.370183110E-1,-2.118677378E0,2.325828656E0
3.655858651E0,-4.868477285E-1,-7.899817228E-1,-2.115012407E0,2.309625363E0
3.658304484E0,-5.008976460E-1,-7.429451346E-1,-2.113790512E0,2.295860678E0
3.660749536E0,-5.167801380E-1,-6.952976584E-1,-2.112568855E0,2.283297552E0
3.663193807E0,-5.320517421E-1,-6.494828463E-1,-2.110736132E0,2.271588440E0
3.665638859E0,-5.448799133E-1,-6.024462581E-1,-2.110736132E0,2.261646000E0
3.668084745E0,-5.564863086E-1,-5.529661775E-1,-2.108903646E0,2.250094041E0
3.670529797E0,-5.680927634E-1,-5.040969849E-1,-2.104627609E0,2.237476376E0
3.672974068E0,-5.760340095E-1,-4.558387101E-1,-2.102184057E0,2.226832261E0
3.675419120E0,-5.809209347E-1,-4.124673009E-1,-2.101573229E0,2.219055755E0
3.677864953E0,-5.900838971E-1,-3.721502423E-1,-2.099740744E0,2.212601636E0
3.680310005E0,-5.955816507E-1,-3.391635418E-1,-2.097908020E0,2.207026840E0
3.682754276E0,-6.004685760E-1,-3.104529083E-1,-2.096075535E0,2.202379660E0
3.685199328E0,-6.059663892E-1,-2.902943790E-1,-2.090577602E0,2.195900909E0
3.687645213E0,-6.120750308E-1,-2.719684243E-1,-2.086912632E0,2.191758883E0
3.690090265E0,-6.169619560E-1,-2.573076785E-1,-2.082636356E0,2.187286787E0
3.692534536E0,-6.255140305E-1,-2.450903803E-1,-2.074695349E0,2.180756265E0
3.694979588E0,-6.322335601E-1,-2.340948135E-1,-2.064310551E0,2.171611776E0
3.697425422E0,-6.413965225E-1,-2.206557840E-1,-2.055147648E0,2.164188145E0
3.699870526E0,-6.517812014E-1,-2.072167695E-1,-2.044152021E0,2.155531259E0
3.702314745E0,-6.609441638E-1,-1.943886131E-1,-2.030713081E0,2.144394959E0
3.704759797E0,-6.694962978E-1,-1.766735315E-1,-2.016663074E0,2.132221561E0
3.707205682E0,-6.756049395E-1,-1.583475918E-1,-2.000780582E0,2.117696610E0
3.709650734E0,-6.835461855E-1,-1.387999207E-1,-1.984287262E0,2.103306146E0
3.712095005E0,-6.896548271E-1,-1.137544736E-1,-1.967182994E0,2.087671620E0
3.714540057E0,-6.963743567E-1,-8.870901912E-2,-1.949468017E0,2.072011603E0
3.716985890E0,-6.988177896E-1,-6.183096394E-2,-1.932974577E0,2.056346295E0
3.719430943E0,-7.030938268E-1,-3.128772601E-2,-1.915870428E0,2.041048590E0
3.721875213E0,-7.055373192E-1,-7.444925141E-4,-1.901209593E0,2.027900732E0
3.724320318E0,-7.085916400E-1,3.040961176E-2,-1.887159705E0,2.016035369E0
3.726766151E0,-7.116459608E-1,6.156371161E-2,-1.873109818E0,2.004687121E0
3.729211203E0,-7.147002816E-1,9.027434140E-2,-1.860281706E0,1.994891971E0
3.731655474E0,-7.183654904E-1,1.202067211E-1,-1.848675251E0,1.986982339E0
3.734100526E0,-7.214198112E-1,1.464739144E-1,-1.838290572E0,1.980205388E0
3.736546359E0,-7.238632441E-1,1.666324437E-1,-1.829738498E0,1.974762603E0
3.738991463E0,-7.250849605E-1,1.861801147E-1,-1.821186423E0,1.969043225E0
3.741435682E0,-7.256958485E-1,1.990082711E-1,-1.812634230E0,1.962621106E0
3.743880786E0,-7.256958485E-1,2.051169276E-1,-1.806525588E0,1.957611330E0
3.746326620E0,-7.293610573E-1,2.100038379E-1,-1.799195290E0,1.952734712E0
3.748771672E0,-7.318044901E-1,2.124473006E-1,-1.793086648E0,1.948289351E0
3.751215943E0,-7.360805273E-1,2.142798901E-1,-1.785145402E0,1.942800690E0
3.753660995E0,-7.397457361E-1,2.148907483E-1,-1.778425813E0,1.938091886E0
3.756106828E0,-7.421891689E-1,2.173342109E-1,-1.768651962E0,1.930339008E0
3.758551932E0,-7.446326613E-1,2.216102779E-1,-1.758878231E0,1.922821247E0
3.760996203E0,-7.476869822E-1,2.283297777E-1,-1.746660829E0,1.913633811E0
3.763441255E0,-7.489086986E-1,2.356601655E-1,-1.732610941E0,1.902193635E0
3.765887088E0,-7.489086986E-1,2.478774488E-1,-1.714285016E0,1.887082559E0
3.768332140E0,-7.464652658E-1,2.607056201E-1,-1.691683054E0,1.867342863E0
3.770776411E0,-7.409674525E-1,2.765880823E-1,-1.666026711E0,1.844228494E0
3.773221463E0,-7.360805273E-1,2.924705744E-1,-1.635483503E0,1.817184600E0
3.775667349E0,-7.269175649E-1,3.071313202E-1,-1.602496862E0,1.786262855E0
3.778112401E0,-7.208089232E-1,3.156834245E-1,-1.563401461E0,1.750270166E0
3.780556672E0,-7.140893936E-1,3.187377453E-1,-1.521862626E0,1.711018195E0
3.783001724E0,-7.049264312E-1,3.199594915E-1,-1.480323911E0,1.670525136E0
3.785447557E0,-6.988177896E-1,3.077421784E-1,-1.437563300E0,1.627771419E0
3.787892609E0,-6.914874315E-1,2.881945372E-1,-1.395413637E0,1.583789815E0
3.790336880E0,-6.866005063E-1,2.637599409E-1,-1.355707407E0,1.542378726E0
3.792781932E0,-6.823244691E-1,2.326058447E-1,-1.317222953E0,1.501581988E0
3.795227765E0,-6.817135811E-1,2.002300024E-1,-1.281792879E0,1.465543737E0
3.797672870E0,-6.786592603E-1,1.666324437E-1,-1.247584343E0,1.429969040E0
3.800117140E0,-6.786592603E-1,1.330348849E-1,-1.217652082E0,1.400340411E0
3.802562193E0,-6.792701483E-1,1.024916396E-1,-1.186497927E0,1.371017797E0
3.805008026E0,-6.780483723E-1,7.561359555E-2,-1.159619927E0,1.345431301E0
3.807453078E0,-6.774375439E-1,5.545506626E-2,-1.135185242E0,1.323118446E0
3.809897349E0,-6.749940515E-1,3.835085034E-2,-1.109529018E0,1.299285342E0
3.812342401E0,-6.713289022E-1,2.979874611E-2,-1.087537885E0,1.278400998E0
3.814788286E0,-6.670528054E-1,2.307923138E-2,-1.067379355E0,1.258884738E0
3.817233338E0,-6.627767682E-1,2.307923138E-2,-1.048442483E0,1.240579435E0
3.819677609E0,-6.560572982E-1,2.857701480E-2,-1.033170938E0,1.224201786E0
3.822122661E0,-6.481160522E-1,3.773998469E-2,-1.018510103E0,1.207825134E0
3.824568495E0,-6.389530301E-1,4.690295458E-2,-1.005071163E0,1.191901382E0
3.827013547E0,-6.310118437E-1,6.034198031E-2,-9.952971339E-1,1.180014189E0
3.829457818E0,-6.206271052E-1,7.378100604E-2,-9.855233431E-1,1.166995244E0
3.831902870E0,-6.102424264E-1,8.599828929E-2,-9.769712090E-1,1.155103575E0
3.834348755E0,-5.974142551E-1,9.821558744E-2,-9.684190750E-1,1.142097018E0
3.836793807E0,-5.851969719E-1,1.061568335E-1,-9.598670006E-1,1.129189722E0
3.839238078E0,-5.748122334E-1,1.153197959E-1,-9.525366426E-1,1.118496229E0
3.841683130E0,-5.638167262E-1,1.195958480E-1,-9.439845085E-1,1.106028580E0
3.844128963E0,-5.528211594E-1,1.250936389E-1,-9.348215461E-1,1.093229608E0
3.846574015E0,-5.448799133E-1,1.257045120E-1,-9.226042628E-1,1.078839362E0
3.849018286E0,-5.363277793E-1,1.250936389E-1,-9.109978080E-1,1.064524735E0
3.851463338E0,-5.271648169E-1,1.232610419E-1,-8.981696367E-1,1.048715750E0
3.853909224E0,-5.210561752E-1,1.165415272E-1,-8.859523535E-1,1.034404678E0
3.856354276E0,-5.149475336E-1,1.110437438E-1,-8.725133538E-1,1.019206175E0
3.858798547E0,-5.100606084E-1,1.049351022E-1,-8.596851826E-1,1.005102887E0
3.861243599E0,-5.051736832E-1,9.455039352E-2,-8.456352949E-1,9.895651970E-1
3.863689432E0,-5.002867579E-1,8.538743109E-2,-8.321962953E-1,9.747453654E-1
3.866134484E0,-4.941781163E-1,7.439186424E-2,-8.193681240E-1,9.597449050E-1
3.868578755E0,-4.886803329E-1,6.156371161E-2,-8.065399528E-1,9.450424613E-1
3.871023807E0,-4.850151539E-1,5.056814849E-2,-7.931009531E-1,9.310241452E-1
3.873469640E0,-4.782956243E-1,3.773998469E-2,-7.814944983E-1,9.170194444E-1
3.875914745E0,-4.734087288E-1,2.552269399E-2,-7.698880434E-1,9.041542080E-1
3.878358963E0,-4.642457366E-1,1.513799187E-2,-7.576707602E-1,8.887171899E-1
3.880804068E0,-4.581370950E-1,4.753290676E-3,-7.448425889E-1,8.744727976E-1
3.883249901E0,-4.514175951E-1,-3.187951399E-3,-7.326253057E-1,8.605392767E-1
3.885694953E0,-4.465306699E-1,-6.853138097E-3,-7.185754180E-1,8.460421006E-1
3.888139224E0,-4.410328865E-1,-1.296178717E-2,-7.057472467E-1,8.323203657E-1
3.890584276E0,-4.373677075E-1,-1.784870401E-2,-6.923082471E-1,8.190847311E-1
3.893030161E0,-4.330916405E-1,-2.151389048E-2,-6.807017922E-1,8.070849686E-1
3.895475213E0,-4.275938570E-1,-2.762253955E-2,-6.672627926E-1,7.929937866E-1
3.897919432E0,-4.245395362E-1,-3.250945732E-2,-6.562672257E-1,7.822898147E-1
3.900364536E0,-4.214852154E-1,-3.800724074E-2,-6.428282261E-1,7.696248862E-1
3.902810370E0,-4.165982902E-1,-4.411588609E-2,-6.312217712E-1,7.575891177E-1
3.905255422E0,-4.117113948E-1,-4.717021063E-2,-6.202262044E-1,7.459301884E-1
3.907699693E0,-4.086570442E-1,-5.388972163E-2,-6.092306376E-1,7.355723293E-1
3.910144745E0,-4.025484025E-1,-5.999836698E-2,-5.994567871E-1,7.245643243E-1
3.912590630E0,-3.994940817E-1,-6.305269152E-2,-5.909047127E-1,7.160583375E-1
3.915035682E0,-3.958289027E-1,-6.732874364E-2,-5.817417502E-1,7.068501566E-1
3.917479953E0,-3.946071565E-1,-6.977220625E-2,-5.756331086E-1,7.013818108E-1
3.919925005E0,-3.952180445E-1,-7.038307190E-2,-5.707461834E-1,6.977838386E-1
3.922370838E0,-3.939962983E-1,-7.038307190E-2,-5.658592582E-1,6.930970783E-1
3.924815890E0,-3.933854401E-1,-7.038307190E-2,-5.634157658E-1,6.907555330E-1
3.927260161E0,-3.933854401E-1,-6.732874364E-2,-5.621940494E-1,6.894544317E-1
3.929705213E0,-3.927745819E-1,-6.671788543E-2,-5.609723330E-1,6.880502211E-1
3.932151099E0,-3.939962983E-1,-6.549615413E-2,-5.621940494E-1,6.896266950E-1
3.934596151E0,-3.927745819E-1,-6.122009829E-2,-5.615832210E-1,6.880374166E-1
3.937040422E0,-3.903311193E-1,-6.060923263E-2,-5.615832210E-1,6.865912728E-1
3.939485474E0,-3.872767985E-1,-5.816577375E-2,-5.609723330E-1,6.841465736E-1
3.941931307E0,-3.884985149E-1,-5.694404617E-2,-5.591397285E-1,6.832356522E-1
3.944376359E0,-3.860550523E-1,-5.572231486E-2,-5.597506166E-1,6.822493917E-1
3.946820630E0,-3.811681569E-1,-5.388972163E-2,-5.585289001E-1,6.783419478E-1
3.949265682E0,-3.768920898E-1,-5.083539709E-2,-5.566962957E-1,6.741977831E-1
3.951711568E0,-3.713943064E-1,-4.778107628E-2,-5.536419749E-1,6.683832722E-1
3.954156620E0,-3.658965230E-1,-4.350502044E-2,-5.487550497E-1,6.609879401E-1
3.956600890E0,-3.585661650E-1,-3.800724074E-2,-5.469224453E-1,6.550865639E-1
3.959045943E0,-3.524574935E-1,-3.128772601E-2,-5.444790125E-1,6.493555279E-1
3.961491776E0,-3.463488519E-1,-2.395734936E-2,-5.420355201E-1,6.436878023E-1
3.963936828E0,-3.414619267E-1,-1.479438040E-2,-5.377594829E-1,6.371815930E-1
3.966381099E0,-3.347424269E-1,-3.798815189E-3,-5.347051620E-1,6.308538132E-1
3.968826151E0,-3.268011808E-1,8.418477140E-3,-5.334834456E-1,6.256792064E-1
3.971272036E0,-3.182490766E-1,2.491182834E-2,-5.310399532E-1,6.196018931E-1
3.973717088E0,-3.103078306E-1,4.323776811E-2,-5.285965204E-1,6.144711024E-1
3.976161359E0,-3.011448681E-1,6.095283851E-2,-5.249313116E-1,6.082403818E-1
3.978606411E0,-2.913710177E-1,8.416569978E-2,-5.218769908E-1,6.036029560E-1
3.981052245E0,-2.803754807E-1,1.055459604E-1,-5.157683492E-1,5.964623625E-1
3.983497297E0,-2.693799138E-1,1.269262433E-1,-5.108814240E-1,5.913337793E-1
3.985941568E0,-2.589952052E-1,1.458630413E-1,-5.047727823E-1,5.857901543E-1
3.988386620E0,-2.504431009E-1,1.635781229E-1,-4.980532527E-1,5.809789941E-1
3.990832505E0,-2.412801087E-1,1.800714731E-1,-4.907228947E-1,5.757176266E-1
