"Time (s)","Gyroscope x (rad/s)","Gyroscope y (rad/s)","Gyroscope z (rad/s)","Absolute (rad/s)"
1.410014100E-1,1.711566560E-2,2.309832023E-3,2.667951584E-2,3.178172271E-2
1.434464620E-1,1.711566560E-2,4.772387911E-4,2.729038149E-2,3.221705585E-2
1.458922950E-1,1.650479995E-2,-1.336268615E-4,2.667951584E-2,3.137232607E-2
1.483373470E-1,1.589393616E-2,-1.355358167E-3,2.790124714E-2,3.213928740E-2
1.507816180E-1,1.528307237E-2,-3.798815189E-3,2.606865205E-2,3.045616387E-2
1.532266180E-1,1.589393616E-2,-6.242274307E-3,2.606865205E-2,3.116340506E-2
1.556724510E-1,1.467220671E-2,-5.631410517E-3,2.606865205E-2,3.043946540E-2
1.581175040E-1,1.467220671E-2,-6.853138097E-3,2.545778826E-2,3.017181027E-2
1.605617220E-1,1.406134106E-2,-8.685733192E-3,2.545778826E-2,3.035230233E-2
1.630067740E-1,1.222874783E-2,-9.296596982E-3,2.545778826E-2,2.973328054E-2
1.654526080E-1,1.345047727E-2,-9.296596982E-3,2.484692261E-2,2.974410223E-2
1.678976600E-1,9.785288945E-3,-1.051832829E-2,2.545778826E-2,2.923159408E-2
1.703419310E-1,1.039615367E-2,-1.235092152E-2,2.545778826E-2,3.014505360E-2
1.727869310E-1,9.785288945E-3,-1.296178717E-2,2.484692261E-2,2.968382336E-2
1.752327640E-1,7.952694781E-3,-1.479438040E-2,2.301432937E-2,2.849172516E-2
1.776778160E-1,1.039615367E-2,-1.601610892E-2,2.423605695E-2,3.085420899E-2
1.801220870E-1,7.341830060E-3,-1.784870401E-2,2.423605695E-2,3.098169072E-2
1.825671390E-1,1.039615367E-2,-1.784870401E-2,2.423605695E-2,3.184403716E-2
1.850129720E-1,5.509235896E-3,-1.784870401E-2,2.301432937E-2,2.964097285E-2
1.874579720E-1,7.952694781E-3,-1.479438040E-2,2.423605695E-2,2.948737870E-2
1.899022430E-1,4.898371175E-3,-1.601610892E-2,2.484692261E-2,2.996463495E-2
1.923472950E-1,5.509235896E-3,-1.479438040E-2,2.423605695E-2,2.892424292E-2
1.947931290E-1,4.898371175E-3,-1.418351475E-2,2.606865205E-2,3.007890873E-2
1.972381290E-1,4.287506454E-3,-1.418351475E-2,2.606865205E-2,2.998548686E-2
1.996823990E-1,6.120100617E-3,-1.479438040E-2,2.729038149E-2,3.164007340E-2
2.021274510E-1,1.233183080E-3,-1.540524606E-2,2.729038149E-2,3.136251375E-2
2.045732850E-1,4.898371175E-3,-1.418351475E-2,2.851211093E-2,3.221966171E-2
2.070183370E-1,6.223183591E-4,-1.479438040E-2,2.912297472E-2,3.267122019E-2
2.094625560E-1,3.676641965E-3,-1.235092152E-2,2.912297472E-2,3.184667354E-2
2.119076080E-1,1.844047802E-3,-1.357265096E-2,2.851211093E-2,3.163159554E-2
2.143534410E-1,6.223183591E-4,-9.907462634E-3,2.790124714E-2,2.961460262E-2
2.167984930E-1,1.233183080E-3,-8.074869402E-3,2.790124714E-2,2.907238980E-2
2.192427120E-1,-1.821140526E-3,-7.464003749E-3,2.790124714E-2,2.893972178E-2
2.216877640E-1,6.223183591E-4,-6.242274307E-3,2.912297472E-2,2.979095375E-2
2.241335970E-1,-1.210275805E-3,-7.464003749E-3,2.790124714E-2,2.890771025E-2
2.265786490E-1,1.233183080E-3,-5.020544864E-3,2.667951584E-2,2.717578291E-2
2.290228680E-1,-5.994110834E-4,-5.631410517E-3,2.729038149E-2,2.787179578E-2
2.314679200E-1,1.844047802E-3,-3.187951399E-3,2.790124714E-2,2.814326098E-2
2.339137540E-1,-1.821140526E-3,-5.020544864E-3,2.729038149E-2,2.780804462E-2
2.363588060E-1,1.145363785E-5,-1.355358167E-3,2.729038149E-2,2.732401963E-2
2.388030240E-1,-5.994110834E-4,-7.444925141E-4,2.606865205E-2,2.608616841E-2
2.412480760E-1,-2.432005247E-3,-1.336268615E-4,2.484692261E-2,2.496601828E-2
2.436939100E-1,-5.994110834E-4,2.920697676E-3,2.667951584E-2,2.684560176E-2
2.461389620E-1,-4.264599644E-3,3.531559603E-3,2.667951584E-2,2.724803275E-2
2.485831810E-1,-5.994110834E-4,4.753290676E-3,2.667951584E-2,2.710626554E-2
2.510282330E-1,-4.264599644E-3,3.531559603E-3,2.606865205E-2,2.665020343E-2
2.534740660E-1,-1.210275805E-3,5.364156328E-3,2.667951584E-2,2.724032867E-2
2.559191180E-1,-4.264599644E-3,3.531559603E-3,2.790124714E-2,2.844535666E-2
2.583633890E-1,-3.653734690E-3,2.920697676E-3,2.790124714E-2,2.829063174E-2
2.608083890E-1,-3.653734690E-3,-1.336268615E-4,2.851211093E-2,2.874557537E-2
2.632542220E-1,-5.486329086E-3,-1.355358167E-3,2.851211093E-2,2.906677265E-2
2.656992740E-1,-2.432005247E-3,-3.187951399E-3,2.973384038E-2,3.000298230E-2
2.681435450E-1,-6.708058529E-3,-6.853138097E-3,3.034470603E-2,3.182396479E-2
2.705885450E-1,-2.432005247E-3,-8.074869402E-3,3.156643361E-2,3.267350450E-2
2.730343790E-1,-6.097193807E-3,-1.174005587E-2,3.278816491E-2,3.535630697E-2
2.754794310E-1,-4.264599644E-3,-9.907462634E-3,3.400989249E-2,3.567936958E-2
2.779237010E-1,-6.708058529E-3,-1.357265096E-2,3.400989249E-2,3.722751255E-2
2.803687540E-1,-5.486329086E-3,-1.235092152E-2,3.462075815E-2,3.716506375E-2
2.828145870E-1,-6.097193807E-3,-1.296178717E-2,3.645335138E-2,3.916670175E-2
2.852595870E-1,-6.097193807E-3,-1.601610892E-2,3.706421703E-2,4.083439361E-2
2.877038580E-1,-4.264599644E-3,-1.479438040E-2,3.584248945E-2,3.900954437E-2
2.901489100E-1,-7.318923250E-3,-1.662697271E-2,3.584248945E-2,4.018341584E-2
2.925947430E-1,-1.821140526E-3,-1.479438040E-2,3.584248945E-2,3.881847878E-2
2.950397950E-1,-5.486329086E-3,-1.662697271E-2,3.584248945E-2,3.989035069E-2
2.974840140E-1,-3.042869968E-3,-1.540524606E-2,3.706421703E-2,4.025340790E-2
2.999290660E-1,-4.875464365E-3,-1.601610892E-2,3.645335138E-2,4.011399661E-2
3.023748990E-1,-3.653734690E-3,-1.418351475E-2,3.584248945E-2,3.871958055E-2
3.048199510E-1,-4.264599644E-3,-1.357265096E-2,3.706421703E-2,3.970087969E-2
3.072641700E-1,-4.875464365E-3,-1.296178717E-2,3.584248945E-2,3.842475933E-2
3.097092220E-1,-1.821140526E-3,-1.235092152E-2,3.523162380E-2,3.737819058E-2
3.121550560E-1,-6.708058529E-3,-1.235092152E-2,3.584248945E-2,3.849970599E-2
3.146001080E-1,-1.821140526E-3,-1.051832829E-2,3.462075815E-2,3.622911367E-2
3.170443260E-1,-6.708058529E-3,-1.235092152E-2,3.339902684E-2,3.623587043E-2
3.194893790E-1,-1.821140526E-3,-9.907462634E-3,3.462075815E-2,3.605650098E-2
3.219352120E-1,-3.042869968E-3,-1.174005587E-2,3.584248945E-2,3.783876345E-2
3.243802640E-1,-1.821140526E-3,-1.174005587E-2,3.584248945E-2,3.776015777E-2
3.268245350E-1,-1.821140526E-3,-1.235092152E-2,3.706421703E-2,3.911033111E-2
3.292695350E-1,-1.210275805E-3,-1.112919208E-2,3.767508268E-2,3.930312378E-2
3.317153680E-1,2.454912523E-3,-1.112919208E-2,3.828594461E-2,3.994620215E-2
3.341604200E-1,-5.994110834E-4,-1.112919208E-2,3.950767592E-2,4.104966098E-2
3.366046910E-1,3.676641965E-3,-8.685733192E-3,4.134026915E-2,4.240256490E-2
3.390497430E-1,1.233183080E-3,-1.112919208E-2,4.256200045E-2,4.401026630E-2
3.414955760E-1,4.287506454E-3,-7.464003749E-3,4.500545934E-2,4.582123344E-2
3.439405760E-1,2.454912523E-3,-8.685733192E-3,4.500545934E-2,4.590163316E-2
3.463848470E-1,3.676641965E-3,-7.464003749E-3,4.561632499E-2,4.636893522E-2
3.488298990E-1,4.898371175E-3,-9.296596982E-3,4.683805257E-2,4.800233249E-2
3.512757330E-1,3.676641965E-3,-1.051832829E-2,4.683805257E-2,4.814515650E-2
3.537207850E-1,6.120100617E-3,-1.051832829E-2,4.805978015E-2,4.957654011E-2
3.561650040E-1,1.233183080E-3,-1.174005587E-2,4.989237711E-2,5.126986391E-2
3.586100560E-1,5.509235896E-3,-1.296178717E-2,5.172497034E-2,5.360813524E-2
3.610558890E-1,1.844047802E-3,-1.540524606E-2,5.172497034E-2,5.400180252E-2
3.635009410E-1,4.898371175E-3,-1.418351475E-2,5.416842923E-2,5.620840556E-2
3.659451600E-1,2.454912523E-3,-1.784870401E-2,5.539016053E-2,5.824665410E-2
3.683902120E-1,3.676641965E-3,-1.784870401E-2,5.783361569E-2,6.063679605E-2
3.708360450E-1,3.065777244E-3,-2.029216290E-2,5.783361569E-2,6.136691266E-2
3.732810970E-1,2.454912523E-3,-2.212475613E-2,6.027707830E-2,6.425618723E-2
3.757253680E-1,4.898371175E-3,-2.456821501E-2,6.088794023E-2,6.584020424E-2
3.781703680E-1,1.233183080E-3,-2.762253955E-2,6.088794023E-2,6.687201729E-2
3.806162010E-1,4.287506454E-3,-3.006599844E-2,6.394226849E-2,7.078813935E-2
3.830612540E-1,6.223183591E-4,-3.189859167E-2,6.272053719E-2,7.036883696E-2
3.855055240E-1,3.676641965E-3,-3.067686222E-2,6.333140284E-2,7.046597872E-2
3.879505240E-1,3.065777244E-3,-3.434205055E-2,6.516399980E-2,7.372328191E-2
3.903964100E-1,3.676641965E-3,-3.495291620E-2,6.516399980E-2,7.403763176E-2
3.928414100E-1,3.676641965E-3,-3.739637509E-2,6.577486545E-2,7.575182830E-2
3.952856810E-1,3.065777244E-3,-3.739637509E-2,6.455313414E-2,7.466588905E-2
3.977307330E-1,4.898371175E-3,-3.861810267E-2,6.577486545E-2,7.643091533E-2
4.001765660E-1,2.454912523E-3,-3.861810267E-2,6.577486545E-2,7.631328439E-2
4.026216180E-1,6.120100617E-3,-3.922896832E-2,6.333140284E-2,7.474780380E-2
4.050658370E-1,2.454912523E-3,-3.983983397E-2,6.210967153E-2,7.382987380E-2
4.075108890E-1,4.898371175E-3,-3.922896832E-2,6.088794023E-2,7.259646865E-2
4.099567220E-1,2.454912523E-3,-4.045069590E-2,6.027707830E-2,7.263340528E-2
4.124017740E-1,5.509235896E-3,-3.800724074E-2,6.027707830E-2,7.147186997E-2
4.148459930E-1,3.676641965E-3,-3.861810267E-2,5.966621265E-2,7.116833904E-2
4.172910450E-1,2.454912523E-3,-3.617464378E-2,6.027707830E-2,7.034172032E-2
4.197368790E-1,6.120100617E-3,-3.434205055E-2,5.966621265E-2,6.911504177E-2
4.221819310E-1,2.454912523E-3,-3.189859167E-2,5.783361569E-2,6.609291830E-2
4.246262010E-1,6.120100617E-3,-2.578994446E-2,5.905534700E-2,6.473106577E-2
4.270712010E-1,2.454912523E-3,-2.578994446E-2,5.844448134E-2,6.392890762E-2
4.295170350E-1,4.898371175E-3,-1.845956780E-2,5.966621265E-2,6.264827703E-2
4.319620870E-1,3.065777244E-3,-1.723783836E-2,5.905534700E-2,6.159607187E-2
4.344063580E-1,4.898371175E-3,-1.357265096E-2,6.027707830E-2,6.198013442E-2
4.368514100E-1,4.287506454E-3,-1.174005587E-2,5.905534700E-2,6.036344616E-2
4.392972430E-1,3.065777244E-3,-9.907462634E-3,5.905534700E-2,5.995907617E-2
4.417422430E-1,6.730965339E-3,-9.296596982E-3,5.966621265E-2,6.076009827E-2
4.441865140E-1,3.676641965E-3,-9.907462634E-3,5.905534700E-2,5.999341231E-2
4.466315660E-1,9.174424224E-3,-8.685733192E-3,5.966621265E-2,6.098908880E-2
4.490773990E-1,4.898371175E-3,-1.051832829E-2,6.027707830E-2,6.138367404E-2
4.515224510E-1,9.174424224E-3,-7.464003749E-3,6.210967153E-2,6.322572823E-2
4.539666700E-1,6.730965339E-3,-8.074869402E-3,6.210967153E-2,6.299302111E-2
4.564117220E-1,7.952694781E-3,-4.409679212E-3,6.210967153E-2,6.277182428E-2
4.588575560E-1,6.730965339E-3,-5.020544864E-3,6.394226849E-2,6.449128208E-2
4.613026080E-1,6.730965339E-3,-4.409679212E-3,6.333140284E-2,6.384056509E-2
4.637468260E-1,1.039615367E-2,-4.409679212E-3,6.394226849E-2,6.493180254E-2
4.661918790E-1,7.341830060E-3,-4.409679212E-3,6.333140284E-2,6.390785808E-2
4.686377120E-1,1.039615367E-2,-5.020544864E-3,6.455313414E-2,6.557738184E-2
4.710827640E-1,8.563559502E-3,-1.051832829E-2,6.638572365E-2,6.775717000E-2
4.735270350E-1,1.283961255E-2,-8.685733192E-3,6.760745496E-2,6.936184525E-2
4.759720870E-1,9.785288945E-3,-1.174005587E-2,6.760745496E-2,6.931340965E-2
4.784179200E-1,1.161788311E-2,-1.051832829E-2,6.882918626E-2,7.059084444E-2
4.808629200E-1,1.039615367E-2,-1.174005587E-2,6.882918626E-2,7.059295860E-2
4.833071910E-1,1.039615367E-2,-1.112919208E-2,6.944005191E-2,7.109050385E-2
4.857522430E-1,1.161788311E-2,-1.296178717E-2,7.188349962E-2,7.396094005E-2
4.881980760E-1,8.563559502E-3,-1.357265096E-2,7.249436527E-2,7.424947409E-2
4.906431290E-1,1.406134106E-2,-1.418351475E-2,7.188349962E-2,7.460650723E-2
4.930873470E-1,8.563559502E-3,-1.662697271E-2,7.066177577E-2,7.309498839E-2
4.955323990E-1,1.222874783E-2,-1.907043159E-2,7.310523093E-2,7.653494903E-2
4.979782330E-1,9.174424224E-3,-2.273562178E-2,7.188349962E-2,7.594943104E-2
5.004232850E-1,1.161788311E-2,-2.578994446E-2,7.127264142E-2,7.668041378E-2
5.028675040E-1,1.161788311E-2,-2.823340334E-2,7.066177577E-2,7.697523515E-2
5.053125560E-1,1.100701839E-2,-3.128772601E-2,7.188349962E-2,7.916636768E-2
5.077583890E-1,1.467220671E-2,-3.434205055E-2,7.310523093E-2,8.209156397E-2
5.102034410E-1,1.161788311E-2,-3.678550944E-2,7.127264142E-2,8.104281787E-2
5.126477120E-1,1.467220671E-2,-3.678550944E-2,7.310523093E-2,8.314338304E-2
5.150927640E-1,1.161788311E-2,-4.045069590E-2,7.249436527E-2,8.382521699E-2
5.175385970E-1,1.406134106E-2,-4.106156155E-2,7.310523093E-2,8.501851527E-2
5.199835970E-1,1.039615367E-2,-4.350502044E-2,7.127264142E-2,8.414604108E-2
5.224278680E-1,1.161788311E-2,-4.411588609E-2,7.249436527E-2,8.565406943E-2
5.248729200E-1,9.785288945E-3,-4.594847932E-2,7.310523093E-2,8.689873084E-2
5.273187540E-1,1.100701839E-2,-4.594847932E-2,7.310523093E-2,8.704477006E-2
5.297638060E-1,1.100701839E-2,-4.655934498E-2,7.188349962E-2,8.634908556E-2
5.322080240E-1,8.563559502E-3,-4.717021063E-2,7.005091757E-2,8.488518348E-2
5.346530760E-1,9.785288945E-3,-4.533761367E-2,6.944005191E-2,8.350552019E-2
5.370989100E-1,7.341830060E-3,-4.655934498E-2,6.882918626E-2,8.342141185E-2
5.395439620E-1,1.161788311E-2,-4.594847932E-2,6.821832061E-2,8.306610155E-2
5.419882330E-1,7.341830060E-3,-4.655934498E-2,6.699658930E-2,8.191592062E-2
5.444332330E-1,1.039615367E-2,-4.472675174E-2,6.638572365E-2,8.071943160E-2
5.468791180E-1,7.341830060E-3,-4.472675174E-2,6.455313414E-2,7.887643449E-2
5.493241180E-1,6.120100617E-3,-4.228329286E-2,6.394226849E-2,7.690218584E-2
5.517683890E-1,6.120100617E-3,-4.106156155E-2,6.394226849E-2,7.623726890E-2
5.542134410E-1,3.676641965E-3,-4.045069590E-2,6.088794023E-2,7.319233403E-2
5.566592740E-1,6.120100617E-3,-3.739637509E-2,6.149880588E-2,7.223605489E-2
5.591043260E-1,2.454912523E-3,-3.495291620E-2,5.905534700E-2,6.866780145E-2
5.615485450E-1,4.287506454E-3,-3.312032297E-2,5.966621265E-2,6.837686332E-2
5.639935970E-1,-5.994110834E-4,-3.189859167E-2,5.783361569E-2,6.605003064E-2
5.664394310E-1,2.454912523E-3,-2.884426713E-2,5.722275376E-2,6.412847955E-2
5.688844830E-1,6.223183591E-4,-2.701167390E-2,5.661188811E-2,6.272897004E-2
5.713287010E-1,1.145363785E-5,-2.395734936E-2,5.600102246E-2,6.091033768E-2
5.737737540E-1,1.844047802E-3,-2.395734936E-2,5.539016053E-2,6.037735490E-2
5.762195870E-1,-5.994110834E-4,-2.395734936E-2,5.416842923E-2,5.923286762E-2
5.786646390E-1,4.287506454E-3,-2.395734936E-2,5.294669792E-2,5.827255032E-2
5.811089100E-1,-1.210275805E-3,-2.212475613E-2,5.111410469E-2,5.571015436E-2
5.835539100E-1,2.454912523E-3,-2.090302669E-2,5.050324276E-2,5.471325844E-2
5.859997950E-1,-1.210275805E-3,-2.151389048E-2,4.989237711E-2,5.434667924E-2
5.884447950E-1,1.844047802E-3,-1.968129724E-2,4.928151146E-2,5.309822356E-2
5.908890660E-1,1.145363785E-5,-2.273562178E-2,4.989237711E-2,5.482844082E-2
5.933341180E-1,6.223183591E-4,-2.029216290E-2,4.928151146E-2,5.329940456E-2
5.957799510E-1,1.844047802E-3,-2.090302669E-2,4.928151146E-2,5.356308811E-2
5.982250040E-1,-5.994110834E-4,-1.968129724E-2,4.867064580E-2,5.250280486E-2
6.006692220E-1,4.287506454E-3,-1.968129724E-2,4.744891822E-2,5.154741520E-2
6.031142740E-1,-5.994110834E-4,-2.090302669E-2,4.683805257E-2,5.129423931E-2
6.055601080E-1,3.065777244E-3,-1.907043159E-2,4.683805257E-2,5.066442065E-2
6.080051600E-1,6.223183591E-4,-2.090302669E-2,4.561632499E-2,5.018140004E-2
6.104494310E-1,3.676641965E-3,-1.784870401E-2,4.561632499E-2,4.912171655E-2
6.128944310E-1,3.065777244E-3,-1.845956780E-2,4.500545934E-2,4.874059913E-2
6.153403160E-1,3.065777244E-3,-1.662697271E-2,4.500545934E-2,4.807646599E-2
6.177853160E-1,3.676641965E-3,-1.662697271E-2,4.561632499E-2,4.869109799E-2
6.202295870E-1,3.065777244E-3,-1.540524606E-2,4.500545934E-2,4.766772458E-2
6.226746390E-1,6.120100617E-3,-1.296178717E-2,4.622718692E-2,4.839851618E-2
6.251204720E-1,2.454912523E-3,-1.296178717E-2,4.561632499E-2,4.748561496E-2
6.275655240E-1,6.730965339E-3,-8.685733192E-3,4.622718692E-2,4.751526771E-2
6.300097430E-1,3.065777244E-3,-8.074869402E-3,4.622718692E-2,4.702717636E-2
6.324547950E-1,6.730965339E-3,-5.631410517E-3,4.683805257E-2,4.765314100E-2
6.349006290E-1,4.898371175E-3,-6.853138097E-3,4.622718692E-2,4.698842786E-2
6.373456810E-1,4.898371175E-3,-5.020544864E-3,4.561632499E-2,4.615245407E-2
6.397899510E-1,4.898371175E-3,-5.631410517E-3,4.561632499E-2,4.622289401E-2
6.422349510E-1,3.676641965E-3,-6.242274307E-3,4.378372803E-2,4.437903249E-2
6.446808370E-1,6.120100617E-3,-5.631410517E-3,4.317286238E-2,4.396662896E-2
6.471258370E-1,1.233183080E-3,-8.074869402E-3,4.256200045E-2,4.333876024E-2
6.495701080E-1,5.509235896E-3,-9.296596982E-3,4.378372803E-2,4.509759679E-2
6.520151600E-1,1.233183080E-3,-1.051832829E-2,4.317286238E-2,4.445280662E-2
6.544609930E-1,4.287506454E-3,-9.907462634E-3,4.256200045E-2,4.390973024E-2
6.569060450E-1,1.233183080E-3,-1.296178717E-2,4.195113480E-2,4.392523623E-2
6.593502640E-1,1.844047802E-3,-1.051832829E-2,4.195113480E-2,4.328895302E-2
6.617953160E-1,3.676641965E-3,-9.907462634E-3,3.950767592E-2,4.089660094E-2
6.642411490E-1,1.145363785E-5,-1.174005587E-2,3.889681026E-2,4.062992606E-2
6.666862010E-1,1.233183080E-3,-1.112919208E-2,3.950767592E-2,4.106380539E-2
6.691304720E-1,1.145363785E-5,-1.357265096E-2,3.828594461E-2,4.062056794E-2
6.715754720E-1,6.223183591E-4,-1.540524606E-2,3.767508268E-2,4.070774793E-2
6.740213060E-1,1.145363785E-5,-1.418351475E-2,3.645335138E-2,3.911545792E-2
6.764663580E-1,1.145363785E-5,-1.540524606E-2,3.523162380E-2,3.845242584E-2
6.789106290E-1,6.223183591E-4,-1.662697271E-2,3.278816491E-2,3.676829150E-2
6.813556810E-1,1.233183080E-3,-1.845956780E-2,3.217729926E-2,3.711677480E-2
6.838015140E-1,1.844047802E-3,-1.907043159E-2,3.095556982E-2,3.640507075E-2
6.862465660E-1,1.844047802E-3,-1.968129724E-2,3.034470603E-2,3.621539945E-2
6.886907850E-1,6.223183591E-4,-1.845956780E-2,2.912297472E-2,3.448609256E-2
6.911358370E-1,1.844047802E-3,-1.968129724E-2,2.912297472E-2,3.519803446E-2
6.935816700E-1,1.844047802E-3,-1.907043159E-2,2.729038149E-2,3.334436677E-2
6.960267220E-1,1.233183080E-3,-2.029216290E-2,2.667951584E-2,3.354234907E-2
6.984709930E-1,6.223183591E-4,-2.029216290E-2,2.484692261E-2,3.208626993E-2
7.009159930E-1,1.233183080E-3,-2.212475613E-2,2.301432937E-2,3.194816005E-2
7.033618260E-1,6.223183591E-4,-2.090302669E-2,2.240346372E-2,3.064700624E-2
7.058068790E-1,-5.994110834E-4,-2.090302669E-2,2.118173428E-2,2.976510852E-2
7.082511490E-1,1.233183080E-3,-2.090302669E-2,2.179259807E-2,3.022208788E-2
7.106962010E-1,2.454912523E-3,-1.907043159E-2,1.934913918E-2,2.727814407E-2
7.131420350E-1,3.676641965E-3,-1.479438040E-2,1.812741160E-2,2.368532117E-2
7.155870870E-1,1.844047802E-3,-1.174005587E-2,1.751654595E-2,2.116739961E-2
7.180313060E-1,1.233183080E-3,-8.074869402E-3,1.568395272E-2,1.768362602E-2
7.204763580E-1,1.844047802E-3,-5.020544864E-3,1.385135762E-2,1.484811406E-2
7.229221910E-1,1.233183080E-3,-1.966220094E-3,1.262962818E-2,1.284111638E-2
7.253672430E-1,6.223183591E-4,-1.355358167E-3,1.079703402E-2,1.089955134E-2
7.278115140E-1,-5.994110834E-4,2.309832023E-3,9.575304575E-3,9.868185007E-3
7.302565140E-1,1.145363785E-5,2.309832023E-3,7.131845690E-3,7.496577760E-3
7.327023990E-1,-5.994110834E-4,4.142425023E-3,7.131845690E-3,8.269353159E-3
7.351473990E-1,1.145363785E-5,5.975021981E-3,5.910116248E-3,8.404194960E-3
7.375916700E-1,-1.210275805E-3,7.196749561E-3,5.299251527E-3,9.018871243E-3
7.400367220E-1,-5.994110834E-4,8.418477140E-3,4.077522084E-3,9.373165813E-3
7.424825560E-1,-5.994110834E-4,1.025107410E-2,4.688386805E-3,1.128825871E-2
7.449276080E-1,-5.994110834E-4,1.269453298E-2,3.466657363E-3,1.317300932E-2
7.473718260E-1,-1.821140526E-3,1.208366733E-2,2.244927920E-3,1.242462355E-2
7.498168790E-1,-3.042869968E-3,1.330539491E-2,3.466657363E-3,1.408226916E-2
7.522627120E-1,-1.821140526E-3,1.513799187E-2,4.077522084E-3,1.578295083E-2
7.547077640E-1,-3.042869968E-3,1.513799187E-2,3.466657363E-3,1.582515620E-2
7.571520350E-1,-3.653734690E-3,1.574885845E-2,6.520980969E-3,1.743271386E-2
7.595970870E-1,-4.264599644E-3,1.697058603E-2,6.520980969E-3,1.867379964E-2
7.620429200E-1,-6.097193807E-3,1.758145168E-2,7.131845690E-3,1.992853328E-2
7.644879720E-1,-4.875464365E-3,1.758145168E-2,8.353575133E-3,2.006638517E-2
7.669321910E-1,-2.432005247E-3,1.758145168E-2,8.964439854E-3,1.988424690E-2
7.693772430E-1,-3.653734690E-3,1.635972038E-2,8.964439854E-3,1.900924538E-2
7.718230760E-1,-3.042869968E-3,1.574885845E-2,8.964439854E-3,1.837516754E-2
7.742681290E-1,-4.264599644E-3,1.574885845E-2,8.964439854E-3,1.861651242E-2
7.767123470E-1,-3.042869968E-3,1.574885845E-2,8.353575133E-3,1.808501639E-2
7.791573990E-1,-4.264599644E-3,1.697058603E-2,9.575304575E-3,1.994678064E-2
7.816032330E-1,-4.875464365E-3,1.635972038E-2,1.018616930E-2,1.987884928E-2
7.840482850E-1,-5.486329086E-3,1.635972038E-2,8.353575133E-3,1.917087570E-2
7.864925560E-1,-6.097193807E-3,1.574885845E-2,7.742710412E-3,1.857826363E-2
7.889376080E-1,-6.708058529E-3,1.269453298E-2,7.131845690E-3,1.603160752E-2
7.913834410E-1,-7.929787971E-3,1.147280168E-2,5.299251527E-3,1.491940958E-2
7.938284930E-1,-6.708058529E-3,9.640208445E-3,2.855792642E-3,1.208665461E-2
7.962727120E-1,-7.318923250E-3,7.807615213E-3,4.077522084E-3,1.145214736E-2
7.987177640E-1,-7.929787971E-3,6.585883908E-3,2.244927920E-3,1.054964954E-2
8.011635970E-1,-7.929787971E-3,5.364156328E-3,2.244927920E-3,9.833382518E-3
8.036086490E-1,-7.929787971E-3,2.920697676E-3,1.023198478E-3,8.512282144E-3
8.060528680E-1,-7.318923250E-3,-7.444925141E-4,1.634063199E-3,7.535984951E-3
8.084979200E-1,-6.708058529E-3,-3.187951399E-3,-8.093961515E-4,7.471024393E-3
8.109437540E-1,-6.097193807E-3,-5.020544864E-3,-2.641989384E-3,8.328370246E-3
8.133888060E-1,-6.708058529E-3,-5.631410517E-3,-2.641989384E-3,9.148275331E-3
8.158330760E-1,-7.929787971E-3,-8.685733192E-3,-3.863718826E-3,1.237949197E-2
8.182781290E-1,-8.540652692E-3,-1.051832829E-2,-5.085448269E-3,1.447203380E-2
8.207239620E-1,-8.540652692E-3,-9.907462634E-3,-4.474584479E-3,1.382470508E-2
8.231690140E-1,-8.540652692E-3,-1.051832829E-2,-6.307177711E-3,1.494518213E-2
8.256132330E-1,-9.151517414E-3,-1.174005587E-2,-6.307177711E-3,1.616662220E-2
8.280582850E-1,-7.929787971E-3,-1.418351475E-2,-6.918043364E-3,1.766105750E-2
8.305041180E-1,-9.151517414E-3,-1.235092152E-2,-8.750636131E-3,1.768810804E-2
8.329491700E-1,-9.762382135E-3,-1.174005587E-2,-9.972365573E-3,1.823680597E-2
8.353934410E-1,-8.540652692E-3,-1.174005587E-2,-9.972365573E-3,1.761305582E-2
8.378384930E-1,-9.151517414E-3,-1.235092152E-2,-1.119409502E-2,1.901586960E-2
8.402843260E-1,-9.151517414E-3,-1.235092152E-2,-9.361501783E-3,1.799814571E-2
8.427293260E-1,-9.762382135E-3,-1.112919208E-2,-8.750636131E-3,1.719699549E-2
8.451735970E-1,-1.037324686E-2,-1.112919208E-2,-1.058323123E-2,1.853288833E-2
8.476186490E-1,-9.762382135E-3,-1.051832829E-2,-9.361501783E-3,1.713409030E-2
8.500644830E-1,-9.762382135E-3,-7.464003749E-3,-8.750636131E-3,1.508605613E-2
8.525095350E-1,-9.151517414E-3,-5.020544864E-3,-8.750636131E-3,1.362093148E-2
8.549538060E-1,-9.151517414E-3,-3.187951399E-3,-8.750636131E-3,1.305706467E-2
8.573988060E-1,-1.159497630E-2,-7.444925141E-4,-7.528907154E-3,1.384493364E-2
8.598446390E-1,-1.098411158E-2,1.698966371E-3,-8.139772341E-3,1.377654121E-2
8.622896910E-1,-1.159497630E-2,4.753290676E-3,-6.307177711E-3,1.402917454E-2
8.647339620E-1,-1.342756953E-2,5.975021981E-3,-6.918043364E-3,1.624376296E-2
8.671790140E-1,-1.281670574E-2,6.585883908E-3,-7.528907154E-3,1.625811354E-2
8.696248470E-1,-1.159497630E-2,6.585883908E-3,-6.918043364E-3,1.502253861E-2
8.720698990E-1,-1.281670574E-2,7.807615213E-3,-6.307177711E-3,1.627904457E-2
8.745141180E-1,-1.342756953E-2,9.029342793E-3,-4.474584479E-3,1.678840555E-2
8.769591700E-1,-1.159497630E-2,1.208366733E-2,-3.863718826E-3,1.718682096E-2
8.794050040E-1,-1.281670574E-2,1.452712622E-2,-5.696313921E-3,2.019290307E-2
8.818500560E-1,-1.342756953E-2,1.697058603E-2,-5.085448269E-3,2.222975928E-2
8.842943260E-1,-1.403843518E-2,1.758145168E-2,-3.252855036E-3,2.273249154E-2
8.867393260E-1,-1.464930084E-2,1.819231361E-2,-4.474584479E-3,2.378201412E-2
8.891852120E-1,-1.464930084E-2,1.880317926E-2,-4.474584479E-3,2.425249413E-2
8.916302120E-1,-1.403843518E-2,1.819231361E-2,-3.863718826E-3,2.330163643E-2
8.940744830E-1,-1.526016463E-2,1.819231361E-2,-3.863718826E-3,2.405745668E-2
8.965195350E-1,-1.526016463E-2,1.635972038E-2,-3.252855036E-3,2.260739130E-2
8.989653680E-1,-1.709275879E-2,1.574885845E-2,-5.085448269E-3,2.379182065E-2
9.014104200E-1,-1.709275879E-2,1.513799187E-2,-4.474584479E-3,2.326678119E-2
9.038546390E-1,-1.587102748E-2,1.635972038E-2,-5.696313921E-3,2.349421113E-2
9.062996910E-1,-1.526016463E-2,1.452712622E-2,-5.085448269E-3,2.167421981E-2
9.087455240E-1,-1.770362258E-2,1.391626056E-2,-5.085448269E-3,2.308554406E-2
9.111905760E-1,-1.709275879E-2,1.391626056E-2,-6.307177711E-3,2.292608126E-2
9.136348470E-1,-1.709275879E-2,1.330539491E-2,-6.918043364E-3,2.273884915E-2
9.160798990E-1,-1.648189314E-2,1.391626056E-2,-6.307177711E-3,2.247433203E-2
9.185257330E-1,-1.587102748E-2,1.208366733E-2,-7.528907154E-3,2.132109220E-2
9.209707850E-1,-1.709275879E-2,1.269453298E-2,-7.528907154E-3,2.258313560E-2
9.234150040E-1,-1.648189314E-2,1.025107410E-2,-8.750636131E-3,2.129110035E-2
9.258600560E-1,-1.770362258E-2,1.086193975E-2,-8.139772341E-3,2.230820211E-2
9.283058890E-1,-1.831448637E-2,8.418477140E-3,-8.750636131E-3,2.197418488E-2
9.307509410E-1,-1.648189314E-2,8.418477140E-3,-1.119409502E-2,2.162940873E-2
9.331952120E-1,-1.648189314E-2,5.975021981E-3,-1.058323123E-2,2.047824388E-2
9.356402640E-1,-1.770362258E-2,6.585883908E-3,-1.119409502E-2,2.195677304E-2
9.380860970E-1,-1.770362258E-2,5.975021981E-3,-1.058323123E-2,2.147379620E-2
9.405310970E-1,-1.770362258E-2,4.753290676E-3,-1.119409502E-2,2.147835627E-2
9.429753680E-1,-1.892535202E-2,4.142425023E-3,-1.119409502E-2,2.237490553E-2
9.454204200E-1,-1.831448637E-2,4.753290676E-3,-1.058323123E-2,2.167992081E-2
9.478662540E-1,-2.075794525E-2,2.309832023E-3,-1.058323123E-2,2.341436308E-2
9.503113060E-1,-2.075794525E-2,4.772387911E-4,-1.119409502E-2,2.358872212E-2
9.527555760E-1,-2.075794525E-2,-1.355358167E-3,-1.119409502E-2,2.362280784E-2
9.552005760E-1,-2.136881091E-2,-2.577085746E-3,-1.058323123E-2,2.398483341E-2
9.576464620E-1,-2.075794525E-2,-3.187951399E-3,-9.361501783E-3,2.299332601E-2
9.600914620E-1,-2.197967656E-2,-5.020544864E-3,-1.119409502E-2,2.517180597E-2
9.625357330E-1,-2.136881091E-2,-5.020544864E-3,-1.119409502E-2,2.464020522E-2
9.649807850E-1,-2.136881091E-2,-8.685733192E-3,-1.119409502E-2,2.563934094E-2
9.674266180E-1,-2.197967656E-2,-8.074869402E-3,-1.119409502E-2,2.595414149E-2
9.698716700E-1,-2.259054221E-2,-8.074869402E-3,-1.058323123E-2,2.622100106E-2
9.723158890E-1,-2.381226979E-2,-9.907462634E-3,-9.972365573E-3,2.765194539E-2
9.747609410E-1,-2.503400110E-2,-1.112919208E-2,-9.972365573E-3,2.915490014E-2
9.772067740E-1,-2.442313544E-2,-1.357265096E-2,-9.972365573E-3,2.966739750E-2
9.796518260E-1,-2.442313544E-2,-1.601610892E-2,-9.972365573E-3,3.086184319E-2
9.820960970E-1,-2.320140414E-2,-1.723783836E-2,-9.972365573E-3,3.057607399E-2
9.845411490E-1,-2.381226979E-2,-1.845956780E-2,-1.058323123E-2,3.193406675E-2
9.869869830E-1,-2.381226979E-2,-2.029216290E-2,-1.119409502E-2,3.322805789E-2
9.894321910E-1,-2.381226979E-2,-2.090302669E-2,-1.119409502E-2,3.360459017E-2
9.918773990E-1,-2.442313544E-2,-1.907043159E-2,-1.058323123E-2,3.274409396E-2
9.943213060E-1,-2.503400110E-2,-1.845956780E-2,-1.302669011E-2,3.372167715E-2
9.967671390E-1,-2.442313544E-2,-1.845956780E-2,-1.241582446E-2,3.303631162E-2
9.992123470E-1,-2.381226979E-2,-1.540524606E-2,-1.302669011E-2,3.120962118E-2
1.001657556E0,-2.381226979E-2,-1.357265096E-2,-1.485928334E-2,3.117754558E-2
1.004102764E0,-2.442313544E-2,-1.174005587E-2,-1.363755390E-2,3.033646870E-2
1.006547972E0,-2.442313544E-2,-1.112919208E-2,-1.363755390E-2,3.010533736E-2
1.008993181E0,-2.564486302E-2,-7.464003749E-3,-1.424841955E-2,3.027189805E-2
1.011438389E0,-2.503400110E-2,-5.631410517E-3,-1.547014900E-2,2.996230140E-2
1.013883597E0,-2.442313544E-2,-4.409679212E-3,-1.547014900E-2,2.924483417E-2
1.016328806E0,-2.686659433E-2,-1.336268615E-4,-1.608101279E-2,3.131183034E-2
1.018774014E0,-2.686659433E-2,1.698966371E-3,-1.669187844E-2,3.167521402E-2
1.021219222E0,-2.686659433E-2,5.975021981E-3,-1.608101279E-2,3.187653919E-2
1.023664431E0,-2.686659433E-2,8.418477140E-3,-1.485928334E-2,3.183524697E-2
1.026109639E0,-2.625572868E-2,9.640208445E-3,-1.547014900E-2,3.196282868E-2
1.028554847E0,-2.625572868E-2,1.208366733E-2,-1.730274409E-2,3.368624731E-2
1.031000056E0,-2.564486302E-2,1.330539491E-2,-1.608101279E-2,3.306495888E-2
1.033445264E0,-2.564486302E-2,1.574885845E-2,-1.669187844E-2,3.441372325E-2
1.035890472E0,-2.503400110E-2,1.452712622E-2,-1.669187844E-2,3.341193518E-2
1.038332920E0,-2.442313544E-2,1.391626056E-2,-1.547014900E-2,3.208546965E-2
1.040777139E0,-2.564486302E-2,1.391626056E-2,-1.547014900E-2,3.302494235E-2
1.043222191E0,-2.503400110E-2,1.452712622E-2,-1.547014900E-2,3.281865501E-2
1.045668024E0,-2.442313544E-2,1.330539491E-2,-1.485928334E-2,3.153286191E-2
1.048113076E0,-2.320140414E-2,1.513799187E-2,-1.547014900E-2,3.172994582E-2
1.050557347E0,-2.442313544E-2,1.635972038E-2,-1.424841955E-2,3.266722295E-2
1.053002399E0,-2.197967656E-2,1.574885845E-2,-1.608101279E-2,3.146000153E-2
1.055448233E0,-2.259054221E-2,1.452712622E-2,-1.669187844E-2,3.162259950E-2
1.057893285E0,-2.197967656E-2,1.574885845E-2,-1.485928334E-2,3.085337949E-2
1.060337504E0,-2.075794525E-2,1.391626056E-2,-1.608101279E-2,2.971789985E-2
1.062782556E0,-2.136881091E-2,1.147280168E-2,-1.547014900E-2,2.876763403E-2
1.065228389E0,-2.014708333E-2,1.025107410E-2,-1.547014900E-2,2.739187830E-2
1.067673441E0,-2.075794525E-2,1.147280168E-2,-1.608101279E-2,2.865512941E-2
1.070117712E0,-2.075794525E-2,9.640208445E-3,-1.547014900E-2,2.762519538E-2
1.072562712E0,-2.136881091E-2,9.029342793E-3,-1.547014900E-2,2.788333948E-2
1.075008597E0,-1.892535202E-2,6.585883908E-3,-1.669187844E-2,2.607990839E-2
1.077453597E0,-1.892535202E-2,7.196749561E-3,-1.791360788E-2,2.703441327E-2
1.079897868E0,-1.831448637E-2,9.029342793E-3,-1.852447167E-2,2.757001075E-2
1.082342920E0,-1.953621767E-2,7.196749561E-3,-1.608101279E-2,2.630695683E-2
1.084788754E0,-1.953621767E-2,7.196749561E-3,-1.791360788E-2,2.746551206E-2
1.087233806E0,-1.892535202E-2,5.975021981E-3,-1.730274409E-2,2.632973205E-2
1.089678076E0,-1.953621767E-2,6.585883908E-3,-1.852447167E-2,2.771630781E-2
1.092123076E0,-2.075794525E-2,5.975021981E-3,-1.913533732E-2,2.885748280E-2
1.094568910E0,-2.075794525E-2,6.585883908E-3,-1.791360788E-2,2.819864368E-2
1.097013962E0,-2.014708333E-2,5.364156328E-3,-1.730274409E-2,2.709361720E-2
1.099458233E0,-2.014708333E-2,7.196749561E-3,-1.791360788E-2,2.790332450E-2
1.101903285E0,-2.075794525E-2,7.807615213E-3,-1.791360788E-2,2.850874416E-2
1.104349118E0,-2.136881091E-2,9.029342793E-3,-1.974620298E-2,3.046420265E-2
1.106794170E0,-2.136881091E-2,9.029342793E-3,-1.791360788E-2,2.930959669E-2
1.109238389E0,-2.136881091E-2,7.807615213E-3,-1.913533732E-2,2.972786688E-2
1.111683441E0,-2.136881091E-2,7.807615213E-3,-1.913533732E-2,2.972786688E-2
1.114129274E0,-2.259054221E-2,7.807615213E-3,-1.852447167E-2,3.023983306E-2
1.116574326E0,-2.259054221E-2,9.640208445E-3,-1.852447167E-2,3.076397677E-2
1.119018597E0,-2.320140414E-2,9.640208445E-3,-1.852447167E-2,3.121529791E-2
1.121463649E0,-2.320140414E-2,9.640208445E-3,-1.791360788E-2,3.085670300E-2
1.123909483E0,-2.075794525E-2,7.807615213E-3,-1.669187844E-2,2.775734051E-2
1.126354535E0,-2.381226979E-2,8.418477140E-3,-1.669187844E-2,3.027397820E-2
1.128798754E0,-2.136881091E-2,8.418477140E-3,-1.669187844E-2,2.839217573E-2
1.131243806E0,-2.320140414E-2,8.418477140E-3,-1.485928334E-2,2.880927304E-2
1.133689639E0,-2.381226979E-2,8.418477140E-3,-1.424841955E-2,2.899848978E-2
1.136134691E0,-2.442313544E-2,8.418477140E-3,-1.363755390E-2,2.921203825E-2
1.138578962E0,-2.381226979E-2,7.196749561E-3,-1.363755390E-2,2.836900198E-2
1.141024014E0,-2.442313544E-2,5.975021981E-3,-1.180496067E-2,2.777674439E-2
1.143469847E0,-2.197967656E-2,3.531559603E-3,-1.180496067E-2,2.519792038E-2
1.145914899E0,-2.320140414E-2,2.309832023E-3,-1.302669011E-2,2.670833453E-2
1.148359118E0,-2.136881091E-2,-1.355358167E-3,-1.058323123E-2,2.388446898E-2
1.150804170E0,-2.197967656E-2,-1.966220094E-3,-1.058323123E-2,2.447400634E-2
1.153250004E0,-2.259054221E-2,-2.577085746E-3,-1.058323123E-2,2.507944879E-2
1.155695056E0,-2.136881091E-2,-2.577085746E-3,-9.361501783E-3,2.347136907E-2
1.158139326E0,-2.197967656E-2,-3.798815189E-3,-1.058323123E-2,2.468890361E-2
1.160584379E0,-2.136881091E-2,-4.409679212E-3,-1.180496067E-2,2.480783035E-2
1.163030212E0,-2.075794525E-2,-5.631410517E-3,-1.119409502E-2,2.424691401E-2
1.165475212E0,-2.259054221E-2,-5.020544864E-3,-1.180496067E-2,2.597875217E-2
1.167919483E0,-2.136881091E-2,-5.631410517E-3,-1.302669011E-2,2.565216403E-2
1.170364535E0,-2.014708333E-2,-5.631410517E-3,-1.363755390E-2,2.497199686E-2
1.172810368E0,-2.075794525E-2,-5.020544864E-3,-1.424841955E-2,2.567324720E-2
1.175255420E0,-1.953621767E-2,-5.631410517E-3,-1.485928334E-2,2.518282921E-2
1.177699691E0,-1.953621767E-2,-2.577085746E-3,-1.669187844E-2,2.582487130E-2
1.180144691E0,-1.892535202E-2,-2.577085746E-3,-1.730274409E-2,2.577198621E-2
1.182590576E0,-1.892535202E-2,-1.966220094E-3,-1.852447167E-2,2.655543299E-2
1.185035576E0,-1.831448637E-2,-7.444925141E-4,-1.913533732E-2,2.649784547E-2
1.187479847E0,-1.953621767E-2,-1.336268615E-4,-1.974620298E-2,2.777758429E-2
1.189924899E0,-2.014708333E-2,4.772387911E-4,-2.035706677E-2,2.864511984E-2
1.192370733E0,-1.892535202E-2,-1.355358167E-3,-2.218966186E-2,2.919566814E-2
1.194815785E0,-1.953621767E-2,-1.966220094E-3,-2.157879621E-2,2.917489106E-2
1.197260056E0,-1.953621767E-2,-1.966220094E-3,-2.218966186E-2,2.962956152E-2
1.199705056E0,-2.014708333E-2,-1.355358167E-3,-2.341138944E-2,3.091658322E-2
1.202150941E0,-1.770362258E-2,-7.444925141E-4,-2.341138944E-2,2.936095498E-2
1.204595941E0,-1.770362258E-2,-7.444925141E-4,-2.524398454E-2,3.084203749E-2
1.207040212E0,-1.709275879E-2,-7.444925141E-4,-2.402225323E-2,2.949212306E-2
1.209485264E0,-1.709275879E-2,1.698966371E-3,-2.585484646E-2,3.104065037E-2
1.211931097E0,-1.709275879E-2,1.088104444E-3,-2.402225323E-2,2.950279689E-2
1.214376149E0,-1.770362258E-2,2.920697676E-3,-2.402225323E-2,2.998361849E-2
1.216820368E0,-1.831448637E-2,4.753290676E-3,-2.341138944E-2,3.010161688E-2
1.219265420E0,-1.892535202E-2,4.142425023E-3,-2.402225323E-2,3.086093460E-2
1.221711254E0,-1.831448637E-2,1.088104444E-3,-2.524398454E-2,3.120678031E-2
1.224156306E0,-2.014708333E-2,2.309832023E-3,-2.280052565E-2,3.051400106E-2
1.226600576E0,-1.953621767E-2,2.309832023E-3,-2.218966186E-2,2.965434569E-2
1.229045629E0,-1.831448637E-2,1.698966371E-3,-2.280052565E-2,2.929455355E-2
1.231491462E0,-1.831448637E-2,1.698966371E-3,-2.280052565E-2,2.929455355E-2
1.233936514E0,-1.892535202E-2,2.309832023E-3,-2.280052565E-2,2.972151145E-2
1.236380733E0,-1.892535202E-2,4.142425023E-3,-2.096793056E-2,2.854790266E-2
1.238825785E0,-1.831448637E-2,5.364156328E-3,-1.974620298E-2,2.746101083E-2
1.241271618E0,-1.709275879E-2,4.753290676E-3,-1.913533732E-2,2.609439230E-2
1.243716670E0,-1.953621767E-2,4.142425023E-3,-1.913533732E-2,2.765835535E-2
1.246160941E0,-1.953621767E-2,4.142425023E-3,-1.913533732E-2,2.765835535E-2
1.248605993E0,-2.014708333E-2,3.531559603E-3,-1.730274409E-2,2.679107749E-2
1.251051826E0,-2.075794525E-2,4.772387911E-4,-1.608101279E-2,2.626250217E-2
1.253496879E0,-2.075794525E-2,1.088104444E-3,-1.730274409E-2,2.704553966E-2
1.255941097E0,-1.892535202E-2,-2.577085746E-3,-1.730274409E-2,2.577198621E-2
1.258386149E0,-1.892535202E-2,-2.577085746E-3,-1.608101279E-2,2.496816558E-2
1.260831983E0,-1.892535202E-2,-5.020544864E-3,-1.547014900E-2,2.495396421E-2
1.263277035E0,-1.770362258E-2,-5.631410517E-3,-1.547014900E-2,2.417553612E-2
1.265721306E0,-1.953621767E-2,-7.464003749E-3,-1.547014900E-2,2.601347080E-2
1.268166358E0,-1.770362258E-2,-7.464003749E-3,-1.424841955E-2,2.391959582E-2
1.270612191E0,-1.831448637E-2,-7.464003749E-3,-1.485928334E-2,2.473722022E-2
1.273057243E0,-1.831448637E-2,-6.242274307E-3,-1.424841955E-2,2.402922927E-2
1.275501462E0,-1.648189314E-2,-6.242274307E-3,-1.424841955E-2,2.266354451E-2
1.277946514E0,-1.831448637E-2,-4.409679212E-3,-1.547014900E-2,2.437603724E-2
1.280392347E0,-1.464930084E-2,-3.187951399E-3,-1.547014900E-2,2.154276118E-2
1.282837399E0,-1.770362258E-2,-2.577085746E-3,-1.547014900E-2,2.365132413E-2
1.285281670E0,-1.464930084E-2,-3.187951399E-3,-1.730274409E-2,2.289432249E-2
1.287726722E0,-1.831448637E-2,-5.020544864E-3,-1.730274409E-2,2.569068381E-2
1.290172556E0,-1.464930084E-2,-3.187951399E-3,-1.913533732E-2,2.430897331E-2
1.292617608E0,-1.770362258E-2,-5.020544864E-3,-1.852447167E-2,2.611092059E-2
1.295061826E0,-1.587102748E-2,-4.409679212E-3,-1.852447167E-2,2.478892565E-2
1.297506879E0,-1.648189314E-2,-3.798815189E-3,-1.974620298E-2,2.599992943E-2
1.299952712E0,-1.709275879E-2,-3.798815189E-3,-2.157879621E-2,2.778916778E-2
1.302397764E0,-1.464930084E-2,-7.444925141E-4,-1.974620298E-2,2.459814660E-2
1.304842035E0,-1.831448637E-2,4.772387911E-4,-1.974620298E-2,2.693623396E-2
1.307287087E0,-1.342756953E-2,4.142425023E-3,-1.913533732E-2,2.374069171E-2
1.309732920E0,-1.831448637E-2,5.364156328E-3,-1.913533732E-2,2.702509424E-2
1.312177972E0,-1.403843518E-2,7.196749561E-3,-1.974620298E-2,2.527416465E-2
1.314622191E0,-1.648189314E-2,8.418477140E-3,-1.913533732E-2,2.662113246E-2
1.317067243E0,-1.587102748E-2,1.025107410E-2,-1.791360788E-2,2.603596322E-2
1.319513076E0,-1.587102748E-2,1.086193975E-2,-1.791360788E-2,2.628247697E-2
1.321958129E0,-1.892535202E-2,1.025107410E-2,-1.852447167E-2,2.839735058E-2
1.324402399E0,-1.709275879E-2,1.086193975E-2,-1.791360788E-2,2.703777886E-2
1.326847451E0,-1.953621767E-2,7.196749561E-3,-1.913533732E-2,2.827752004E-2
1.329293285E0,-1.587102748E-2,6.585883908E-3,-1.913533732E-2,2.571817479E-2
1.331738285E0,-2.075794525E-2,4.142425023E-3,-1.791360788E-2,2.772993551E-2
1.334182556E0,-1.709275879E-2,4.142425023E-3,-1.730274409E-2,2.467198900E-2
1.336627608E0,-1.770362258E-2,4.772387911E-4,-1.669187844E-2,2.433649143E-2
1.339073441E0,-1.709275879E-2,-7.444925141E-4,-1.608101279E-2,2.348011168E-2
1.341518493E0,-1.648189314E-2,-1.966220094E-3,-1.547014900E-2,2.269018142E-2
1.343962764E0,-1.770362258E-2,-1.966220094E-3,-1.485928334E-2,2.319660698E-2
1.346407764E0,-1.526016463E-2,-3.798815189E-3,-1.363755390E-2,2.081553501E-2
1.348853649E0,-1.831448637E-2,-5.020544864E-3,-1.302669011E-2,2.302869812E-2
1.351298649E0,-1.403843518E-2,-6.853138097E-3,-1.241582446E-2,1.995484556E-2
1.353742920E0,-1.892535202E-2,-1.235092152E-2,-1.241582446E-2,2.578501325E-2
1.356187972E0,-1.281670574E-2,-1.357265096E-2,-1.241582446E-2,2.241957843E-2
1.358633806E0,-1.526016463E-2,-1.662697271E-2,-1.241582446E-2,2.575813547E-2
1.361078858E0,-1.220584102E-2,-1.784870401E-2,-1.180496067E-2,2.463566289E-2
1.363523129E0,-1.281670574E-2,-1.968129724E-2,-1.180496067E-2,2.628646997E-2
1.365968129E0,-1.037324686E-2,-2.090302669E-2,-1.241582446E-2,2.643281052E-2
1.368414014E0,-7.929787971E-3,-1.723783836E-2,-1.180496067E-2,2.234685000E-2
1.370859014E0,-9.151517414E-3,-1.601610892E-2,-1.058323123E-2,2.126665933E-2
1.373303285E0,-7.929787971E-3,-1.357265096E-2,-9.361501783E-3,1.829579479E-2
1.375748337E0,-5.486329086E-3,-1.418351475E-2,-1.180496067E-2,1.925172704E-2
1.378194170E0,-7.929787971E-3,-1.051832829E-2,-1.119409502E-2,1.728654189E-2
1.380639222E0,-7.929787971E-3,-1.112919208E-2,-1.180496067E-2,1.805817128E-2
1.383083441E0,-7.929787971E-3,-9.296596982E-3,-1.180496067E-2,1.699015447E-2
1.385528493E0,-7.929787971E-3,-8.074869402E-3,-1.241582446E-2,1.679993304E-2
1.387974379E0,-6.097193807E-3,-7.464003749E-3,-1.180496067E-2,1.523956104E-2
1.390419379E0,-6.097193807E-3,-6.242274307E-3,-1.119409502E-2,1.419329152E-2
1.392863649E0,-5.486329086E-3,-6.853138097E-3,-1.241582446E-2,1.520585432E-2
1.395308701E0,-4.875464365E-3,-6.242274307E-3,-1.119409502E-2,1.371291014E-2
1.397754535E0,-4.875464365E-3,-6.853138097E-3,-9.361501783E-3,1.258464819E-2
1.400199587E0,-6.097193807E-3,-7.464003749E-3,-8.750636131E-3,1.301770936E-2
1.402643806E0,-4.264599644E-3,-6.853138097E-3,-9.361501783E-3,1.236082633E-2
1.405088858E0,-4.264599644E-3,-6.853138097E-3,-9.361501783E-3,1.236082633E-2
1.407534691E0,-3.653734690E-3,-5.020544864E-3,-8.139772341E-3,1.023775081E-2
1.409979743E0,-4.264599644E-3,-7.464003749E-3,-8.750636131E-3,1.226669453E-2
1.412424014E0,-4.264599644E-3,-7.464003749E-3,-8.139772341E-3,1.183866782E-2
1.414869066E0,-5.486329086E-3,-7.464003749E-3,-6.918043364E-3,1.156159517E-2
1.417314899E0,-4.875464365E-3,-6.853138097E-3,-5.085448269E-3,9.828399597E-3
1.419759951E0,-6.097193807E-3,-6.853138097E-3,-5.696313921E-3,1.079765097E-2
1.422204170E0,-5.486329086E-3,-8.685733192E-3,-4.474584479E-3,1.120551981E-2
1.424649222E0,-5.486329086E-3,-9.907462634E-3,-4.474584479E-3,1.217700821E-2
1.427095056E0,-4.875464365E-3,-1.174005587E-2,-5.085448269E-3,1.369163426E-2
1.429540108E0,-3.042869968E-3,-1.235092152E-2,-3.863718826E-3,1.329408301E-2
1.431984379E0,-2.432005247E-3,-1.174005587E-2,-2.641989384E-3,1.227695684E-2
1.434429431E0,-3.653734690E-3,-1.051832829E-2,-2.031125594E-3,1.131858994E-2
1.436875264E0,-2.432005247E-3,-1.051832829E-2,-2.641989384E-3,1.111440450E-2
1.439320316E0,-1.821140526E-3,-1.174005587E-2,-2.031125594E-3,1.205283932E-2
1.441764535E0,-2.432005247E-3,-1.051832829E-2,-4.474584479E-3,1.168639319E-2
1.444209587E0,-2.432005247E-3,-1.174005587E-2,-3.863718826E-3,1.259650287E-2
1.446655472E0,-3.042869968E-3,-1.112919208E-2,-5.696313921E-3,1.286724392E-2
1.449100472E0,-3.042869968E-3,-1.296178717E-2,-7.528907154E-3,1.529547081E-2
1.451544743E0,-1.821140526E-3,-1.479438040E-2,-9.361501783E-3,1.760193058E-2
1.453989795E0,-4.264599644E-3,-1.540524606E-2,-1.058323123E-2,1.917063378E-2
1.456435629E0,-4.264599644E-3,-1.601610892E-2,-1.241582446E-2,2.070882063E-2
1.458880681E0,-2.432005247E-3,-1.479438040E-2,-1.608101279E-2,2.198607089E-2
1.461324951E0,-3.653734690E-3,-1.479438040E-2,-1.791360788E-2,2.351852070E-2
1.463769951E0,-2.432005247E-3,-1.418351475E-2,-1.913533732E-2,2.394259540E-2
1.466215785E0,-3.042869968E-3,-1.235092152E-2,-1.791360788E-2,2.197047262E-2
1.468660837E0,-1.821140526E-3,-1.235092152E-2,-1.974620298E-2,2.336181387E-2
1.471105108E0,-3.042869968E-3,-1.051832829E-2,-2.035706677E-2,2.311502660E-2
1.473550160E0,-3.042869968E-3,-1.112919208E-2,-1.974620298E-2,2.286986021E-2
1.475995993E0,-3.042869968E-3,-1.174005587E-2,-1.852447167E-2,2.214145479E-2
1.478441045E0,-3.042869968E-3,-1.296178717E-2,-1.913533732E-2,2.331154475E-2
1.480885316E0,-4.264599644E-3,-1.296178717E-2,-1.974620298E-2,2.400223466E-2
1.483330316E0,-1.821140526E-3,-1.479438040E-2,-1.791360788E-2,2.330423978E-2
1.485776149E0,-1.210275805E-3,-1.662697271E-2,-1.669187844E-2,2.359109566E-2
1.488221201E0,-1.210275805E-3,-1.845956780E-2,-1.608101279E-2,2.451161731E-2
1.490665472E0,-5.994110834E-4,-1.907043159E-2,-1.669187844E-2,2.535072899E-2
1.493110524E0,-5.994110834E-4,-1.845956780E-2,-1.608101279E-2,2.448905693E-2
1.495556358E0,1.844047802E-3,-1.845956780E-2,-1.547014900E-2,2.415536515E-2
1.498001410E0,6.223183591E-4,-1.723783836E-2,-1.669187844E-2,2.400310724E-2
1.500445629E0,3.065777244E-3,-1.540524606E-2,-1.608101279E-2,2.247931423E-2
1.502890681E0,3.065777244E-3,-1.418351475E-2,-1.608101279E-2,2.166033363E-2
1.505336514E0,3.065777244E-3,-1.296178717E-2,-1.547014900E-2,2.041402525E-2
1.507781566E0,3.676641965E-3,-9.907462634E-3,-1.547014900E-2,1.873502127E-2
1.510225837E0,6.120100617E-3,-7.464003749E-3,-1.730274409E-2,1.981292347E-2
1.512670889E0,5.509235896E-3,-5.020544864E-3,-1.730274409E-2,1.883991783E-2
1.515116722E0,6.730965339E-3,-1.966220094E-3,-1.608101279E-2,1.754340013E-2
1.517561774E0,7.341830060E-3,-1.966220094E-3,-1.730274409E-2,1.889850373E-2
1.520005993E0,7.341830060E-3,4.772387911E-4,-1.791360788E-2,1.936562864E-2
1.522451045E0,9.174424224E-3,1.698966371E-3,-1.730274409E-2,1.965811536E-2
1.524896879E0,9.785288945E-3,1.088104444E-3,-1.608101279E-2,1.885563107E-2
1.527341931E0,1.222874783E-2,1.088104444E-3,-1.669187844E-2,2.072064310E-2
1.529786201E0,1.528307237E-2,-1.966220094E-3,-1.730274409E-2,2.316944703E-2
1.532231254E0,1.650479995E-2,-3.798815189E-3,-1.730274409E-2,2.421207077E-2
1.534677087E0,2.139171772E-2,-9.296596982E-3,-1.608101279E-2,2.833074786E-2
1.537122139E0,2.261344902E-2,-1.479438040E-2,-1.302669011E-2,2.999894037E-2
1.539566358E0,2.383517660E-2,-1.907043159E-2,-1.241582446E-2,3.295375095E-2
1.542011410E0,2.627863549E-2,-2.517908067E-2,-9.972365573E-3,3.773593594E-2
1.544457243E0,2.627863549E-2,-3.128772601E-2,-8.750636131E-3,4.178590809E-2
1.546902295E0,2.688950114E-2,-3.739637509E-2,-7.528907154E-3,4.667138935E-2
1.549346566E0,2.933296002E-2,-4.472675174E-2,-8.750636131E-3,5.419851011E-2
1.551791618E0,3.116555326E-2,-5.205712840E-2,-9.361501783E-3,6.139115606E-2
1.554237451E0,3.299815208E-2,-6.183096394E-2,-1.119409502E-2,7.097361415E-2
1.556682504E0,3.544161096E-2,-7.038307190E-2,-1.363755390E-2,7.997416754E-2
1.559126722E0,3.910679743E-2,-7.832431048E-2,-1.791360788E-2,8.935847226E-2
1.561571774E0,4.460458085E-2,-8.321123570E-2,-1.913533732E-2,9.633192365E-2
1.564017608E0,4.826977104E-2,-8.504382521E-2,-2.157879621E-2,1.001402389E-1
1.566462660E0,5.010236427E-2,-8.626555651E-2,-2.402225323E-2,1.026112167E-1
1.568906931E0,4.888063297E-2,-8.809814602E-2,-2.402225323E-2,1.035744576E-1
1.571351983E0,4.704803973E-2,-8.809814602E-2,-2.463311888E-2,1.028668650E-1
1.573797816E0,4.216112196E-2,-8.626555651E-2,-2.463311888E-2,9.912667145E-2
1.576242868E0,4.032852873E-2,-8.198950440E-2,-2.218966186E-2,9.402685869E-2
1.578687087E0,3.849593550E-2,-7.710257918E-2,-2.218966186E-2,8.898947050E-2
1.581132139E0,3.727420419E-2,-7.160480320E-2,-2.035706677E-2,8.325277357E-2
1.583578024E0,3.605247289E-2,-6.793961674E-2,-1.730274409E-2,7.883500033E-2
1.586023024E0,3.544161096E-2,-6.427442282E-2,-1.547014900E-2,7.501089739E-2
1.588467295E0,3.360901400E-2,-6.244182959E-2,-1.302669011E-2,7.209883883E-2
1.590912347E0,3.483074531E-2,-6.244182959E-2,-1.119409502E-2,7.237037146E-2
1.593358181E0,3.360901400E-2,-6.060923263E-2,-8.750636131E-3,6.985426641E-2
1.595803233E0,3.299815208E-2,-5.999836698E-2,-6.307177711E-3,6.876381731E-2
1.598247451E0,3.177642077E-2,-5.999836698E-2,-2.641989384E-3,6.794501502E-2
1.600692504E0,3.177642077E-2,-5.999836698E-2,-8.093961515E-4,6.789845418E-2
1.603138337E0,3.238728642E-2,-6.060923263E-2,1.634063199E-3,6.873925782E-2
1.605583389E0,3.055469133E-2,-5.877663940E-2,2.244927920E-3,6.628214091E-2
1.608027660E0,2.872209437E-2,-5.694404617E-2,3.466657363E-3,6.387175285E-2
1.610472712E0,2.750036679E-2,-5.633318052E-2,3.466657363E-3,6.278307984E-2
1.612918545E0,2.505690791E-2,-5.388972163E-2,4.688386805E-3,5.961486142E-2
1.615363597E0,2.383517660E-2,-5.266799405E-2,6.520980969E-3,5.817694074E-2
1.617807816E0,2.261344902E-2,-4.778107628E-2,5.299251527E-3,5.312703073E-2
1.620252868E0,2.261344902E-2,-4.472675174E-2,5.299251527E-3,5.039774266E-2
1.622698701E0,2.016999014E-2,-4.228329286E-2,4.688386805E-3,4.708169844E-2
1.625143754E0,1.955912448E-2,-3.800724074E-2,5.910116248E-3,4.315135193E-2
1.627588024E0,1.833739504E-2,-3.434205055E-2,4.077522084E-3,3.914412701E-2
1.630033076E0,1.711566560E-2,-3.067686222E-2,2.855792642E-3,3.524445256E-2
1.632478910E0,1.528307237E-2,-2.701167390E-2,3.466657363E-3,3.122852127E-2
1.634923962E0,1.406134106E-2,-2.395734936E-2,2.855792642E-3,2.792546244E-2
1.637368233E0,1.283961255E-2,-2.151389048E-2,2.244927920E-3,2.515438004E-2
1.639813233E0,1.039615367E-2,-1.907043159E-2,2.244927920E-3,2.183577508E-2
1.642259118E0,9.174424224E-3,-1.662697271E-2,4.077522084E-3,1.942298812E-2
1.644704118E0,8.563559502E-3,-1.296178717E-2,3.466657363E-3,1.591729221E-2
1.647148389E0,6.730965339E-3,-1.235092152E-2,3.466657363E-3,1.448685163E-2
1.649593441E0,5.509235896E-3,-6.853138097E-3,2.244927920E-3,9.075069328E-3
1.652039274E0,4.287506454E-3,-3.187951399E-3,1.634063199E-3,5.587119853E-3
1.654484326E0,2.454912523E-3,1.698966371E-3,1.634063199E-3,3.403416631E-3
1.656928545E0,1.145363785E-5,5.975021981E-3,1.634063199E-3,6.194447626E-3
1.659373597E0,1.145363785E-5,8.418477140E-3,2.244927920E-3,8.712668358E-3
1.661819431E0,-1.821140526E-3,9.640208445E-3,1.634063199E-3,9.945870210E-3
1.664264483E0,-2.432005247E-3,1.086193975E-2,-1.985309646E-4,1.113264565E-2
1.666708754E0,-4.875464365E-3,1.147280168E-2,-8.093961515E-4,1.249201558E-2
1.669153806E0,-4.875464365E-3,1.208366733E-2,-1.420259941E-3,1.310733792E-2
1.671599639E0,-4.264599644E-3,1.330539491E-2,-2.641989384E-3,1.421972052E-2
1.674044691E0,-4.264599644E-3,1.269453298E-2,-3.863718826E-3,1.393794465E-2
1.676488962E0,-4.264599644E-3,1.391626056E-2,-3.863718826E-3,1.505913149E-2
1.678933962E0,-5.486329086E-3,1.391626056E-2,-5.696313921E-3,1.600656450E-2
1.681379847E0,-6.097193807E-3,1.391626056E-2,-5.696313921E-3,1.622609234E-2
1.683824847E0,-5.486329086E-3,1.269453298E-2,-5.085448269E-3,1.473474664E-2
1.686269118E0,-6.097193807E-3,1.513799187E-2,-7.528907154E-3,1.797272970E-2
1.688714170E0,-7.929787971E-3,1.269453298E-2,-8.750636131E-3,1.733800270E-2
1.691160004E0,-8.540652692E-3,1.086193975E-2,-8.750636131E-3,1.635536965E-2
1.693605056E0,-7.929787971E-3,9.029342793E-3,-7.528907154E-3,1.418079728E-2
1.696049326E0,-7.318923250E-3,6.585883908E-3,-8.750636131E-3,1.317247650E-2
1.698494326E0,-6.708058529E-3,5.364156328E-3,-9.972365573E-3,1.316131823E-2
1.700940212E0,-6.097193807E-3,3.531559603E-3,-9.972365573E-3,1.221047750E-2
1.703385212E0,-4.875464365E-3,1.698966371E-3,-9.361501783E-3,1.069085381E-2
1.705829483E0,-6.097193807E-3,4.772387911E-4,-8.139772341E-3,1.018132717E-2
1.708274535E0,-6.097193807E-3,-3.187951399E-3,-8.750636131E-3,1.113159643E-2
1.710720368E0,-4.264599644E-3,-6.242274307E-3,-9.972365573E-3,1.251402708E-2
1.713165420E0,-2.432005247E-3,-1.112919208E-2,-1.058323123E-2,1.554922342E-2
1.715609691E0,-3.042869968E-3,-1.235092152E-2,-9.972365573E-3,1.616330397E-2
1.718054691E0,-1.821140526E-3,-1.479438040E-2,-1.058323123E-2,1.828100182E-2
1.720500576E0,-1.210275805E-3,-1.845956780E-2,-9.972365573E-3,2.101591031E-2
1.722945576E0,6.223183591E-4,-2.151389048E-2,-9.361501783E-3,2.347067275E-2
1.725389847E0,6.223183591E-4,-2.212475613E-2,-6.918043364E-3,2.318946825E-2
1.727834899E0,2.454912523E-3,-2.640080824E-2,-5.696313921E-3,2.711968406E-2
1.730280733E0,3.065777244E-3,-2.823340334E-2,-6.307177711E-3,2.909131391E-2
1.732725785E0,4.287506454E-3,-2.884426713E-2,-6.307177711E-3,2.983546461E-2
1.735170056E0,4.287506454E-3,-3.067686222E-2,-8.139772341E-3,3.202668390E-2
1.737615056E0,4.898371175E-3,-3.189859167E-2,-6.918043364E-3,3.300565883E-2
1.740060941E0,6.120100617E-3,-3.373118490E-2,-8.139772341E-3,3.523498773E-2
1.742505941E0,6.120100617E-3,-3.495291620E-2,-8.750636131E-3,3.654771697E-2
1.744950212E0,6.730965339E-3,-3.617464378E-2,-9.361501783E-3,3.796772923E-2
1.747395264E0,6.730965339E-3,-3.556377813E-2,-9.972365573E-3,3.754379156E-2
1.749841097E0,7.952694781E-3,-3.312032297E-2,-1.119409502E-2,3.585399436E-2
1.752286149E0,8.563559502E-3,-3.250945732E-2,-1.241582446E-2,3.583785797E-2
1.754730420E0,1.039615367E-2,-2.945513278E-2,-1.424841955E-2,3.433223439E-2
1.757175420E0,1.039615367E-2,-2.884426713E-2,-1.363755390E-2,3.355673753E-2
1.759621306E0,9.785288945E-3,-2.456821501E-2,-1.302669011E-2,2.947954755E-2
1.762066358E0,9.174424224E-3,-2.456821501E-2,-1.363755390E-2,2.955926462E-2
1.764510576E0,7.952694781E-3,-2.212475613E-2,-1.363755390E-2,2.717964430E-2
1.766955629E0,7.952694781E-3,-2.151389048E-2,-1.302669011E-2,2.637778408E-2
1.769401462E0,6.730965339E-3,-2.029216290E-2,-1.424841955E-2,2.569231848E-2
1.771846514E0,7.952694781E-3,-2.029216290E-2,-1.302669011E-2,2.539117730E-2
1.774290785E0,9.174424224E-3,-2.090302669E-2,-1.424841955E-2,2.690955303E-2
1.776735837E0,9.785288945E-3,-1.907043159E-2,-1.424841955E-2,2.573811766E-2
1.779181670E0,1.161788311E-2,-2.029216290E-2,-1.302669011E-2,2.676642931E-2
1.781626670E0,1.283961255E-2,-1.723783836E-2,-1.424841955E-2,2.578790766E-2
1.784070941E0,1.283961255E-2,-1.784870401E-2,-1.302669011E-2,2.555634052E-2
1.786515993E0,1.406134106E-2,-2.090302669E-2,-1.180496067E-2,2.782112387E-2
1.788961826E0,1.467220671E-2,-1.968129724E-2,-1.058323123E-2,2.673259984E-2
1.791406879E0,1.467220671E-2,-2.029216290E-2,-7.528907154E-3,2.614823068E-2
1.793851149E0,1.467220671E-2,-2.151389048E-2,-7.528907154E-3,2.710729747E-2
1.796296149E0,1.589393616E-2,-2.273562178E-2,-5.696313921E-3,2.831914011E-2
1.798742035E0,1.650479995E-2,-2.334648557E-2,-5.085448269E-3,2.904012042E-2
1.801187087E0,1.772653125E-2,-2.640080824E-2,-3.863718826E-3,3.203374642E-2
1.803631306E0,1.894825883E-2,-2.823340334E-2,-3.252855036E-3,3.415761471E-2
1.806076358E0,1.833739504E-2,-3.006599844E-2,-2.641989384E-3,3.531578155E-2
1.808522191E0,2.016999014E-2,-3.189859167E-2,-2.031125594E-3,3.779516006E-2
1.810967243E0,1.833739504E-2,-3.495291620E-2,-1.420259941E-3,3.949662703E-2
1.813411514E0,2.139171772E-2,-3.861810267E-2,-1.985309646E-4,4.414751245E-2
1.815856514E0,2.200258337E-2,-3.922896832E-2,-8.093961515E-4,4.498533931E-2
1.818302399E0,2.200258337E-2,-4.167242721E-2,1.023198478E-3,4.713546223E-2
1.820747451E0,2.322431467E-2,-4.289415851E-2,1.023198478E-3,4.878856999E-2
1.823191670E0,2.383517660E-2,-4.350502044E-2,2.244927920E-3,4.965724669E-2
1.825636722E0,2.383517660E-2,-4.533761367E-2,3.466657363E-3,5.133841223E-2
1.828082556E0,2.505690791E-2,-4.594847932E-2,3.466657363E-3,5.245120684E-2
1.830527608E0,2.505690791E-2,-4.594847932E-2,5.299251527E-3,5.260412011E-2
1.832971879E0,2.566777356E-2,-4.778107628E-2,5.910116248E-3,5.456001580E-2
1.835416931E0,2.811123244E-2,-4.839193821E-2,7.742710412E-3,5.649752771E-2
1.837862764E0,2.811123244E-2,-5.022453144E-2,8.964439854E-3,5.825037451E-2
1.840307816E0,2.811123244E-2,-5.083539709E-2,1.079703402E-2,5.908514983E-2
1.842752035E0,2.688950114E-2,-5.266799405E-2,1.324049290E-2,6.059928648E-2
1.845197087E0,2.933296002E-2,-5.327885598E-2,1.507308707E-2,6.265985152E-2
1.847642920E0,2.994382568E-2,-5.388972163E-2,1.568395272E-2,6.361384414E-2
1.850087972E0,3.177642077E-2,-5.450058728E-2,1.629481651E-2,6.515808451E-2
1.852532243E0,3.116555326E-2,-5.450058728E-2,1.629481651E-2,6.486236790E-2
1.854977295E0,3.238728642E-2,-5.388972163E-2,1.812741160E-2,6.543425304E-2
1.857423129E0,3.238728642E-2,-5.511144921E-2,1.690568030E-2,6.612117802E-2
1.859868181E0,3.177642077E-2,-5.450058728E-2,1.690568030E-2,6.531352814E-2
1.862312399E0,3.055469133E-2,-5.450058728E-2,1.629481651E-2,6.457107883E-2
1.864757451E0,2.872209437E-2,-5.327885598E-2,1.568395272E-2,6.252664690E-2
1.867203285E0,2.872209437E-2,-5.205712840E-2,1.507308707E-2,6.133597049E-2
1.869648337E0,2.872209437E-2,-5.083539709E-2,1.446222235E-2,6.015274040E-2
1.872092608E0,2.872209437E-2,-4.961366951E-2,1.262962818E-2,5.870249071E-2
1.874537660E0,2.811123244E-2,-4.594847932E-2,1.324049290E-2,5.546904357E-2
1.876983493E0,2.566777356E-2,-4.289415851E-2,1.201876346E-2,5.141200355E-2
1.879428545E0,2.444604225E-2,-4.167242721E-2,1.324049290E-2,5.009501795E-2
1.881872764E0,2.322431467E-2,-3.922896832E-2,1.140789874E-2,4.699383897E-2
1.884317816E0,2.261344902E-2,-3.922896832E-2,1.018616930E-2,4.641161576E-2
1.886763649E0,2.200258337E-2,-4.106156155E-2,9.575304575E-3,4.755893155E-2
1.889208701E0,2.200258337E-2,-4.167242721E-2,1.079703402E-2,4.834543213E-2
1.891652972E0,2.200258337E-2,-4.289415851E-2,9.575304575E-3,4.914986233E-2
1.894098024E0,2.383517660E-2,-4.350502044E-2,1.018616930E-2,5.064148983E-2
1.896543858E0,2.383517660E-2,-4.533761367E-2,1.140789874E-2,5.247623282E-2
1.898988910E0,2.505690791E-2,-4.594847932E-2,1.324049290E-2,5.398538727E-2
1.901433129E0,2.261344902E-2,-4.411588609E-2,1.385135762E-2,5.147270724E-2
1.903878181E0,2.444604225E-2,-4.350502044E-2,1.324049290E-2,5.162951131E-2
1.906324014E0,2.444604225E-2,-4.106156155E-2,1.385135762E-2,4.975460710E-2
1.908769066E0,2.444604225E-2,-3.983983397E-2,1.385135762E-2,4.875122010E-2
1.911213337E0,2.261344902E-2,-3.922896832E-2,1.324049290E-2,4.717616649E-2
1.913658389E0,2.200258337E-2,-3.922896832E-2,1.262962818E-2,4.671758918E-2
1.916104222E0,2.078085579E-2,-3.922896832E-2,1.201876346E-2,4.599137526E-2
1.918549274E0,2.078085579E-2,-3.983983397E-2,1.262962818E-2,4.667508807E-2
1.920993493E0,2.139171772E-2,-3.922896832E-2,1.201876346E-2,4.627059777E-2
1.923438545E0,2.139171772E-2,-3.922896832E-2,1.018616930E-2,4.582876376E-2
1.925884431E0,1.955912448E-2,-3.922896832E-2,7.742710412E-3,4.451315391E-2
1.928329431E0,2.078085579E-2,-3.800724074E-2,5.299251527E-3,4.364030686E-2
1.930773701E0,2.016999014E-2,-3.739637509E-2,5.299251527E-3,4.281821387E-2
1.933218754E0,2.016999014E-2,-3.739637509E-2,5.910116248E-3,4.289809840E-2
1.935664587E0,2.016999014E-2,-3.617464378E-2,4.688386805E-3,4.168230231E-2
1.938109639E0,2.016999014E-2,-3.189859167E-2,4.077522084E-3,3.796017438E-2
1.940553910E0,1.955912448E-2,-2.945513278E-2,2.855792642E-3,3.547280295E-2
1.942998910E0,1.955912448E-2,-3.006599844E-2,3.466657363E-3,3.603527891E-2
1.945444743E0,1.894825883E-2,-2.823340334E-2,1.634063199E-3,3.404161776E-2
1.947889795E0,1.772653125E-2,-2.517908067E-2,3.466657363E-3,3.098763829E-2
1.950334066E0,1.650479995E-2,-2.212475613E-2,1.634063199E-3,2.765110156E-2
1.952779118E0,1.650479995E-2,-2.212475613E-2,2.855792642E-3,2.775011363E-2
1.955224951E0,1.650479995E-2,-2.029216290E-2,3.466657363E-3,2.638556442E-2
1.957670004E0,1.650479995E-2,-1.845956780E-2,2.855792642E-3,2.492628364E-2
1.960114222E0,1.467220671E-2,-1.845956780E-2,2.855792642E-3,2.375257554E-2
1.962559274E0,1.467220671E-2,-1.968129724E-2,3.466657363E-3,2.479203147E-2
1.965005108E0,1.283961255E-2,-1.723783836E-2,2.244927920E-3,2.161107177E-2
1.967450160E0,1.406134106E-2,-1.662697271E-2,3.466657363E-3,2.204983553E-2
1.969894431E0,1.345047727E-2,-1.540524606E-2,4.688386805E-3,2.098137068E-2
1.972339483E0,1.345047727E-2,-1.479438040E-2,4.688386805E-3,2.053703974E-2
1.974785316E0,1.283961255E-2,-1.296178717E-2,5.910116248E-3,1.917793136E-2
1.977230368E0,1.283961255E-2,-1.112919208E-2,7.131845690E-3,1.842763657E-2
1.979674639E0,1.100701839E-2,-9.296596982E-3,7.131845690E-3,1.607620578E-2
1.982119639E0,1.039615367E-2,-7.464003749E-3,7.131845690E-3,1.465109504E-2
1.984565472E0,1.039615367E-2,-3.187951399E-3,1.018616930E-2,1.489970101E-2
1.987010524E0,9.174424224E-3,-7.444925141E-4,8.964439854E-3,1.284856065E-2
1.989454795E0,9.174424224E-3,1.088104444E-3,7.742710412E-3,1.205419411E-2
1.991899847E0,7.341830060E-3,4.142425023E-3,8.353575133E-3,1.186778712E-2
1.994345681E0,7.952694781E-3,6.585883908E-3,7.131845690E-3,1.254920093E-2
1.996790733E0,7.341830060E-3,6.585883908E-3,8.964439854E-3,1.332807253E-2
1.999235004E0,6.120100617E-3,6.585883908E-3,6.520980969E-3,1.110642567E-2
2.001680004E0,4.898371175E-3,5.975021981E-3,6.520980969E-3,1.011029775E-2
2.004125889E0,4.898371175E-3,7.196749561E-3,6.520980969E-3,1.087706014E-2
2.006570941E0,4.898371175E-3,7.807615213E-3,4.688386805E-3,1.034088325E-2
2.009015160E0,3.676641965E-3,5.364156328E-3,3.466657363E-3,7.369503547E-3
2.011460212E0,4.898371175E-3,4.142425023E-3,4.077522084E-3,7.601309860E-3
2.013906045E0,1.844047802E-3,3.531559603E-3,2.855792642E-3,4.901834059E-3
2.016351097E0,6.223183591E-4,4.772387911E-4,1.634063199E-3,1.812511943E-3
2.018795368E0,6.223183591E-4,1.698966371E-3,1.634063199E-3,2.438017516E-3
2.021240368E0,6.223183591E-4,-1.966220094E-3,-1.985309646E-4,2.071887097E-3
2.023686254E0,-5.994110834E-4,-3.798815189E-3,-1.420259941E-3,4.099686426E-3
2.026131306E0,1.145363785E-5,-6.853138097E-3,-1.420259941E-3,6.998769267E-3
2.028575524E0,-1.210275805E-3,-1.112919208E-2,-3.252855036E-3,1.165781925E-2
2.031020576E0,-2.432005247E-3,-1.357265096E-2,-3.863718826E-3,1.431991015E-2
2.033466410E0,-2.432005247E-3,-1.907043159E-2,-5.696313921E-3,2.005103496E-2
2.035911462E0,-3.042869968E-3,-2.334648557E-2,-5.085448269E-3,2.408690993E-2
2.038355733E0,-1.821140526E-3,-2.517908067E-2,-3.252855036E-3,2.545356010E-2
2.040800785E0,-1.821140526E-3,-2.578994446E-2,-5.696313921E-3,2.647424749E-2
2.043246618E0,-1.210275805E-3,-2.701167390E-2,-5.085448269E-3,2.751285297E-2
2.045691618E0,-1.210275805E-3,-2.762253955E-2,-6.918043364E-3,2.850138212E-2
2.048135889E0,-1.210275805E-3,-2.884426713E-2,-7.528907154E-3,2.983523013E-2
2.050580941E0,-1.821140526E-3,-3.006599844E-2,-6.918043364E-3,3.090534159E-2
2.053026774E0,-5.994110834E-4,-3.006599844E-2,-7.528907154E-3,3.100012901E-2
2.055471826E0,1.145363785E-5,-2.884426713E-2,-6.918043364E-3,2.966228584E-2
2.057916097E0,-5.994110834E-4,-3.006599844E-2,-6.918043364E-3,3.085746068E-2
2.060361149E0,1.145363785E-5,-3.006599844E-2,-7.528907154E-3,3.099433555E-2
2.062806983E0,1.145363785E-5,-2.884426713E-2,-6.307177711E-3,2.952579157E-2
2.065252035E0,6.223183591E-4,-2.884426713E-2,-6.918043364E-3,2.966881107E-2
2.067696254E0,1.233183080E-3,-2.884426713E-2,-6.918043364E-3,2.968790681E-2
2.070141306E0,1.233183080E-3,-2.762253955E-2,-7.528907154E-3,2.865675967E-2
2.072587139E0,1.233183080E-3,-2.578994446E-2,-5.085448269E-3,2.631546617E-2
2.075032191E0,1.844047802E-3,-2.517908067E-2,-6.307177711E-3,2.602243467E-2
2.077476462E0,2.454912523E-3,-2.212475613E-2,-5.085448269E-3,2.283403629E-2
2.079921514E0,3.065777244E-3,-1.968129724E-2,-5.085448269E-3,2.055758340E-2
2.082367347E0,3.065777244E-3,-1.784870401E-2,-4.474584479E-3,1.865468121E-2
2.084812399E0,2.454912523E-3,-1.479438040E-2,-4.474584479E-3,1.564999020E-2
2.087256618E0,3.676641965E-3,-1.051832829E-2,-5.085448269E-3,1.224804924E-2
2.089701670E0,5.509235896E-3,-9.296596982E-3,-3.252855036E-3,1.128536492E-2
2.092147504E0,4.898371175E-3,-7.464003749E-3,-2.031125594E-3,9.155919578E-3
2.094592556E0,6.730965339E-3,-4.409679212E-3,-2.031125594E-3,8.299194920E-3
2.097036826E0,6.730965339E-3,-3.798815189E-3,-3.252855036E-3,8.385580309E-3
2.099481879E0,6.730965339E-3,-2.577085746E-3,-2.641989384E-3,7.676416693E-3
2.101927712E0,7.341830060E-3,-1.355358167E-3,-1.420259941E-3,7.599776489E-3
2.104372764E0,6.120100617E-3,-1.336268615E-4,-1.420259941E-3,6.284156746E-3
2.106816983E0,6.120100617E-3,2.309832023E-3,-2.641989384E-3,7.054860980E-3
2.109262035E0,6.730965339E-3,4.142425023E-3,-2.031125594E-3,8.160333978E-3
2.111707868E0,6.730965339E-3,2.920697676E-3,-8.093961515E-4,7.381835235E-3
2.114152920E0,7.341830060E-3,4.753290676E-3,-8.093961515E-4,8.783584861E-3
2.116597191E0,6.120100617E-3,5.364156328E-3,4.123337567E-4,8.148608704E-3
2.119042243E0,6.120100617E-3,5.975021981E-3,-1.985309646E-4,8.555462219E-3
2.121488076E0,6.120100617E-3,5.364156328E-3,-1.985309646E-4,8.140590840E-3
2.123933129E0,6.120100617E-3,4.753290676E-3,-1.985309646E-4,7.751697773E-3
2.126377347E0,7.341830060E-3,4.142425023E-3,4.123337567E-4,8.439915451E-3
2.128822399E0,7.952694781E-3,3.531559603E-3,-1.985309646E-4,8.703831458E-3
2.131268233E0,7.952694781E-3,2.309832023E-3,-8.093961515E-4,8.320805273E-3
2.133713285E0,7.952694781E-3,3.531559603E-3,-8.093961515E-4,8.739129799E-3
2.136157556E0,8.563559502E-3,4.753290676E-3,4.123337567E-4,9.802976218E-3
2.138602608E0,7.952694781E-3,2.309832023E-3,-8.093961515E-4,8.320805273E-3
2.141048441E0,7.341830060E-3,2.920697676E-3,-2.031125594E-3,8.158334065E-3
2.143493493E0,7.952694781E-3,4.142425023E-3,-1.420259941E-3,9.078666072E-3
2.145937712E0,7.341830060E-3,2.920697676E-3,-2.031125594E-3,8.158334065E-3
2.148382764E0,7.341830060E-3,1.698966371E-3,-2.641989384E-3,7.985553410E-3
2.150828597E0,7.341830060E-3,4.772387911E-4,-3.252855036E-3,8.044332874E-3
2.153273649E0,6.120100617E-3,-7.444925141E-4,-4.474584479E-3,7.617861047E-3
2.155717920E0,5.509235896E-3,-2.577085746E-3,-5.085448269E-3,7.928104136E-3
2.158162972E0,5.509235896E-3,-5.631410517E-3,-4.474584479E-3,9.060152914E-3
2.160608806E0,4.287506454E-3,-8.074869402E-3,-5.085448269E-3,1.046174037E-2
2.163053858E0,4.287506454E-3,-9.296596982E-3,-6.307177711E-3,1.202455478E-2
2.165498076E0,5.509235896E-3,-1.174005587E-2,-6.918043364E-3,1.469829636E-2
2.167943129E0,3.676641965E-3,-1.357265096E-2,-7.528907154E-3,1.595051702E-2
2.170388962E0,3.676641965E-3,-1.662697271E-2,-6.307177711E-3,1.815914117E-2
2.172834014E0,3.065777244E-3,-1.907043159E-2,-6.307177711E-3,2.031897738E-2
2.175278285E0,2.454912523E-3,-1.968129724E-2,-6.307177711E-3,2.081250940E-2
2.177723337E0,3.065777244E-3,-2.212475613E-2,-5.696313921E-3,2.305106974E-2
2.180169170E0,1.233183080E-3,-2.456821501E-2,-5.696313921E-3,2.525006776E-2
2.182614222E0,1.844047802E-3,-2.517908067E-2,-5.696313921E-3,2.588116318E-2
2.185058493E0,1.844047802E-3,-2.578994446E-2,-5.085448269E-3,2.635115807E-2
2.187503493E0,1.233183080E-3,-2.762253955E-2,-3.863718826E-3,2.791869902E-2
2.189949326E0,1.844047802E-3,-2.762253955E-2,-3.863718826E-3,2.795234385E-2
2.192394379E0,6.223183591E-4,-2.823340334E-2,-2.031125594E-3,2.831320920E-2
2.194838649E0,2.454912523E-3,-2.823340334E-2,-3.252855036E-3,2.852600087E-2
2.197283701E0,1.844047802E-3,-2.823340334E-2,-1.420259941E-3,2.832918486E-2
2.199729535E0,3.676641965E-3,-2.640080824E-2,-1.985309646E-4,2.665632733E-2
2.202174587E0,2.454912523E-3,-2.640080824E-2,-1.985309646E-4,2.651544241E-2
2.204618806E0,3.065777244E-3,-2.212475613E-2,-1.985309646E-4,2.233703737E-2
2.207063858E0,3.676641965E-3,-1.968129724E-2,-1.985309646E-4,2.002275136E-2
2.209509691E0,2.454912523E-3,-1.479438040E-2,1.023198478E-3,1.503154091E-2
2.211954743E0,3.676641965E-3,-9.907462634E-3,1.023198478E-3,1.061708280E-2
2.214399014E0,2.454912523E-3,-6.853138097E-3,1.023198478E-3,7.351124566E-3
2.216844066E0,2.454912523E-3,-2.577085746E-3,2.855792642E-3,4.563279309E-3
2.219289899E0,2.454912523E-3,-7.444925141E-4,3.466657363E-3,4.312606853E-3
2.221734951E0,3.065777244E-3,2.309832023E-3,1.634063199E-3,4.171867283E-3
2.224179222E0,1.844047802E-3,2.309832023E-3,1.634063199E-3,3.377276833E-3
2.226624274E0,1.844047802E-3,4.142425023E-3,2.244927920E-3,5.059634249E-3
2.229070108E0,1.233183080E-3,5.364156328E-3,2.855792642E-3,6.200843913E-3
2.231515108E0,2.454912523E-3,5.975021981E-3,2.244927920E-3,6.838653708E-3
2.233959379E0,3.676641965E-3,7.807615213E-3,2.855792642E-3,9.090220188E-3
2.236404431E0,3.676641965E-3,7.196749561E-3,4.688386805E-3,9.343011892E-3
2.238850264E0,3.065777244E-3,7.807615213E-3,5.299251527E-3,9.921688978E-3
2.241295316E0,3.065777244E-3,7.196749561E-3,4.688386805E-3,9.119932301E-3
2.243739587E0,3.676641965E-3,5.364156328E-3,4.688386805E-3,8.017034370E-3
2.246184639E0,3.065777244E-3,5.975021981E-3,5.910116248E-3,8.945912577E-3
2.248630472E0,1.233183080E-3,4.753290676E-3,6.520980969E-3,8.163192118E-3
2.251075524E0,3.676641965E-3,3.531559603E-3,5.910116248E-3,7.805067805E-3
2.253519743E0,5.509235896E-3,2.920697676E-3,5.299251527E-3,8.183166980E-3
2.255964795E0,4.287506454E-3,3.531559603E-3,7.131845690E-3,9.039792463E-3
2.258410629E0,4.898371175E-3,1.698966371E-3,5.910116248E-3,7.861933665E-3
2.260855681E0,6.120100617E-3,1.698966371E-3,5.910116248E-3,8.675920260E-3
2.263299951E0,4.898371175E-3,1.088104444E-3,5.299251527E-3,7.297950273E-3
2.265745004E0,4.898371175E-3,-1.336268615E-4,4.077522084E-3,6.374800597E-3
2.268190837E0,6.120100617E-3,-1.966220094E-3,5.299251527E-3,8.330889494E-3
2.270635889E0,6.730965339E-3,-3.187951399E-3,3.466657363E-3,8.215025367E-3
2.273080108E0,5.509235896E-3,-3.798815189E-3,2.244927920E-3,7.058496891E-3
2.275525160E0,5.509235896E-3,-5.631410517E-3,1.634063199E-3,8.045783188E-3
2.277970993E0,5.509235896E-3,-5.020544864E-3,1.634063199E-3,7.630708580E-3
2.280416045E0,7.952694781E-3,-5.020544864E-3,1.023198478E-3,9.460346724E-3
2.282860316E0,3.676641965E-3,-6.853138097E-3,-8.093961515E-4,7.819099695E-3
2.285305368E0,9.174424224E-3,-6.242274307E-3,-1.420259941E-3,1.118718851E-2
2.287751201E0,3.065777244E-3,-1.112919208E-2,-2.031125594E-3,1.172106555E-2
2.290196254E0,7.341830060E-3,-1.051832829E-2,-2.031125594E-3,1.298703853E-2
2.292640472E0,4.287506454E-3,-1.174005587E-2,-2.031125594E-3,1.266242846E-2
2.295085524E0,6.120100617E-3,-1.112919208E-2,-3.863718826E-3,1.327564955E-2
2.297531358E0,4.287506454E-3,-1.479438040E-2,-2.031125594E-3,1.553646917E-2
2.299976410E0,2.454912523E-3,-1.418351475E-2,-2.641989384E-3,1.463484862E-2
2.302420681E0,4.287506454E-3,-1.540524606E-2,-2.031125594E-3,1.611923661E-2
2.304865733E0,1.844047802E-3,-1.723783836E-2,-2.031125594E-3,1.745477169E-2
2.307311566E0,6.120100617E-3,-1.662697271E-2,-8.093961515E-4,1.773603606E-2
2.309756618E0,2.454912523E-3,-2.029216290E-2,-8.093961515E-4,2.045613826E-2
2.312200837E0,6.120100617E-3,-1.784870401E-2,-8.093961515E-4,1.888615865E-2
2.314645889E0,4.898371175E-3,-1.907043159E-2,-8.093961515E-4,1.970610371E-2
2.317091722E0,6.120100617E-3,-1.907043159E-2,4.123337567E-4,2.003264864E-2
2.319536774E0,6.120100617E-3,-1.907043159E-2,1.634063199E-3,2.009495347E-2
2.321981045E0,5.509235896E-3,-1.907043159E-2,-1.985309646E-4,1.985125829E-2
2.324426097E0,6.120100617E-3,-1.845956780E-2,4.123337567E-4,1.945202545E-2
2.326871931E0,3.065777244E-3,-1.845956780E-2,1.023198478E-3,1.874037269E-2
2.329316983E0,7.341830060E-3,-1.723783836E-2,1.634063199E-3,1.880733108E-2
2.331761201E0,3.676641965E-3,-1.845956780E-2,1.023198478E-3,1.884994097E-2
2.334206254E0,7.341830060E-3,-1.540524606E-2,1.023198478E-3,1.709593548E-2
2.336652087E0,3.676641965E-3,-1.540524606E-2,1.634063199E-3,1.592198055E-2
2.339097139E0,6.120100617E-3,-1.296178717E-2,-1.985309646E-4,1.433537487E-2
2.341541410E0,4.898371175E-3,-1.235092152E-2,-8.093961515E-4,1.331143962E-2
2.343986462E0,4.287506454E-3,-9.296596982E-3,4.123337567E-4,1.024594779E-2
2.346432295E0,6.730965339E-3,-6.242274307E-3,-1.985309646E-4,9.182118353E-3
2.348877347E0,2.454912523E-3,-3.798815189E-3,-1.420259941E-3,4.740752117E-3
2.351321566E0,6.120100617E-3,-1.336268615E-4,-1.985309646E-4,6.124777731E-3
2.353766618E0,3.065777244E-3,1.088104444E-3,-8.093961515E-4,3.352325092E-3
2.356212451E0,5.509235896E-3,3.531559603E-3,-1.985309646E-4,6.546984644E-3
2.358657504E0,1.844047802E-3,1.698966371E-3,1.023198478E-3,2.708123732E-3
2.361101774E0,4.287506454E-3,4.142425023E-3,-1.985309646E-4,5.965049137E-3
2.363546826E0,3.065777244E-3,4.772387911E-4,4.123337567E-4,3.129978610E-3
2.365992660E0,3.065777244E-3,4.772387911E-4,4.123337567E-4,3.129978610E-3
2.368437712E0,4.898371175E-3,-1.336268615E-4,1.634063199E-3,5.165467921E-3
2.370881983E0,2.454912523E-3,-1.966220094E-3,1.634063199E-3,3.544401147E-3
2.373326983E0,3.676641965E-3,-3.187951399E-3,2.855792642E-3,5.642364919E-3
2.375772868E0,4.287506454E-3,-4.409679212E-3,4.077522084E-3,7.379306789E-3
2.378217868E0,4.287506454E-3,-4.409679212E-3,4.688386805E-3,7.733624841E-3
2.380662139E0,4.287506454E-3,-5.631410517E-3,4.688386805E-3,8.489786030E-3
2.383107191E0,3.676641965E-3,-6.242274307E-3,5.910116248E-3,9.349500453E-3
2.385553024E0,2.454912523E-3,-8.685733192E-3,5.910116248E-3,1.078879190E-2
2.387998076E0,3.676641965E-3,-9.907462634E-3,7.742710412E-3,1.310057543E-2
2.390442347E0,3.676641965E-3,-1.174005587E-2,6.520980969E-3,1.392371361E-2
2.392887347E0,2.454912523E-3,-1.479438040E-2,5.910116248E-3,1.611923575E-2
2.395333233E0,2.454912523E-3,-1.662697271E-2,5.299251527E-3,1.762285118E-2
2.397778233E0,1.844047802E-3,-1.907043159E-2,4.688386805E-3,1.972467602E-2
2.400222504E0,1.844047802E-3,-2.090302669E-2,4.077522084E-3,2.137669814E-2
2.402667556E0,3.065777244E-3,-2.334648557E-2,5.910116248E-3,2.427729088E-2
2.405113389E0,3.065777244E-3,-2.517908067E-2,4.688386805E-3,2.579469062E-2
2.407558441E0,3.065777244E-3,-2.578994446E-2,4.688386805E-3,2.639130910E-2
2.410002712E0,2.454912523E-3,-2.640080824E-2,4.077522084E-3,2.682639480E-2
2.412447712E0,2.454912523E-3,-2.701167390E-2,3.466657363E-3,2.734364342E-2
2.414893597E0,3.065777244E-3,-2.578994446E-2,2.855792642E-3,2.612806492E-2
2.417338597E0,3.065777244E-3,-2.578994446E-2,3.466657363E-3,2.620186899E-2
2.419782868E0,3.065777244E-3,-2.578994446E-2,2.855792642E-3,2.612806492E-2
2.422227920E0,3.676641965E-3,-2.517908067E-2,1.023198478E-3,2.546665927E-2
2.424673754E0,3.065777244E-3,-2.517908067E-2,1.023198478E-3,2.538566581E-2
2.427118806E0,4.287506454E-3,-2.456821501E-2,4.123337567E-4,2.494293326E-2
2.429563076E0,2.454912523E-3,-2.212475613E-2,-1.420259941E-3,2.230579672E-2
2.432008129E0,3.065777244E-3,-1.968129724E-2,-2.641989384E-3,2.009309730E-2
2.434453962E0,3.065777244E-3,-1.845956780E-2,-2.031125594E-3,1.882232995E-2
2.436899014E0,3.065777244E-3,-1.479438040E-2,-2.641989384E-3,1.533795259E-2
2.439343233E0,1.844047802E-3,-1.357265096E-2,-3.252855036E-3,1.407829650E-2
2.441788285E0,1.844047802E-3,-1.235092152E-2,-3.863718826E-3,1.307188195E-2
2.444234118E0,3.676641965E-3,-1.051832829E-2,-4.474584479E-3,1.200728247E-2
2.446679170E0,3.065777244E-3,-9.907462634E-3,-5.085448269E-3,1.155069652E-2
2.449123441E0,2.454912523E-3,-8.074869402E-3,-5.696313921E-3,1.018224453E-2
2.451568493E0,1.233183080E-3,-6.853138097E-3,-5.085448269E-3,8.622530161E-3
2.454014326E0,3.065777244E-3,-6.242274307E-3,-3.863718826E-3,7.955708755E-3
2.456459379E0,3.065777244E-3,-4.409679212E-3,-3.252855036E-3,6.278959050E-3
2.458903597E0,3.065777244E-3,-3.187951399E-3,-3.863718826E-3,5.872848321E-3
2.461348649E0,3.065777244E-3,-3.187951399E-3,-2.031125594E-3,4.866980112E-3
2.463794483E0,2.454912523E-3,4.772387911E-4,-2.031125594E-3,3.221773353E-3
2.466239535E0,3.676641965E-3,1.698966371E-3,-1.420259941E-3,4.292006660E-3
2.468683806E0,1.844047802E-3,2.920697676E-3,-2.031125594E-3,4.007051084E-3
2.471128858E0,2.454912523E-3,4.142425023E-3,-8.093961515E-4,4.882765886E-3
2.473574691E0,2.454912523E-3,5.364156328E-3,-2.031125594E-3,6.239089660E-3
2.476019743E0,3.676641965E-3,4.142425023E-3,-8.093961515E-4,5.597544403E-3
2.478463962E0,2.454912523E-3,4.753290676E-3,-1.985309646E-4,5.353483192E-3
2.480909014E0,1.844047802E-3,2.920697676E-3,4.123337567E-4,3.478650074E-3
2.483354847E0,6.223183591E-4,2.309832023E-3,1.634063199E-3,2.897027210E-3
2.485799899E0,1.844047802E-3,1.088104444E-3,1.023198478E-3,2.373061040E-3
2.488244170E0,3.065777244E-3,4.772387911E-4,2.244927920E-3,3.829679927E-3
2.490689222E0,2.454912523E-3,-1.336268615E-4,1.634063199E-3,2.952052535E-3
2.493135056E0,2.454912523E-3,4.772387911E-4,1.023198478E-3,2.702089466E-3
2.495580108E0,2.454912523E-3,4.772387911E-4,1.634063199E-3,2.987392659E-3
2.498024326E0,1.233183080E-3,1.698966371E-3,1.634063199E-3,2.660336403E-3
2.500469379E0,1.233183080E-3,2.920697676E-3,4.123337567E-4,3.197066554E-3
2.502915212E0,1.844047802E-3,4.753290676E-3,4.123337567E-4,5.115105441E-3
2.505360264E0,6.223183591E-4,5.364156328E-3,-1.985309646E-4,5.403782730E-3
2.507804535E0,1.145363785E-5,6.585883908E-3,-1.420259941E-3,6.737294437E-3
2.510249587E0,-5.994110834E-4,5.364156328E-3,-1.420259941E-3,5.581272710E-3
2.512695420E0,-1.210275805E-3,5.975021981E-3,-3.252855036E-3,6.909900222E-3
2.515140472E0,-1.821140526E-3,5.364156328E-3,-3.252855036E-3,6.532364948E-3
2.517584691E0,-5.994110834E-4,5.364156328E-3,-3.252855036E-3,6.301946735E-3
2.520029743E0,1.145363785E-5,4.753290676E-3,-3.252855036E-3,5.759771638E-3
2.522475576E0,1.145363785E-5,4.142425023E-3,-2.641989384E-3,4.913239681E-3
2.524920629E0,1.145363785E-5,2.920697676E-3,-2.641989384E-3,3.938364382E-3
2.527364899E0,6.223183591E-4,1.088104444E-3,-3.252855036E-3,3.486017399E-3
2.529809951E0,1.233183080E-3,-3.187951399E-3,-2.031125594E-3,3.976084231E-3
2.532255785E0,1.233183080E-3,-5.631410517E-3,-2.031125594E-3,6.112200594E-3
2.534700837E0,6.223183591E-4,-5.020544864E-3,-2.641989384E-3,5.707298729E-3
2.537145056E0,2.454912523E-3,-8.685733192E-3,-1.420259941E-3,9.137050666E-3
2.539590108E0,1.233183080E-3,-9.296596982E-3,-1.985309646E-4,9.380131688E-3
2.542035941E0,3.065777244E-3,-1.112919208E-2,4.123337567E-4,1.155110062E-2
2.544480993E0,2.454912523E-3,-1.235092152E-2,1.023198478E-3,1.263403312E-2
2.546925264E0,2.454912523E-3,-1.296178717E-2,2.244927920E-3,1.338186174E-2
2.549370316E0,1.844047802E-3,-1.357265096E-2,3.466657363E-3,1.412922785E-2
2.551816149E0,1.844047802E-3,-1.357265096E-2,4.077522084E-3,1.429138037E-2
2.554261201E0,1.844047802E-3,-1.540524606E-2,4.077522084E-3,1.604207919E-2
2.556705420E0,2.454912523E-3,-1.540524606E-2,4.688386805E-3,1.628892791E-2
2.559150472E0,3.676641965E-3,-1.479438040E-2,4.688386805E-3,1.594905510E-2
2.561596306E0,4.898371175E-3,-1.479438040E-2,4.688386805E-3,1.627417287E-2
2.564041358E0,4.898371175E-3,-1.601610892E-2,4.688386805E-3,1.739226138E-2
2.566485629E0,4.287506454E-3,-1.723783836E-2,3.466657363E-3,1.809816278E-2
2.568930681E0,4.898371175E-3,-1.601610892E-2,4.688386805E-3,1.739226138E-2
2.571376514E0,4.287506454E-3,-1.540524606E-2,5.299251527E-3,1.684596048E-2
2.573821566E0,4.287506454E-3,-1.662697271E-2,5.910116248E-3,1.815952662E-2
2.576265837E0,3.676641965E-3,-1.418351475E-2,4.077522084E-3,1.520907536E-2
2.578710837E0,2.454912523E-3,-1.418351475E-2,4.077522084E-3,1.496077781E-2
2.581156722E0,2.454912523E-3,-1.418351475E-2,5.299251527E-3,1.533886413E-2
2.583601722E0,3.676641965E-3,-1.418351475E-2,4.688386805E-3,1.538410731E-2
2.586045993E0,1.233183080E-3,-1.479438040E-2,5.299251527E-3,1.576313734E-2
2.588491045E0,1.233183080E-3,-1.479438040E-2,4.077522084E-3,1.539547396E-2
2.590936879E0,1.233183080E-3,-1.479438040E-2,4.077522084E-3,1.539547396E-2
2.593381931E0,1.844047802E-3,-1.540524606E-2,5.299251527E-3,1.639524886E-2
2.595826201E0,1.233183080E-3,-1.662697271E-2,2.244927920E-3,1.682309910E-2
2.598271201E0,6.223183591E-4,-1.723783836E-2,2.244927920E-3,1.739454089E-2
2.600717087E0,1.233183080E-3,-1.784870401E-2,1.634063199E-3,1.796572119E-2
2.603162087E0,1.233183080E-3,-2.029216290E-2,2.244927920E-3,2.045317376E-2
2.605606358E0,6.223183591E-4,-1.907043159E-2,1.023198478E-3,1.910799771E-2
2.608051410E0,-5.994110834E-4,-1.907043159E-2,1.634063199E-3,1.914969496E-2
2.610497243E0,1.145363785E-5,-1.662697271E-2,1.023198478E-3,1.665842993E-2
2.612942295E0,1.145363785E-5,-1.479438040E-2,-1.985309646E-4,1.479571686E-2
2.615386566E0,-5.994110834E-4,-1.357265096E-2,-8.093961515E-4,1.360996950E-2
2.617831566E0,1.145363785E-5,-1.112919208E-2,-2.031125594E-3,1.131302429E-2
2.620277451E0,1.844047802E-3,-9.296596982E-3,-2.641989384E-3,9.839071889E-3
2.622722504E0,1.145363785E-5,-8.074869402E-3,-5.085448269E-3,9.542820921E-3
2.625166722E0,-5.994110834E-4,-7.464003749E-3,-4.474584479E-3,8.723104486E-3
2.627611774E0,-1.210275805E-3,-6.242274307E-3,-5.696313921E-3,8.536905079E-3
2.630057608E0,1.145363785E-5,-6.853138097E-3,-7.528907154E-3,1.018086813E-2
2.632502660E0,6.223183591E-4,-8.074869402E-3,-6.307177711E-3,1.026505171E-2
2.634946931E0,6.223183591E-4,-8.685733192E-3,-6.918043364E-3,1.112153610E-2
2.637391983E0,1.145363785E-5,-9.296596982E-3,-8.139772341E-3,1.235648576E-2
2.639837816E0,1.233183080E-3,-9.907462634E-3,-9.361501783E-3,1.368635350E-2
2.642282868E0,1.233183080E-3,-1.174005587E-2,-8.139772341E-3,1.433895205E-2
2.644727087E0,2.454912523E-3,-1.235092152E-2,-8.139772341E-3,1.499425729E-2
2.647172139E0,1.844047802E-3,-1.296178717E-2,-7.528907154E-3,1.510274418E-2
2.649617972E0,1.844047802E-3,-1.418351475E-2,-7.528907154E-3,1.616344784E-2
2.652063024E0,3.065777244E-3,-1.601610892E-2,-7.528907154E-3,1.796104612E-2
2.654507295E0,6.223183591E-4,-1.662697271E-2,-7.528907154E-3,1.826274745E-2
2.656952347E0,1.844047802E-3,-1.784870401E-2,-6.307177711E-3,1.901991687E-2
2.659398181E0,1.233183080E-3,-1.968129724E-2,-5.696313921E-3,2.052613441E-2
2.661843233E0,3.065777244E-3,-1.907043159E-2,-6.307177711E-3,2.031897738E-2
2.664287451E0,1.233183080E-3,-1.845956780E-2,-5.696313921E-3,1.935779885E-2
2.666732504E0,1.844047802E-3,-1.662697271E-2,-5.696313921E-3,1.767214548E-2
2.669178337E0,3.065777244E-3,-1.479438040E-2,-4.474584479E-3,1.575736615E-2
2.671623389E0,1.844047802E-3,-1.357265096E-2,-5.696313921E-3,1.483460005E-2
2.674067660E0,6.223183591E-4,-1.174005587E-2,-6.307177711E-3,1.334153974E-2
2.676512712E0,1.145363785E-5,-8.685733192E-3,-6.307177711E-3,1.073417826E-2
2.678958545E0,-5.994110834E-4,-6.853138097E-3,-6.918043364E-3,9.756234899E-3
2.681403597E0,1.145363785E-5,-5.020544864E-3,-6.307177711E-3,8.061420011E-3
2.683847816E0,1.145363785E-5,-3.798815189E-3,-7.528907154E-3,8.433004859E-3
2.686292868E0,-1.821140526E-3,-2.577085746E-3,-9.361501783E-3,9.879050531E-3
2.688738701E0,-1.821140526E-3,-1.355358167E-3,-9.972365573E-3,1.022749352E-2
2.691183754E0,-2.432005247E-3,4.772387911E-4,-9.972365573E-3,1.027572292E-2
2.693628024E0,-3.042869968E-3,1.088104444E-3,-1.058323123E-2,1.106561395E-2
2.696073076E0,-3.653734690E-3,4.142425023E-3,-9.972365573E-3,1.139989199E-2
2.698518910E0,-4.875464365E-3,4.753290676E-3,-1.119409502E-2,1.310235430E-2
2.700963962E0,-3.653734690E-3,5.975021981E-3,-9.361501783E-3,1.169138061E-2
2.703408181E0,-4.264599644E-3,6.585883908E-3,-9.972365573E-3,1.268892242E-2
2.705853233E0,-5.486329086E-3,5.975021981E-3,-9.361501783E-3,1.238702588E-2
2.708299066E0,-7.929787971E-3,7.196749561E-3,-8.750636131E-3,1.382925790E-2
2.710744118E0,-6.708058529E-3,4.142425023E-3,-8.750636131E-3,1.177842804E-2
2.713188389E0,-7.318923250E-3,3.531559603E-3,-9.361501783E-3,1.239662319E-2
2.715633441E0,-7.318923250E-3,1.088104444E-3,-6.918043364E-3,1.012965610E-2
2.718079274E0,-9.151517414E-3,-1.336268615E-4,-8.750636131E-3,1.266261268E-2
2.720524326E0,-8.540652692E-3,-1.355358167E-3,-7.528907154E-3,1.146578332E-2
2.722968545E0,-1.037324686E-2,-1.355358167E-3,-6.918043364E-3,1.254195240E-2
2.725413597E0,-1.037324686E-2,-3.798815189E-3,-6.307177711E-3,1.272068150E-2
2.727859431E0,-9.762382135E-3,-5.020544864E-3,-6.918043364E-3,1.297571962E-2
2.730304483E0,-9.762382135E-3,-3.187951399E-3,-7.528907154E-3,1.273387537E-2
2.732748754E0,-1.037324686E-2,-2.577085746E-3,-5.696313921E-3,1.211171390E-2
2.735193806E0,-1.037324686E-2,-2.577085746E-3,-5.696313921E-3,1.211171390E-2
2.737639639E0,-9.762382135E-3,-1.355358167E-3,-6.918043364E-3,1.204161221E-2
2.740084691E0,-1.037324686E-2,-7.444925141E-4,-6.918043364E-3,1.249071028E-2
2.742528962E0,-1.098411158E-2,1.088104444E-3,-6.918043364E-3,1.302666505E-2
2.744973962E0,-1.037324686E-2,3.531559603E-3,-8.139772341E-3,1.365035008E-2
2.747419795E0,-1.159497630E-2,4.753290676E-3,-9.361501783E-3,1.564208948E-2
2.749864847E0,-1.220584102E-2,5.975021981E-3,-9.972365573E-3,1.685620117E-2
2.752309118E0,-1.159497630E-2,4.753290676E-3,-1.180496067E-2,1.721610711E-2
2.754754170E0,-1.159497630E-2,4.142425023E-3,-1.180496067E-2,1.705755718E-2
2.757200004E0,-1.159497630E-2,2.920697676E-3,-1.363755390E-2,1.813716700E-2
2.759645056E0,-1.098411158E-2,4.142425023E-3,-1.424841955E-2,1.846152356E-2
2.762089326E0,-1.159497630E-2,2.309832023E-3,-1.424841955E-2,1.851475787E-2
2.764534326E0,-1.098411158E-2,3.531559603E-3,-1.547014900E-2,1.929891526E-2
2.766980212E0,-9.151517414E-3,3.531559603E-3,-1.547014900E-2,1.831796097E-2
2.769425212E0,-1.098411158E-2,4.142425023E-3,-1.669187844E-2,2.040659692E-2
2.771869483E0,-9.762382135E-3,4.142425023E-3,-1.730274409E-2,2.029405684E-2
2.774314535E0,-9.151517414E-3,4.142425023E-3,-1.669187844E-2,1.948149794E-2
2.776760368E0,-9.762382135E-3,2.920697676E-3,-1.547014900E-2,1.852458069E-2
2.779205420E0,-8.540652692E-3,2.309832023E-3,-1.608101279E-2,1.835421054E-2
2.781649691E0,-8.540652692E-3,4.753290676E-3,-1.669187844E-2,1.934309506E-2
2.784094691E0,-8.540652692E-3,2.920697676E-3,-1.608101279E-2,1.844104649E-2
2.786540576E0,-7.929787971E-3,2.309832023E-3,-1.669187844E-2,1.862352456E-2
2.788985629E0,-9.151517414E-3,2.920697676E-3,-1.608101279E-2,1.873178363E-2
2.791429847E0,-9.762382135E-3,4.772387911E-4,-1.547014900E-2,1.829910850E-2
2.793874899E0,-1.098411158E-2,1.088104444E-3,-1.485928334E-2,1.851034791E-2
2.796320733E0,-9.151517414E-3,-1.336268615E-4,-1.669187844E-2,1.903646325E-2
2.798765785E0,-9.151517414E-3,-1.355358167E-3,-1.608101279E-2,1.855225698E-2
2.801210056E0,-9.762382135E-3,-1.966220094E-3,-1.547014900E-2,1.839825090E-2
2.803655108E0,-7.929787971E-3,-3.187951399E-3,-1.485928334E-2,1.714184567E-2
2.806100941E0,-7.929787971E-3,-1.355358167E-3,-1.608101279E-2,1.798103182E-2
2.808545993E0,-7.929787971E-3,-1.355358167E-3,-1.669187844E-2,1.852936423E-2
2.810990212E0,-8.540652692E-3,-1.355358167E-3,-1.485928334E-2,1.719238336E-2
2.813435264E0,-8.540652692E-3,-7.444925141E-4,-1.485928334E-2,1.715503771E-2
2.815881097E0,-8.540652692E-3,-1.355358167E-3,-1.485928334E-2,1.719238336E-2
2.818326149E0,-8.540652692E-3,-1.336268615E-4,-1.547014900E-2,1.767161890E-2
2.820770420E0,-1.098411158E-2,-1.336268615E-4,-1.485928334E-2,1.847882206E-2
2.823215472E0,-9.151517414E-3,4.772387911E-4,-1.363755390E-2,1.643048704E-2
2.825661306E0,-9.151517414E-3,-1.336268615E-4,-1.424841955E-2,1.693474496E-2
2.828106358E0,-9.151517414E-3,1.088104444E-3,-1.424841955E-2,1.696913970E-2
2.830550576E0,-1.037324686E-2,-7.444925141E-4,-1.424841955E-2,1.764018082E-2
2.832995629E0,-9.762382135E-3,-1.336268615E-4,-1.424841955E-2,1.727250476E-2
2.835441462E0,-1.098411158E-2,-2.577085746E-3,-1.241582446E-2,1.677631590E-2
2.837886514E0,-1.037324686E-2,-7.444925141E-4,-1.363755390E-2,1.715055089E-2
2.840330785E0,-1.098411158E-2,-1.966220094E-3,-1.363755390E-2,1.762099898E-2
2.842775837E0,-1.037324686E-2,-2.577085746E-3,-1.363755390E-2,1.732710298E-2
2.845221670E0,-1.037324686E-2,-4.409679212E-3,-1.302669011E-2,1.722626414E-2
2.847666722E0,-1.037324686E-2,-2.577085746E-3,-1.302669011E-2,1.685052748E-2
2.850110941E0,-1.037324686E-2,-1.336268615E-4,-1.302669011E-2,1.665283044E-2
2.852555993E0,-9.762382135E-3,-1.336268615E-4,-1.119409502E-2,1.485360981E-2
2.855001826E0,-9.762382135E-3,-1.336268615E-4,-9.972365573E-3,1.395600359E-2
2.857446879E0,-1.037324686E-2,4.772387911E-4,-1.058323123E-2,1.482689416E-2
2.859891149E0,-1.098411158E-2,3.531559603E-3,-1.058323123E-2,1.565654507E-2
2.862336201E0,-1.037324686E-2,8.418477140E-3,-1.058323123E-2,1.704346769E-2
2.864782035E0,-1.098411158E-2,8.418477140E-3,-9.972365573E-3,1.705782928E-2
2.867227087E0,-1.098411158E-2,9.029342793E-3,-9.972365573E-3,1.736743543E-2
2.869671306E0,-9.762382135E-3,8.418477140E-3,-9.972365573E-3,1.629794274E-2
2.872116358E0,-9.762382135E-3,9.029342793E-3,-1.058323123E-2,1.699523225E-2
2.874562191E0,-1.037324686E-2,7.196749561E-3,-1.058323123E-2,1.647429020E-2
2.877007243E0,-1.098411158E-2,7.807615213E-3,-1.241582446E-2,1.832381673E-2
2.879451514E0,-1.098411158E-2,4.753290676E-3,-1.180496067E-2,1.681075774E-2
2.881896566E0,-1.098411158E-2,4.142425023E-3,-1.241582446E-2,1.708692744E-2
2.884342399E0,-1.159497630E-2,2.309832023E-3,-1.180496067E-2,1.670736053E-2
2.886787451E0,-1.220584102E-2,1.088104444E-3,-1.180496067E-2,1.701539370E-2
2.889231670E0,-1.159497630E-2,-7.444925141E-4,-1.302669011E-2,1.745544040E-2
2.891676722E0,-1.220584102E-2,-1.336268615E-4,-1.241582446E-2,1.741129255E-2
2.894122556E0,-1.342756953E-2,-1.966220094E-3,-1.241582446E-2,1.839343203E-2
2.896567608E0,-1.159497630E-2,-1.966220094E-3,-1.302669011E-2,1.755004707E-2
2.899011879E0,-1.403843518E-2,-3.798815189E-3,-1.119409502E-2,1.835255902E-2
2.901456931E0,-1.342756953E-2,-5.020544864E-3,-1.058323123E-2,1.781881807E-2
2.903902764E0,-1.342756953E-2,-6.242274307E-3,-1.058323123E-2,1.820083501E-2
2.906347816E0,-1.526016463E-2,-5.020544864E-3,-1.119409502E-2,1.958025174E-2
2.908792035E0,-1.464930084E-2,-8.074869402E-3,-9.361501783E-3,1.916880921E-2
2.911237087E0,-1.587102748E-2,-8.685733192E-3,-9.972365573E-3,2.065864346E-2
2.913682972E0,-1.526016463E-2,-9.907462634E-3,-9.361501783E-3,2.046138206E-2
2.916127972E0,-1.464930084E-2,-1.235092152E-2,-9.972365573E-3,2.160081833E-2
2.918572243E0,-1.526016463E-2,-1.235092152E-2,-9.361501783E-3,2.174984143E-2
2.921017295E0,-1.464930084E-2,-1.296178717E-2,-9.972365573E-3,2.195581966E-2
2.923463129E0,-1.464930084E-2,-1.418351475E-2,-1.058323123E-2,2.297343877E-2
2.925908181E0,-1.648189314E-2,-1.357265096E-2,-8.750636131E-3,2.307473268E-2
2.928352451E0,-1.526016463E-2,-9.907462634E-3,-9.361501783E-3,2.046138206E-2
2.930797451E0,-1.526016463E-2,-6.853138097E-3,-9.361501783E-3,1.916965941E-2
2.933243337E0,-1.464930084E-2,-4.409679212E-3,-8.750636131E-3,1.762444094E-2
2.935688337E0,-1.526016463E-2,1.088104444E-3,-1.058323123E-2,1.860272504E-2
2.938132608E0,-1.648189314E-2,2.309832023E-3,-9.972365573E-3,1.940196383E-2
2.940577660E0,-1.770362258E-2,5.975021981E-3,-9.361501783E-3,2.089872857E-2
2.943023493E0,-1.953621767E-2,8.418477140E-3,-1.058323123E-2,2.376003665E-2
2.945468545E0,-1.770362258E-2,9.640208445E-3,-9.972365573E-3,2.248999659E-2
2.947912816E0,-1.770362258E-2,9.029342793E-3,-1.180496067E-2,2.311502499E-2
2.950357816E0,-1.831448637E-2,1.086193975E-2,-1.241582446E-2,2.464862761E-2
2.952803649E0,-1.770362258E-2,1.086193975E-2,-1.302669011E-2,2.451723155E-2
2.955248754E0,-1.831448637E-2,1.330539491E-2,-1.302669011E-2,2.611797465E-2
2.957692972E0,-1.709275879E-2,1.452712622E-2,-1.058323123E-2,2.480331797E-2
2.960138024E0,-1.770362258E-2,1.574885845E-2,-1.119409502E-2,2.620596417E-2
2.962583858E0,-1.770362258E-2,1.574885845E-2,-1.119409502E-2,2.620596417E-2
2.965028910E0,-1.709275879E-2,1.880317926E-2,-1.058323123E-2,2.752683666E-2
2.967473181E0,-1.526016463E-2,2.002491057E-2,-8.750636131E-3,2.665414227E-2
2.969918181E0,-1.709275879E-2,2.246836945E-2,-8.139772341E-3,2.938104700E-2
2.972364066E0,-1.709275879E-2,2.491182834E-2,-7.528907154E-3,3.113592840E-2
2.974809118E0,-1.587102748E-2,2.430096269E-2,-6.918043364E-3,2.983765448E-2
2.977253337E0,-1.648189314E-2,2.552269399E-2,-6.307177711E-3,3.102968257E-2
2.979698389E0,-1.587102748E-2,2.430096269E-2,-5.696313921E-3,2.957827401E-2
2.982144222E0,-1.587102748E-2,2.369009703E-2,-6.918043364E-3,2.934228237E-2
2.984589274E0,-1.464930084E-2,2.246836945E-2,-6.307177711E-3,2.755376801E-2
2.987033545E0,-1.403843518E-2,2.124663815E-2,-4.474584479E-3,2.585573827E-2
2.989478597E0,-1.464930084E-2,2.124663815E-2,-6.307177711E-3,2.656693694E-2
2.991924431E0,-1.403843518E-2,1.697058603E-2,-5.696313921E-3,2.274920757E-2
2.994369483E0,-1.281670574E-2,2.002491057E-2,-6.918043364E-3,2.476134716E-2
2.996813701E0,-1.220584102E-2,2.002491057E-2,-7.528907154E-3,2.463055097E-2
2.999258754E0,-1.281670574E-2,1.880317926E-2,-6.307177711E-3,2.361372455E-2
3.001704587E0,-1.220584102E-2,1.758145168E-2,-6.918043364E-3,2.249331728E-2
3.004149639E0,-1.220584102E-2,1.758145168E-2,-6.307177711E-3,2.231301165E-2
3.006593910E0,-1.220584102E-2,1.513799187E-2,-6.307177711E-3,2.044313683E-2
3.009038962E0,-1.220584102E-2,1.208366733E-2,-6.918043364E-3,1.851639531E-2
3.011484795E0,-1.220584102E-2,8.418477140E-3,-5.696313921E-3,1.588399524E-2
3.013929847E0,-1.281670574E-2,5.975021981E-3,-6.918043364E-3,1.574255880E-2
3.016374066E0,-1.281670574E-2,1.698966371E-3,-5.696313921E-3,1.412807223E-2
3.018819118E0,-1.098411158E-2,-2.577085746E-3,-6.307177711E-3,1.292565545E-2
3.021264951E0,-1.220584102E-2,-5.631410517E-3,-5.696313921E-3,1.459942916E-2
3.023710004E0,-1.220584102E-2,-1.051832829E-2,-5.696313921E-3,1.708993204E-2
3.026154274E0,-1.098411158E-2,-1.174005587E-2,-7.528907154E-3,1.775286067E-2
3.028599326E0,-1.037324686E-2,-1.601610892E-2,-6.918043364E-3,2.029727369E-2
3.031045160E0,-9.762382135E-3,-1.907043159E-2,-7.528907154E-3,2.270836650E-2
3.033490212E0,-9.151517414E-3,-2.273562178E-2,-6.918043364E-3,2.546601839E-2
3.035934431E0,-7.929787971E-3,-2.273562178E-2,-7.528907154E-3,2.522844581E-2
3.038379483E0,-8.540652692E-3,-2.395734936E-2,-6.918043364E-3,2.635823706E-2
3.040825316E0,-7.318923250E-3,-2.517908067E-2,-8.139772341E-3,2.745557565E-2
3.043270368E0,-6.708058529E-3,-2.578994446E-2,-8.750636131E-3,2.804804658E-2
3.045714639E0,-7.318923250E-3,-2.701167390E-2,-8.750636131E-3,2.932184846E-2
3.048159691E0,-7.318923250E-3,-2.884426713E-2,-9.361501783E-3,3.119609109E-2
3.050605524E0,-7.929787971E-3,-2.762253955E-2,-9.972365573E-3,3.041930807E-2
3.053050576E0,-7.318923250E-3,-2.701167390E-2,-1.241582446E-2,3.061616993E-2
3.055494795E0,-6.708058529E-3,-2.762253955E-2,-1.119409502E-2,3.055013099E-2
3.057939847E0,-7.929787971E-3,-2.640080824E-2,-1.241582446E-2,3.023304335E-2
3.060385681E0,-8.540652692E-3,-2.395734936E-2,-1.180496067E-2,2.804022884E-2
3.062830733E0,-6.708058529E-3,-2.212475613E-2,-1.241582446E-2,2.624224800E-2
3.065275004E0,-7.929787971E-3,-1.968129724E-2,-1.241582446E-2,2.458429774E-2
3.067720056E0,-8.540652692E-3,-1.601610892E-2,-1.424841955E-2,2.307544047E-2
3.070165889E0,-9.762382135E-3,-1.357265096E-2,-1.302669011E-2,2.119470722E-2
3.072610941E0,-9.762382135E-3,-9.907462634E-3,-1.424841955E-2,1.991178999E-2
3.075055160E0,-1.037324686E-2,-8.074869402E-3,-1.485928334E-2,1.983950775E-2
3.077500212E0,-1.098411158E-2,-3.798815189E-3,-1.485928334E-2,1.886478215E-2
3.079946045E0,-1.220584102E-2,-7.444925141E-4,-1.363755390E-2,1.831719685E-2
3.082391097E0,-1.159497630E-2,2.920697676E-3,-1.424841955E-2,1.860084434E-2
3.084835368E0,-1.342756953E-2,8.418477140E-3,-1.363755390E-2,2.090821028E-2
3.087280420E0,-1.403843518E-2,1.208366733E-2,-1.424841955E-2,2.336899951E-2
3.089726254E0,-1.526016463E-2,1.513799187E-2,-1.363755390E-2,2.545612497E-2
3.092171306E0,-1.526016463E-2,1.880317926E-2,-1.302669011E-2,2.749776046E-2
3.094615524E0,-1.770362258E-2,2.124663815E-2,-1.302669011E-2,3.057012496E-2
3.097060576E0,-1.892535202E-2,2.491182834E-2,-1.119409502E-2,3.322763765E-2
3.099506462E0,-2.014708333E-2,2.491182834E-2,-9.972365573E-3,3.355521171E-2
3.101951462E0,-1.953621767E-2,2.735528722E-2,-9.361501783E-3,3.489431552E-2
3.104395733E0,-2.014708333E-2,2.735528722E-2,-8.139772341E-3,3.493526298E-2
3.106840785E0,-2.136881091E-2,2.674442157E-2,-6.918043364E-3,3.492491215E-2
3.109286618E0,-2.075794525E-2,2.796614915E-2,-6.918043364E-3,3.550854987E-2
3.111731670E0,-2.197967656E-2,2.735528722E-2,-6.307177711E-3,3.565386952E-2
3.114175941E0,-2.259054221E-2,2.796614915E-2,-4.474584479E-3,3.622788984E-2
3.116620941E0,-2.136881091E-2,2.735528722E-2,-3.863718826E-3,3.492658217E-2
3.119066826E0,-2.381226979E-2,2.796614915E-2,-2.641989384E-3,3.682539611E-2
3.121511826E0,-2.381226979E-2,2.796614915E-2,-2.031125594E-3,3.678661662E-2
3.123956097E0,-2.381226979E-2,2.796614915E-2,4.123337567E-4,3.673281517E-2
3.126401149E0,-2.442313544E-2,2.491182834E-2,1.023198478E-3,3.490180040E-2
3.128846983E0,-2.381226979E-2,2.430096269E-2,1.023198478E-3,3.403833009E-2
3.131292035E0,-2.442313544E-2,2.307923138E-2,1.634063199E-3,3.364239333E-2
3.133736254E0,-2.503400110E-2,2.063577622E-2,1.023198478E-3,3.245894956E-2
3.136181306E0,-2.503400110E-2,1.697058603E-2,4.123337567E-4,3.024685141E-2
3.138627191E0,-2.564486302E-2,1.513799187E-2,-8.093961515E-4,2.979048371E-2
3.141072191E0,-2.503400110E-2,1.330539491E-2,-8.093961515E-4,2.836176769E-2
3.143516462E0,-2.442313544E-2,9.640208445E-3,-1.420259941E-3,2.629525246E-2
3.145961514E0,-2.381226979E-2,9.029342793E-3,-3.252855036E-3,2.567361077E-2
3.148407347E0,-2.381226979E-2,9.029342793E-3,-3.252855036E-3,2.567361077E-2
3.150852399E0,-2.197967656E-2,8.418477140E-3,-3.863718826E-3,2.385173499E-2
3.153296670E0,-2.136881091E-2,6.585883908E-3,-3.252855036E-3,2.259603975E-2
3.155741722E0,-2.259054221E-2,5.364156328E-3,-5.696313921E-3,2.390721152E-2
3.158187556E0,-2.136881091E-2,2.920697676E-3,-6.918043364E-3,2.264985383E-2
3.160632608E0,-1.953621767E-2,1.698966371E-3,-6.307177711E-3,2.059929073E-2
3.163076826E0,-1.953621767E-2,-1.336268615E-4,-6.918043364E-3,2.072537047E-2
3.165521879E0,-1.953621767E-2,-2.577085746E-3,-6.307177711E-3,2.069023109E-2
3.167967712E0,-1.831448637E-2,-5.020544864E-3,-7.528907154E-3,2.042818457E-2
3.170412764E0,-1.831448637E-2,-6.242274307E-3,-8.139772341E-3,2.099148145E-2
3.172857035E0,-1.831448637E-2,-6.242274307E-3,-8.750636131E-3,2.123581956E-2
3.175302087E0,-1.770362258E-2,-8.074869402E-3,-8.750636131E-3,2.133530879E-2
3.177747920E0,-1.648189314E-2,-9.907462634E-3,-7.528907154E-3,2.065175683E-2
3.180192972E0,-1.648189314E-2,-1.112919208E-2,-8.750636131E-3,2.172752518E-2
3.182637191E0,-1.709275879E-2,-1.112919208E-2,-9.972365573E-3,2.270395108E-2
3.185082243E0,-1.587102748E-2,-1.112919208E-2,-9.361501783E-3,2.152640577E-2
3.187528076E0,-1.526016463E-2,-1.051832829E-2,-1.058323123E-2,2.134274203E-2
3.189973129E0,-1.403843518E-2,-8.074869402E-3,-9.972365573E-3,1.901918120E-2
3.192417399E0,-1.464930084E-2,-4.409679212E-3,-9.972365573E-3,1.826185535E-2
3.194862451E0,-1.464930084E-2,-1.966220094E-3,-1.119409502E-2,1.854119197E-2
3.197308285E0,-1.159497630E-2,4.772387911E-4,-1.058323123E-2,1.570592294E-2
3.199753337E0,-1.220584102E-2,4.753290676E-3,-8.750636131E-3,1.575277626E-2
3.202197556E0,-1.342756953E-2,8.418477140E-3,-9.361501783E-3,1.840674052E-2
3.204642608E0,-1.342756953E-2,1.147280168E-2,-8.750636131E-3,1.971036363E-2
3.207088441E0,-1.342756953E-2,1.269453298E-2,-9.361501783E-3,2.071445164E-2
3.209533493E0,-1.342756953E-2,1.452712622E-2,-8.750636131E-3,2.163124250E-2
3.211977764E0,-1.281670574E-2,1.513799187E-2,-6.307177711E-3,2.081363098E-2
3.214422816E0,-1.342756953E-2,1.635972038E-2,-5.696313921E-3,2.191775688E-2
3.216868649E0,-1.281670574E-2,1.758145168E-2,-4.474584479E-3,2.221254816E-2
3.219313701E0,-1.159497630E-2,1.758145168E-2,-5.085448269E-3,2.166593415E-2
3.221757920E0,-1.342756953E-2,1.758145168E-2,-2.641989384E-3,2.227974809E-2
3.224202972E0,-1.098411158E-2,1.635972038E-2,-3.863718826E-3,2.008032572E-2
3.226648806E0,-1.159497630E-2,1.513799187E-2,-2.031125594E-3,1.917622863E-2
3.229093858E0,-1.159497630E-2,1.330539491E-2,-1.985309646E-4,1.764982786E-2
3.231538129E0,-1.098411158E-2,1.025107410E-2,1.023198478E-3,1.505928824E-2
3.233983181E0,-1.037324686E-2,6.585883908E-3,1.023198478E-3,1.232984397E-2
3.236429014E0,-1.037324686E-2,1.088104444E-3,2.244927920E-3,1.066901696E-2
3.238874066E0,-9.151517414E-3,-1.336268615E-4,2.855792642E-3,9.587683699E-3
3.241318285E0,-8.540652692E-3,-3.798815189E-3,4.077522084E-3,1.019803567E-2
3.243763337E0,-8.540652692E-3,-8.074869402E-3,2.855792642E-3,1.209552876E-2
3.246209170E0,-7.929787971E-3,-9.907462634E-3,4.688386805E-3,1.352850043E-2
3.248654222E0,-7.318923250E-3,-1.174005587E-2,4.077522084E-3,1.442295863E-2
3.251098493E0,-4.875464365E-3,-1.418351475E-2,2.244927920E-3,1.516515562E-2
3.253543545E0,-5.486329086E-3,-1.540524606E-2,2.244927920E-3,1.650639616E-2
3.255989379E0,-5.486329086E-3,-1.723783836E-2,-1.985309646E-4,1.809094505E-2
3.258434431E0,-4.875464365E-3,-1.845956780E-2,-8.093961515E-4,1.910970744E-2
3.260878649E0,-4.264599644E-3,-2.029216290E-2,-1.420259941E-3,2.078402808E-2
3.263323701E0,-3.042869968E-3,-2.151389048E-2,-2.031125594E-3,2.182274071E-2
3.265769535E0,-3.042869968E-3,-2.029216290E-2,-3.252855036E-3,2.077527373E-2
3.268214587E0,-1.821140526E-3,-2.151389048E-2,-3.863718826E-3,2.193381771E-2
3.270658858E0,-1.821140526E-3,-2.029216290E-2,-6.307177711E-3,2.132765619E-2
3.273103910E0,-1.210275805E-3,-1.907043159E-2,-8.139772341E-3,2.077021960E-2
3.275549743E0,-2.432005247E-3,-1.907043159E-2,-9.361501783E-3,2.138302425E-2
3.277994795E0,-1.821140526E-3,-1.968129724E-2,-9.972365573E-3,2.213861082E-2
3.280439014E0,6.223183591E-4,-1.723783836E-2,-1.180496067E-2,2.090185274E-2
3.282884066E0,-1.821140526E-3,-1.540524606E-2,-1.119409502E-2,1.912971307E-2
3.285329899E0,1.233183080E-3,-1.296178717E-2,-1.180496067E-2,1.757514619E-2
3.287774951E0,-1.210275805E-3,-9.907462634E-3,-1.180496067E-2,1.545896762E-2
3.290219222E0,1.844047802E-3,-6.242274307E-3,-9.972365573E-3,1.190859253E-2
3.292664274E0,-5.994110834E-4,-3.187951399E-3,-9.361501783E-3,9.907575052E-3
3.295110108E0,2.454912523E-3,2.309832023E-3,-7.528907154E-3,8.249021906E-3
3.297555160E0,1.145363785E-5,4.753290676E-3,-9.972365573E-3,1.104726113E-2
3.299999379E0,-1.210275805E-3,8.418477140E-3,-9.361501783E-3,1.264805284E-2
3.302444431E0,6.223183591E-4,1.208366733E-2,-6.918043364E-3,1.393777673E-2
3.304890316E0,-2.432005247E-3,1.513799187E-2,-7.528907154E-3,1.708092182E-2
3.307335316E0,6.223183591E-4,1.880317926E-2,-5.085448269E-3,1.948867914E-2
3.309779587E0,-3.653734690E-3,2.063577622E-2,-3.863718826E-3,2.130993573E-2
3.312224639E0,-1.210275805E-3,2.552269399E-2,-2.031125594E-3,2.563197510E-2
3.314670472E0,-3.653734690E-3,2.796614915E-2,-8.093961515E-4,2.821542836E-2
3.317115524E0,-3.042869968E-3,3.346393257E-2,1.023198478E-3,3.361756648E-2
3.319559743E0,-3.653734690E-3,3.285306692E-2,5.299251527E-3,3.347769183E-2
3.322004795E0,-3.653734690E-3,3.651826084E-2,6.520980969E-3,3.727541206E-2
3.324450629E0,-4.875464365E-3,3.712911904E-2,8.964439854E-3,3.850588027E-2
3.326895681E0,-7.929787971E-3,3.896171600E-2,1.018616930E-2,4.104454770E-2
3.329339951E0,-4.264599644E-3,4.018344730E-2,1.201876346E-2,4.215859251E-2
3.331785004E0,-9.151517414E-3,3.896171600E-2,1.446222235E-2,4.255492286E-2
3.334230837E0,-7.318923250E-3,3.896171600E-2,1.873827539E-2,4.384865922E-2
3.336675889E0,-1.098411158E-2,3.529652953E-2,1.812741160E-2,4.117157704E-2
3.339120160E0,-7.929787971E-3,3.651826084E-2,2.057087049E-2,4.265707004E-2
3.341565160E0,-9.151517414E-3,3.163133562E-2,2.240346372E-2,3.982721244E-2
3.344011045E0,-1.098411158E-2,3.040961176E-2,2.362519316E-2,4.004428732E-2
3.346456045E0,-7.318923250E-3,2.491182834E-2,2.484692261E-2,3.593793806E-2
3.348900316E0,-1.220584102E-2,2.246836945E-2,2.484692261E-2,3.565360773E-2
3.351345368E0,-7.929787971E-3,2.185750380E-2,2.667951584E-2,3.538966763E-2
3.353791201E0,-1.098411158E-2,1.880317926E-2,2.484692261E-2,3.303906507E-2
3.356236254E0,-7.929787971E-3,1.758145168E-2,2.606865205E-2,3.242782139E-2
3.358680524E0,-1.159497630E-2,1.452712622E-2,2.667951584E-2,3.251580288E-2
3.361125524E0,-9.762382135E-3,1.513799187E-2,2.545778826E-2,3.118592448E-2
3.363571410E0,-1.159497630E-2,1.025107410E-2,2.362519316E-2,2.824318940E-2
3.366016462E0,-1.098411158E-2,1.086193975E-2,2.423605695E-2,2.874054451E-2
3.368460681E0,-1.098411158E-2,9.640208445E-3,2.057087049E-2,2.523380746E-2
3.370905733E0,-1.342756953E-2,9.029342793E-3,1.996000484E-2,2.569494985E-2
3.373351566E0,-1.403843518E-2,7.807615213E-3,1.996000484E-2,2.562105210E-2
3.375796618E0,-1.342756953E-2,5.975021981E-3,1.812741160E-2,2.333674276E-2
3.378240889E0,-1.648189314E-2,7.807615213E-3,1.751654595E-2,2.528717143E-2
3.380685941E0,-1.526016463E-2,5.975021981E-3,1.690568030E-2,2.354518079E-2
3.383131774E0,-1.587102748E-2,5.364156328E-3,1.385135762E-2,2.173761244E-2
3.385576826E0,-1.464930084E-2,4.142425023E-3,1.324049290E-2,2.017603411E-2
3.388021045E0,-1.587102748E-2,5.975021981E-3,1.262962818E-2,2.114468986E-2
3.390466097E0,-1.648189314E-2,5.364156328E-3,1.201876346E-2,2.109212293E-2
3.392911931E0,-1.526016463E-2,3.531559603E-3,1.262962818E-2,2.012093551E-2
3.395356983E0,-1.587102748E-2,3.531559603E-3,1.324049290E-2,2.096835900E-2
3.397801254E0,-1.464930084E-2,4.142425023E-3,1.079703402E-2,1.866380571E-2
3.400246254E0,-1.342756953E-2,3.531559603E-3,1.201876346E-2,1.836361108E-2
3.402692139E0,-1.403843518E-2,3.531559603E-3,1.201876346E-2,1.881489439E-2
3.405137139E0,-1.220584102E-2,4.753290676E-3,1.324049290E-2,1.862490214E-2
3.407581410E0,-1.037324686E-2,7.196749561E-3,1.262962818E-2,1.785791036E-2
3.410026462E0,-1.159497630E-2,8.418477140E-3,1.324049290E-2,1.950961007E-2
3.412472295E0,-1.037324686E-2,1.147280168E-2,1.324049290E-2,2.036025739E-2
3.414917347E0,-1.037324686E-2,1.269453298E-2,1.446222235E-2,2.186118234E-2
3.417361618E0,-1.037324686E-2,1.391626056E-2,1.385135762E-2,2.220645551E-2
3.419806670E0,-8.540652692E-3,1.574885845E-2,1.446222235E-2,2.302444714E-2
3.422252504E0,-6.708058529E-3,1.574885845E-2,1.385135762E-2,2.202009763E-2
3.424697556E0,-6.708058529E-3,1.513799187E-2,1.446222235E-2,2.198437450E-2
3.427141774E0,-5.486329086E-3,1.574885845E-2,1.446222235E-2,2.207446997E-2
3.429586826E0,-5.486329086E-3,1.452712622E-2,1.446222235E-2,2.122011023E-2
3.432032660E0,-3.653734690E-3,1.452712622E-2,1.385135762E-2,2.040213914E-2
3.434477712E0,-1.821140526E-3,1.391626056E-2,1.446222235E-2,2.015278482E-2
3.436921983E0,1.145363785E-5,1.391626056E-2,1.507308707E-2,2.051488223E-2
3.439367035E0,1.145363785E-5,1.208366733E-2,1.568395272E-2,1.979902826E-2
3.441812868E0,1.145363785E-5,1.269453298E-2,1.446222235E-2,1.924336701E-2
3.444257920E0,1.844047802E-3,1.025107410E-2,1.507308707E-2,1.832165348E-2
3.446702139E0,2.454912523E-3,9.640208445E-3,1.507308707E-2,1.805984961E-2
3.449147191E0,4.287506454E-3,9.029342793E-3,1.507308707E-2,1.808617418E-2
3.451593024E0,5.509235896E-3,7.807615213E-3,1.507308707E-2,1.784680613E-2
3.454038076E0,5.509235896E-3,7.807615213E-3,1.568395272E-2,1.836564478E-2
3.456482347E0,6.120100617E-3,7.807615213E-3,1.568395272E-2,1.855804030E-2
3.458927399E0,6.730965339E-3,7.196749561E-3,1.568395272E-2,1.852256655E-2
3.461373233E0,7.952694781E-3,9.029342793E-3,1.690568030E-2,2.075033522E-2
3.463818285E0,7.341830060E-3,9.640208445E-3,1.568395272E-2,1.981974925E-2
3.466262504E0,8.563559502E-3,1.086193975E-2,1.446222235E-2,2.001180056E-2
3.468707556E0,9.174424224E-3,1.147280168E-2,1.385135762E-2,2.019047662E-2
3.471153389E0,9.174424224E-3,1.330539491E-2,1.262962818E-2,2.051124330E-2
3.473598441E0,8.563559502E-3,1.330539491E-2,1.262962818E-2,2.024538449E-2
3.476042712E0,7.341830060E-3,1.513799187E-2,1.140789874E-2,2.032735645E-2
3.478487764E0,5.509235896E-3,1.819231361E-2,9.575304575E-3,2.128375936E-2
3.480933597E0,5.509235896E-3,2.063577622E-2,8.964439854E-3,2.316350842E-2
3.483378649E0,6.120100617E-3,2.002491057E-2,6.520980969E-3,2.193116202E-2
3.485822868E0,7.341830060E-3,1.880317926E-2,5.910116248E-3,2.103310470E-2
3.488267920E0,6.120100617E-3,2.002491057E-2,4.077522084E-3,2.133257746E-2
3.490713754E0,6.730965339E-3,1.819231361E-2,4.077522084E-3,1.982151244E-2
3.493158806E0,6.730965339E-3,1.697058603E-2,4.077522084E-3,1.870649275E-2
3.495603076E0,7.341830060E-3,1.391626056E-2,2.855792642E-3,1.599125787E-2
3.498048129E0,9.174424224E-3,1.391626056E-2,2.855792642E-3,1.691117735E-2
3.500493962E0,9.785288945E-3,1.330539491E-2,2.855792642E-3,1.676129366E-2
3.502939014E0,9.174424224E-3,1.208366733E-2,2.244927920E-3,1.533703939E-2
3.505383233E0,9.174424224E-3,1.391626056E-2,3.466657363E-3,1.702498403E-2
3.507828285E0,1.100701839E-2,1.758145168E-2,2.244927920E-3,2.086388263E-2
3.510274118E0,9.785288945E-3,1.697058603E-2,2.244927920E-3,1.971781863E-2
3.512719170E0,1.039615367E-2,1.758145168E-2,4.077522084E-3,2.082819341E-2
3.515163441E0,9.174424224E-3,1.635972038E-2,2.855792642E-3,1.897277160E-2
3.517608493E0,9.785288945E-3,1.697058603E-2,2.244927920E-3,1.971781863E-2
3.520054326E0,9.785288945E-3,1.452712622E-2,2.855792642E-3,1.774668497E-2
3.522499379E0,9.174424224E-3,1.208366733E-2,1.634063199E-3,1.525959497E-2
3.524943597E0,9.785288945E-3,1.086193975E-2,1.634063199E-3,1.471066883E-2
3.527388649E0,1.100701839E-2,6.585883908E-3,1.634063199E-3,1.293052525E-2
3.529834483E0,1.039615367E-2,2.309832023E-3,1.023198478E-3,1.069870413E-2
3.532279535E0,1.100701839E-2,1.088104444E-3,-1.985309646E-4,1.106245179E-2
3.534723806E0,1.161788311E-2,4.772387911E-4,1.023198478E-3,1.167261324E-2
3.537168858E0,1.283961255E-2,-1.336268615E-4,2.855792642E-3,1.315405102E-2
3.539614691E0,1.345047727E-2,-1.336268615E-4,2.244927920E-3,1.363718799E-2
3.542059743E0,1.283961255E-2,-7.444925141E-4,3.466657363E-3,1.332019643E-2
3.544503962E0,1.222874783E-2,-1.966220094E-3,4.077522084E-3,1.303972704E-2
3.546949014E0,1.222874783E-2,-2.577085746E-3,4.688386805E-3,1.334783186E-2
3.549394847E0,1.222874783E-2,-5.020544864E-3,4.688386805E-3,1.402601565E-2
3.551839899E0,1.222874783E-2,-8.074869402E-3,4.688386805E-3,1.538592734E-2
3.554284170E0,1.222874783E-2,-8.685733192E-3,5.299251527E-3,1.590805775E-2
3.556729222E0,1.283961255E-2,-9.907462634E-3,6.520980969E-3,1.747960695E-2
3.559175056E0,1.222874783E-2,-1.112919208E-2,5.299251527E-3,1.736327321E-2
3.561620108E0,1.345047727E-2,-1.235092152E-2,5.299251527E-3,1.901427537E-2
3.564064326E0,1.100701839E-2,-1.357265096E-2,6.520980969E-3,1.865193021E-2
3.566509379E0,1.222874783E-2,-1.418351475E-2,6.520980969E-3,1.983021828E-2
3.568955212E0,1.345047727E-2,-1.418351475E-2,6.520980969E-3,2.060608217E-2
3.571400264E0,1.283961255E-2,-1.357265096E-2,6.520980969E-3,1.978877706E-2
3.573844535E0,1.283961255E-2,-1.296178717E-2,5.299251527E-3,1.899856952E-2
3.576289587E0,1.222874783E-2,-1.235092152E-2,5.910116248E-3,1.835802304E-2
3.578735420E0,1.161788311E-2,-1.296178717E-2,5.299251527E-3,1.819519721E-2
3.581180472E0,9.785288945E-3,-1.357265096E-2,4.688386805E-3,1.737670005E-2
3.583624743E0,1.100701839E-2,-1.235092152E-2,6.520980969E-3,1.778265753E-2
3.586069743E0,8.563559502E-3,-1.357265096E-2,5.910116248E-3,1.710207238E-2
3.588515576E0,7.952694781E-3,-1.174005587E-2,4.688386805E-3,1.493503388E-2
3.590960629E0,7.341830060E-3,-1.051832829E-2,5.910116248E-3,1.412328477E-2
3.593404899E0,7.341830060E-3,-1.051832829E-2,7.131845690E-3,1.467654324E-2
3.595849951E0,7.341830060E-3,-6.853138097E-3,5.910116248E-3,1.165321606E-2
3.598295785E0,6.730965339E-3,-3.187951399E-3,5.910116248E-3,9.507807454E-3
3.600740837E0,5.509235896E-3,-7.444925141E-4,6.520980969E-3,8.569080584E-3
3.603185108E0,4.898371175E-3,1.698966371E-3,6.520980969E-3,8.330889490E-3
3.605630108E0,4.898371175E-3,2.920697676E-3,6.520980969E-3,8.663008016E-3
3.608075941E0,2.454912523E-3,2.309832023E-3,5.910116248E-3,6.803777887E-3
3.610520993E0,1.844047802E-3,2.920697676E-3,4.688386805E-3,5.823397466E-3
3.612965264E0,6.223183591E-4,6.585883908E-3,5.299251527E-3,8.476037620E-3
3.615410316E0,-1.210275805E-3,7.807615213E-3,4.688386805E-3,9.187197270E-3
3.617856149E0,-5.994110834E-4,9.029342793E-3,4.077522084E-3,9.925447661E-3
3.620301201E0,-2.432005247E-3,1.086193975E-2,4.688386805E-3,1.207796984E-2
3.622745472E0,-5.486329086E-3,1.452712622E-2,2.244927920E-3,1.569002563E-2
3.625190472E0,-5.486329086E-3,1.574885845E-2,2.244927920E-3,1.682753846E-2
3.627636358E0,-7.929787971E-3,1.758145168E-2,2.244927920E-3,1.941722642E-2
3.630081410E0,-8.540652692E-3,1.880317926E-2,2.855792642E-3,2.084844959E-2
3.632525629E0,-1.098411158E-2,1.880317926E-2,2.244927920E-3,2.189177834E-2
3.634970681E0,-1.098411158E-2,2.002491057E-2,2.244927920E-3,2.294967215E-2
3.637416514E0,-1.037324686E-2,1.880317926E-2,4.077522084E-3,2.185840770E-2
3.639861566E0,-1.220584102E-2,2.002491057E-2,5.299251527E-3,2.404291299E-2
3.642305837E0,-1.403843518E-2,2.002491057E-2,4.077522084E-3,2.479316220E-2
3.644750837E0,-1.464930084E-2,2.063577622E-2,4.077522084E-3,2.563324914E-2
3.647196722E0,-1.403843518E-2,2.002491057E-2,4.688386805E-3,2.490091718E-2
3.649641722E0,-1.526016463E-2,2.185750380E-2,7.131845690E-3,2.759504158E-2
3.652085993E0,-1.464930084E-2,2.185750380E-2,8.964439854E-3,2.779772777E-2
3.654531045E0,-1.648189314E-2,2.430096269E-2,7.742710412E-3,3.036674420E-2
3.656976879E0,-1.709275879E-2,2.369009703E-2,7.131845690E-3,3.007068878E-2
3.659421931E0,-1.831448637E-2,2.613355592E-2,8.964439854E-3,3.314731268E-2
3.661866201E0,-1.831448637E-2,2.796614915E-2,8.353575133E-3,3.445733778E-2
3.664311201E0,-2.075794525E-2,2.613355592E-2,8.353575133E-3,3.440402961E-2
3.666757087E0,-2.259054221E-2,2.185750380E-2,6.520980969E-3,3.210305691E-2
3.669202087E0,-2.442313544E-2,1.880317926E-2,7.742710412E-3,3.178047608E-2
3.671646358E0,-2.503400110E-2,1.574885845E-2,8.353575133E-3,3.073288094E-2
3.674091410E0,-2.503400110E-2,1.330539491E-2,7.742710412E-3,2.938850641E-2
3.676537243E0,-2.442313544E-2,1.147280168E-2,7.131845690E-3,2.791017639E-2
3.678982295E0,-2.503400110E-2,9.029342793E-3,8.353575133E-3,2.789287471E-2
3.681426566E0,-2.625572868E-2,1.086193975E-2,8.353575133E-3,2.961633402E-2
3.683871566E0,-2.686659433E-2,1.208366733E-2,7.742710412E-3,3.045945619E-2
3.686317451E0,-2.869918756E-2,1.269453298E-2,8.353575133E-3,3.247424752E-2
3.688762504E0,-2.931005321E-2,1.391626056E-2,7.742710412E-3,3.335702463E-2
3.691206722E0,-3.053178079E-2,1.452712622E-2,7.131845690E-3,3.455561109E-2
3.693651774E0,-3.053178079E-2,1.391626056E-2,8.964439854E-3,3.473057915E-2
3.696097608E0,-3.175351024E-2,1.269453298E-2,8.353575133E-3,3.520253965E-2
3.698542660E0,-3.297523782E-2,1.025107410E-2,7.131845690E-3,3.526065870E-2
3.700986931E0,-3.297523782E-2,9.640208445E-3,7.131845690E-3,3.508793455E-2
3.703431931E0,-3.236437589E-2,7.807615213E-3,8.353575133E-3,3.432482920E-2
3.705877816E0,-3.419696912E-2,6.585883908E-3,7.131845690E-3,3.554813338E-2
3.708322868E0,-3.480783105E-2,5.975021981E-3,7.131845690E-3,3.602983781E-2
3.710767087E0,-3.664042801E-2,3.531559603E-3,7.742710412E-3,3.761572068E-2
3.713212139E0,-3.664042801E-2,4.142425023E-3,7.131845690E-3,3.755720800E-2
3.715657972E0,-3.786215559E-2,5.975021981E-3,7.742710412E-3,3.910490094E-2
3.718103024E0,-3.908388689E-2,8.418477140E-3,9.575304575E-3,4.111091619E-2
3.720547295E0,-4.152734578E-2,1.147280168E-2,9.575304575E-3,4.413425068E-2
3.722992347E0,-4.213821143E-2,1.513799187E-2,9.575304575E-3,4.578727026E-2
3.725438181E0,-4.152734578E-2,1.941404492E-2,1.018616930E-2,4.695938279E-2
3.727883233E0,-4.397080466E-2,2.307923138E-2,1.201876346E-2,5.109337784E-2
3.730327451E0,-4.335993901E-2,2.491182834E-2,1.201876346E-2,5.143086794E-2
3.732772504E0,-4.458166659E-2,2.735528722E-2,1.140789874E-2,5.353481940E-2
3.735218337E0,-4.458166659E-2,2.735528722E-2,1.262962818E-2,5.380840309E-2
3.737663389E0,-4.458166659E-2,2.674442157E-2,1.324049290E-2,5.364792385E-2
3.740107660E0,-4.641426355E-2,2.613355592E-2,1.201876346E-2,5.460491993E-2
3.742552712E0,-4.274907336E-2,2.246836945E-2,1.262962818E-2,4.991811702E-2
3.744998545E0,-4.152734578E-2,1.758145168E-2,1.324049290E-2,4.699934620E-2
3.747443597E0,-4.030561447E-2,1.452712622E-2,1.201876346E-2,4.449753509E-2
3.749887816E0,-3.847302124E-2,7.807615213E-3,1.201876346E-2,4.105585091E-2
3.752332868E0,-3.664042801E-2,1.088104444E-3,1.140789874E-2,3.839069014E-2
3.754778701E0,-3.358610347E-2,-7.464003749E-3,1.079703402E-2,3.605986192E-2
3.757223754E0,-3.297523782E-2,-1.357265096E-2,1.079703402E-2,3.725800728E-2
3.759668024E0,-3.114264645E-2,-2.090302669E-2,1.079703402E-2,3.903046113E-2
3.762113076E0,-2.869918756E-2,-2.945513278E-2,1.079703402E-2,4.251851547E-2
3.764558910E0,-2.625572868E-2,-3.678550944E-2,1.018616930E-2,4.632812362E-2
3.767003962E0,-2.320140414E-2,-4.533761367E-2,8.353575133E-3,5.160994657E-2
3.769448181E0,-2.197967656E-2,-5.511144921E-2,6.520980969E-3,5.969004279E-2
3.771893233E0,-2.075794525E-2,-6.183096394E-2,2.855792642E-3,6.528488297E-2
3.774339066E0,-2.014708333E-2,-7.099393755E-2,1.023198478E-3,7.380441092E-2
3.776784118E0,-1.770362258E-2,-8.076777309E-2,-2.031125594E-3,8.271019825E-2
3.779228389E0,-1.709275879E-2,-9.054160863E-2,-6.307177711E-3,9.235651459E-2
3.781673441E0,-1.648189314E-2,-1.015371755E-1,-1.058323123E-2,1.034091659E-1
3.784119274E0,-1.526016463E-2,-1.125327423E-1,-1.547014900E-2,1.146115885E-1
3.786564326E0,-1.464930084E-2,-1.241391674E-1,-1.974620298E-2,1.265505726E-1
3.789008545E0,-1.464930084E-2,-1.345238686E-1,-2.524398454E-2,1.376536668E-1
3.791453597E0,-1.159497630E-2,-1.424650997E-1,-2.768744342E-2,1.455930720E-1
3.793899431E0,-1.037324686E-2,-1.479628831E-1,-3.074176423E-2,1.514782991E-1
3.796344483E0,-7.929787971E-3,-1.534606665E-1,-3.379609063E-2,1.573379594E-1
3.798788754E0,-6.097193807E-3,-1.583475918E-1,-3.623954952E-2,1.625559612E-1
3.801233806E0,-4.875464365E-3,-1.607910544E-1,-3.623954952E-2,1.648964471E-1
3.803679639E0,-4.875464365E-3,-1.656779647E-1,-3.807214275E-2,1.700660054E-1
3.806124691E0,-1.210275805E-3,-1.675105542E-1,-3.746127710E-2,1.716525497E-1
3.808568910E0,2.454912523E-3,-1.705648899E-1,-3.562868387E-2,1.742636261E-1
3.811013962E0,8.563559502E-3,-1.748409420E-1,-3.318522498E-2,1.781683157E-1
3.813459795E0,1.467220671E-2,-1.797278523E-1,-2.829830535E-2,1.825326509E-1
3.815904847E0,2.261344902E-2,-1.840039045E-1,-2.341138944E-2,1.868606381E-1
3.818349118E0,2.994382568E-2,-1.888908297E-1,-1.852447167E-2,1.921445661E-1
3.820794170E0,3.788506985E-2,-1.913342774E-1,-1.241582446E-2,1.954436925E-1
3.823240004E0,4.826977104E-2,-1.949994713E-1,-5.085448269E-3,2.009493130E-1
3.825685056E0,5.804360658E-2,-1.986646652E-1,2.244927920E-3,2.069824852E-1
3.828129274E0,6.842830777E-2,-2.047733068E-1,7.742710412E-3,2.160427968E-1
3.830574326E0,8.186732978E-2,-2.157688737E-1,1.324049290E-2,2.311574727E-1
3.833020160E0,9.469548613E-2,-2.267644405E-1,1.873827539E-2,2.464558166E-1
3.835465212E0,1.063019186E-1,-2.383708656E-1,2.545778826E-2,2.622381865E-1
3.837909483E0,1.185192093E-1,-2.530316114E-1,3.217729926E-2,2.812599829E-1
3.840354535E0,1.319582313E-1,-2.689141035E-1,3.767508268E-2,3.019059154E-1
3.842800368E0,1.453972608E-1,-2.847965956E-1,4.500545934E-2,3.229163292E-1
3.845245420E0,1.594471484E-1,-3.006790578E-1,5.294669792E-2,3.444337988E-1
3.847689639E0,1.759404987E-1,-3.171724081E-1,6.088794023E-2,3.677781081E-1
3.850134691E0,1.893795133E-1,-3.361092210E-1,6.882918626E-2,3.918819533E-1
3.852580524E0,2.052620053E-1,-3.568786383E-1,7.615955174E-2,4.186826132E-1
3.855025576E0,2.187010199E-1,-3.794806302E-1,8.348993212E-2,4.458769489E-1
3.857469847E0,2.296965867E-1,-4.051369429E-1,9.204203635E-2,4.747296082E-1
3.859914899E0,2.406921536E-1,-4.393453598E-1,9.876155108E-2,5.105985722E-1
3.862360733E0,2.522985637E-1,-4.766080976E-1,1.073136553E-1,5.498418541E-1
3.864805941E0,2.614615560E-1,-5.138708353E-1,1.140331700E-1,5.877320346E-1
3.867251149E0,2.694027722E-1,-5.529661775E-1,1.207526773E-1,6.268418111E-1
3.869695056E0,2.736788392E-1,-5.908398032E-1,1.256396025E-1,6.631569119E-1
3.872140889E0,2.810092270E-1,-6.268808246E-1,1.323591024E-1,6.996175283E-1
3.874585941E0,2.950591147E-1,-6.580349207E-1,1.366351843E-1,7.339884274E-1
3.877031149E0,3.146067858E-1,-6.781934500E-1,1.409112364E-1,7.607757631E-1
3.879476358E0,3.396522403E-1,-6.971302629E-1,1.421329677E-1,7.883882471E-1
3.881921566E0,3.683628738E-1,-7.111801505E-1,1.445764154E-1,8.138616302E-1
3.884366774E0,3.982952535E-1,-7.233974338E-1,1.457981467E-1,8.385702450E-1
3.886811983E0,4.276167452E-1,-7.392799258E-1,1.451872885E-1,8.662968534E-1
3.889257191E0,4.563273787E-1,-7.612710595E-1,1.427438259E-1,8.989683546E-1
3.891702399E0,4.832054377E-1,-7.881491184E-1,1.390786320E-1,9.348846954E-1
3.894147608E0,5.076400042E-1,-8.205249310E-1,1.323591024E-1,9.738985923E-1
3.896592816E0,5.308528543E-1,-8.565659523E-1,1.262504607E-1,1.015602857E0
3.899038024E0,5.546765924E-1,-8.974938989E-1,1.201418191E-1,1.061882987E0
3.901483233E0,5.797220469E-1,-9.384218454E-1,1.128114387E-1,1.108800989E0
3.903928441E0,6.047675014E-1,-9.787389040E-1,1.054810584E-1,1.155335374E0
3.906373649E0,6.298129559E-1,-1.017223358E0,9.876155108E-2,1.200483887E0
3.908818858E0,6.560801268E-1,-1.051431775E0,9.143117070E-2,1.242702527E0
3.911264066E0,6.811255813E-1,-1.080753326E0,8.287906647E-2,1.280167469E0
3.913709274E0,7.080036402E-1,-1.103355289E0,7.554869354E-2,1.313152562E0
3.916150941E0,7.336599827E-1,-1.118626952E0,6.699658930E-2,1.339429644E0
3.918595993E0,7.587054372E-1,-1.130844235E0,5.905534700E-2,1.363059118E0
3.921041826E0,7.843617201E-1,-1.136952877E0,5.111410469E-2,1.382207584E0
3.923486879E0,8.069637418E-1,-1.139396310E0,4.317286238E-2,1.396881644E0
3.925931149E0,8.283439875E-1,-1.138174653E0,3.400989249E-2,1.408102260E0
3.928376149E0,8.485025167E-1,-1.133898497E0,2.606865205E-2,1.416461046E0
3.930822035E0,8.680502176E-1,-1.127789855E0,1.751654595E-2,1.423280706E0
3.933267035E0,8.888196349E-1,-1.120459557E0,8.353575133E-3,1.430209685E0
3.935711306E0,9.071455598E-1,-1.113739967E0,-1.985309646E-4,1.436429539E0
3.938156358E0,9.260823727E-1,-1.107020497E0,-8.139772341E-3,1.443325742E0
3.940602191E0,9.444082975E-1,-1.104577065E0,-1.669187844E-2,1.453367174E0
3.943047243E0,9.615125060E-1,-1.100911856E0,-2.463311888E-2,1.461889190E0
3.945491514E0,9.792276025E-1,-1.100911856E0,-3.379609063E-2,1.473782815E0
3.947936514E0,9.969426394E-1,-1.099690080E0,-4.234819487E-2,1.484926351E0
3.950382399E0,1.016490340E0,-1.096024990E0,-5.212203041E-2,1.495740652E0
3.952827451E0,1.033594608E0,-1.097246647E0,-6.006327271E-2,1.508600549E0
3.955271670E0,1.051920533E0,-1.097857475E0,-7.044798136E-2,1.522100773E0
3.957716722E0,1.070246458E0,-1.099690080E0,-8.022181690E-2,1.536613579E0
3.960162556E0,1.089183331E0,-1.102133632E0,-8.755218983E-2,1.551993639E0
3.962607608E0,1.108730912E0,-1.104577065E0,-9.366083890E-2,1.567847914E0
3.965051879E0,1.127056956E0,-1.106409669E0,-9.976948798E-2,1.582514989E0
3.967496931E0,1.147215486E0,-1.109463930E0,-1.028238088E-1,1.599245547E0
3.969942764E0,1.166763067E0,-1.108242273E0,-1.046563983E-1,1.612603471E0
3.972387816E0,1.186310768E0,-1.107631326E0,-1.046563983E-1,1.626386594E0
3.974832035E0,1.206469297E0,-1.105798721E0,-1.022129431E-1,1.639758050E0
3.977277087E0,1.227849603E0,-1.106409669E0,-9.915862232E-2,1.655774572E0
3.979722920E0,1.249229908E0,-1.105187893E0,-9.549342841E-2,1.670668919E0
3.982167972E0,1.273053527E0,-1.111296535E0,-9.366083890E-2,1.692459046E0
3.984612243E0,1.296877265E0,-1.118016124E0,-9.304997325E-2,1.714791238E0
3.987057295E0,1.321922779E0,-1.129622459E0,-9.304997325E-2,1.741317040E0
3.989503129E0,1.343913913E0,-1.149780989E0,-9.549342841E-2,1.771219897E0
3.991948181E0,1.364683270E0,-1.180324316E0,-9.854775667E-2,1.806996840E0
3.994392399E0,1.386063576E0,-1.215143561E0,-1.028238088E-1,1.846163277E0
3.996837451E0,1.406222105E0,-1.260347605E0,-1.101541817E-1,1.891578874E0
3.999283285E0,1.427602410E0,-1.312881947E0,-1.174845621E-1,1.943067232E0
4.001728337E0,1.448371768E0,-1.369692326E0,-1.254257858E-1,1.997390666E0
4.004172608E0,1.470362902E0,-1.435054898E0,-1.345887631E-1,2.058995813E0
