"Time (s)","Gyroscope x (rad/s)","Gyroscope y (rad/s)","Gyroscope z (rad/s)","Absolute (rad/s)"
9.426239700E-2,6.223183591E-4,2.063577622E-2,1.385135762E-2,2.486126804E-2
9.675896000E-2,1.233183080E-3,2.002491057E-2,1.568395272E-2,2.546574477E-2
9.925541800E-2,1.233183080E-3,2.063577622E-2,1.690568030E-2,2.670501876E-2
1.017517200E-1,-5.994110834E-4,2.185750380E-2,1.690568030E-2,2.763895426E-2
1.042479180E-1,1.145363785E-5,2.124663815E-2,1.690568030E-2,2.715182849E-2
1.067440640E-1,-1.210275805E-3,2.063577622E-2,1.629481651E-2,2.632149450E-2
1.092401050E-1,-5.994110834E-4,2.063577622E-2,1.629481651E-2,2.630048667E-2
1.117360430E-1,-1.821140526E-3,1.941404492E-2,1.690568030E-2,2.580743535E-2
1.142319280E-1,-2.432005247E-3,1.697058603E-2,1.629481651E-2,2.365240970E-2
1.167277620E-1,3.065777244E-3,1.513799187E-2,1.751654595E-2,2.335352586E-2
1.192235430E-1,-1.821140526E-3,1.269453298E-2,1.690568030E-2,2.121956048E-2
1.217192200E-1,2.454912523E-3,1.147280168E-2,1.751654595E-2,2.108272174E-2
1.242148450E-1,-1.210275805E-3,5.975021981E-3,1.873827539E-2,1.970504047E-2
1.267104700E-1,2.454912523E-3,5.364156328E-3,1.873827539E-2,1.964494167E-2
1.292060430E-1,1.844047802E-3,5.364156328E-3,1.873827539E-2,1.957798892E-2
1.316855220E-1,2.454912523E-3,5.364156328E-3,1.996000484E-2,2.081351872E-2
1.341305740E-1,3.676641965E-3,3.531559603E-3,1.996000484E-2,2.060076218E-2
1.365763550E-1,2.454912523E-3,4.142425023E-3,1.934913918E-2,1.993929456E-2
1.390214080E-1,6.120100617E-3,5.364156328E-3,2.057087049E-2,2.212217253E-2
1.414656260E-1,6.223183591E-4,4.753290676E-3,2.057087049E-2,2.112206820E-2
1.439106260E-1,6.120100617E-3,6.585883908E-3,2.179259807E-2,2.357428321E-2
1.463564600E-1,1.233183080E-3,4.142425023E-3,2.057087049E-2,2.102001756E-2
1.488014600E-1,5.509235896E-3,7.196749561E-3,1.996000484E-2,2.192137490E-2
1.512457300E-1,3.065777244E-3,7.196749561E-3,1.873827539E-2,2.030554503E-2
1.536907300E-1,6.120100617E-3,7.196749561E-3,1.934913918E-2,2.153225541E-2
1.561365640E-1,7.952694781E-3,8.418477140E-3,1.934913918E-2,2.255006206E-2
1.585815640E-1,6.120100617E-3,9.640208445E-3,1.812741160E-2,2.142410563E-2
1.610257830E-1,9.174424224E-3,1.147280168E-2,1.751654595E-2,2.286098467E-2
1.634708350E-1,6.120100617E-3,1.025107410E-2,1.629481651E-2,2.020052467E-2
1.659166680E-1,1.100701839E-2,1.269453298E-2,1.751654595E-2,2.427210340E-2
1.683616680E-1,8.563559502E-3,1.208366733E-2,1.507308707E-2,2.113167105E-2
1.708058870E-1,1.345047727E-2,1.269453298E-2,1.446222235E-2,2.347812560E-2
1.732509390E-1,1.100701839E-2,1.330539491E-2,1.324049290E-2,2.176002389E-2
1.756967200E-1,1.161788311E-2,1.330539491E-2,1.385135762E-2,2.244702318E-2
1.781417720E-1,1.283961255E-2,1.147280168E-2,1.324049290E-2,2.172076152E-2
1.805859910E-1,1.039615367E-2,1.025107410E-2,1.324049290E-2,1.970977381E-2
1.830309910E-1,1.283961255E-2,1.025107410E-2,1.324049290E-2,2.110096735E-2
1.854768240E-1,9.174424224E-3,6.585883908E-3,1.446222235E-2,1.834938151E-2
1.879218240E-1,1.406134106E-2,6.585883908E-3,1.385135762E-2,2.080757764E-2
1.903660950E-1,1.100701839E-2,2.309832023E-3,1.446222235E-2,1.832063462E-2
1.928110950E-1,1.467220671E-2,2.309832023E-3,1.446222235E-2,2.073077058E-2
1.952569280E-1,1.283961255E-2,-1.336268615E-4,1.446222235E-2,1.933983924E-2
1.977019280E-1,1.467220671E-2,-1.336268615E-4,1.629481651E-2,2.192743832E-2
2.001461470E-1,1.467220671E-2,-1.966220094E-3,1.568395272E-2,2.156678104E-2
2.025911990E-1,1.283961255E-2,-3.187951399E-3,1.629481651E-2,2.098903832E-2
2.050369800E-1,1.589393616E-2,-2.577085746E-3,1.751654595E-2,2.379260304E-2
2.074820330E-1,1.100701839E-2,-4.409679212E-3,1.690568030E-2,2.064949759E-2
2.099262510E-1,1.711566560E-2,-3.187951399E-3,1.751654595E-2,2.469693149E-2
2.123712510E-1,1.467220671E-2,-5.631410517E-3,1.812741160E-2,2.399144610E-2
2.148170850E-1,1.711566560E-2,-1.966220094E-3,1.873827539E-2,2.545456727E-2
2.172621370E-1,1.467220671E-2,-3.798815189E-3,1.812741160E-2,2.362853568E-2
2.197063550E-1,1.650479995E-2,-3.798815189E-3,1.873827539E-2,2.525791723E-2
2.221513550E-1,1.528307237E-2,-5.631410517E-3,1.934913918E-2,2.529178271E-2
2.245971890E-1,1.283961255E-2,-6.853138097E-3,1.934913918E-2,2.421178100E-2
2.270421890E-1,1.467220671E-2,-6.853138097E-3,2.057087049E-2,2.618014256E-2
2.294864080E-1,1.283961255E-2,-8.074869402E-3,1.873827539E-2,2.410771932E-2
2.319314600E-1,1.589393616E-2,-5.631410517E-3,2.057087049E-2,2.659869741E-2
2.343772930E-1,9.785288945E-3,-9.296596982E-3,2.057087049E-2,2.460364420E-2
2.368222930E-1,1.283961255E-2,-9.296596982E-3,2.057087049E-2,2.597004194E-2
2.392665120E-1,8.563559502E-3,-1.235092152E-2,2.118173428E-2,2.597201726E-2
2.417115640E-1,8.563559502E-3,-9.296596982E-3,2.179259807E-2,2.519282829E-2
2.441573450E-1,8.563559502E-3,-1.296178717E-2,2.179259807E-2,2.676303063E-2
2.466023970E-1,7.341830060E-3,-1.296178717E-2,2.179259807E-2,2.639749469E-2
2.490466160E-1,7.952694781E-3,-1.174005587E-2,2.118173428E-2,2.549000065E-2
2.514916680E-1,5.509235896E-3,-1.540524606E-2,1.996000484E-2,2.580843039E-2
2.539374490E-1,8.563559502E-3,-1.479438040E-2,2.057087049E-2,2.674638210E-2
2.563825010E-1,4.287506454E-3,-1.845956780E-2,2.057087049E-2,2.796960972E-2
2.588267200E-1,7.341830060E-3,-1.784870401E-2,2.057087049E-2,2.820708096E-2
2.612717200E-1,5.509235896E-3,-1.968129724E-2,1.996000484E-2,2.856758538E-2
2.637175530E-1,6.730965339E-3,-2.090302669E-2,2.057087049E-2,3.008991744E-2
2.661625530E-1,4.898371175E-3,-2.151389048E-2,1.934913918E-2,2.934673254E-2
2.686068240E-1,3.676641965E-3,-1.968129724E-2,1.751654595E-2,2.660264159E-2
2.710518240E-1,6.730965339E-3,-1.968129724E-2,1.873827539E-2,2.799611259E-2
2.734976580E-1,3.676641965E-3,-1.968129724E-2,1.690568030E-2,2.620444969E-2
2.759426580E-1,7.341830060E-3,-1.601610892E-2,1.812741160E-2,2.527886993E-2
2.783868760E-1,2.454912523E-3,-1.845956780E-2,1.690568030E-2,2.515122791E-2
2.808319280E-1,6.120100617E-3,-1.296178717E-2,1.751654595E-2,2.263388920E-2
2.832777100E-1,2.454912523E-3,-1.357265096E-2,1.690568030E-2,2.181846640E-2
2.857227620E-1,4.898371175E-3,-1.174005587E-2,1.751654595E-2,2.164837948E-2
2.881669800E-1,4.287506454E-3,-9.907462634E-3,1.568395272E-2,1.904013919E-2
2.906120330E-1,1.233183080E-3,-9.296596982E-3,1.507308707E-2,1.775233533E-2
2.930578140E-1,5.509235896E-3,-8.685733192E-3,1.385135762E-2,1.725264470E-2
2.955028660E-1,1.233183080E-3,-8.074869402E-3,1.385135762E-2,1.608055858E-2
2.979470850E-1,3.676641965E-3,-6.242274307E-3,1.262962818E-2,1.455991733E-2
3.003920850E-1,6.223183591E-4,-9.296596982E-3,1.201876346E-2,1.520738869E-2
3.028379180E-1,4.287506454E-3,-4.409679212E-3,1.262962818E-2,1.404761511E-2
3.052829180E-1,1.233183080E-3,-6.853138097E-3,1.018616930E-2,1.233873118E-2
3.077271890E-1,2.454912523E-3,-3.798815189E-3,8.964439854E-3,1.004085525E-2
3.101721890E-1,1.844047802E-3,-3.798815189E-3,1.079703402E-2,1.159342282E-2
3.126180220E-1,-1.821140526E-3,-1.336268615E-4,1.201876346E-2,1.215668886E-2
3.150630220E-1,2.454912523E-3,-1.336268615E-4,1.079703402E-2,1.107340938E-2
3.175072410E-1,-2.432005247E-3,4.772387911E-4,9.575304575E-3,9.890847491E-3
3.199522930E-1,1.233183080E-3,3.531559603E-3,1.079703402E-2,1.142666169E-2
3.223981260E-1,-1.821140526E-3,2.309832023E-3,1.140789874E-2,1.178100295E-2
3.248431260E-1,1.844047802E-3,4.753290676E-3,1.201876346E-2,1.305545708E-2
3.272873450E-1,-1.821140526E-3,5.975021981E-3,1.262962818E-2,1.408988816E-2
3.297323970E-1,-1.210275805E-3,6.585883908E-3,1.324049290E-2,1.483742857E-2
3.321781780E-1,-2.432005247E-3,5.975021981E-3,1.201876346E-2,1.364060894E-2
3.346232300E-1,-2.432005247E-3,6.585883908E-3,1.324049290E-2,1.498663300E-2
3.370674490E-1,-1.210275805E-3,7.196749561E-3,1.385135762E-2,1.565624731E-2
3.395124490E-1,-6.708058529E-3,4.142425023E-3,1.446222235E-2,1.647160009E-2
3.419582830E-1,-4.264599644E-3,4.753290676E-3,1.507308707E-2,1.637004997E-2
3.444033350E-1,-7.929787971E-3,2.309832023E-3,1.507308707E-2,1.718763553E-2
3.468475530E-1,-3.042869968E-3,2.309832023E-3,1.568395272E-2,1.614251388E-2
3.492925530E-1,-8.540652692E-3,-1.336268615E-4,1.568395272E-2,1.785908669E-2
3.517383870E-1,-5.486329086E-3,-2.577085746E-3,1.568395272E-2,1.681450418E-2
3.541834390E-1,-6.708058529E-3,-6.853138097E-3,1.568395272E-2,1.838341437E-2
3.566276580E-1,-7.929787971E-3,-7.464003749E-3,1.568395272E-2,1.909395879E-2
3.590726580E-1,-6.097193807E-3,-9.907462634E-3,1.629481651E-2,2.002135443E-2
3.615184910E-1,-9.151517414E-3,-1.357265096E-2,1.507308707E-2,2.225230502E-2
3.639634910E-1,-4.875464365E-3,-1.296178717E-2,1.324049290E-2,1.915955980E-2
3.664077620E-1,-9.151517414E-3,-1.784870401E-2,1.385135762E-2,2.437594334E-2
3.688527620E-1,-4.875464365E-3,-1.723783836E-2,1.324049290E-2,2.227608306E-2
3.712985950E-1,-9.151517414E-3,-1.845956780E-2,1.079703402E-2,2.326116631E-2
3.737435950E-1,-7.929787971E-3,-1.968129724E-2,1.140789874E-2,2.409097657E-2
3.761878140E-1,-7.929787971E-3,-2.029216290E-2,1.018616930E-2,2.405018622E-2
3.786328660E-1,-8.540652692E-3,-2.029216290E-2,8.964439854E-3,2.377132317E-2
3.810786990E-1,-7.318923250E-3,-1.968129724E-2,7.131845690E-3,2.217618817E-2
3.835236990E-1,-1.037324686E-2,-2.029216290E-2,6.520980969E-3,2.370441558E-2
3.859679180E-1,-6.097193807E-3,-1.662697271E-2,6.520980969E-3,1.887207425E-2
3.884129700E-1,-1.098411158E-2,-1.907043159E-2,4.077522084E-3,2.238209674E-2
3.908587510E-1,-7.929787971E-3,-1.540524606E-2,4.077522084E-3,1.779970027E-2
3.933038030E-1,-1.037324686E-2,-1.662697271E-2,2.855792642E-3,1.980444453E-2
3.957480220E-1,-9.151517414E-3,-1.357265096E-2,1.634063199E-3,1.645105734E-2
3.981930220E-1,-9.151517414E-3,-1.357265096E-2,1.023198478E-3,1.640164809E-2
4.006388550E-1,-9.762382135E-3,-1.051832829E-2,-1.985309646E-4,1.435195978E-2
4.030839080E-1,-7.929787971E-3,-9.296596982E-3,-1.985309646E-4,1.222078832E-2
4.055281260E-1,-1.037324686E-2,-9.296596982E-3,-1.985309646E-4,1.393091455E-2
4.079731260E-1,-6.097193807E-3,-4.409679212E-3,4.123337567E-4,7.535984488E-3
4.104189600E-1,-1.098411158E-2,-3.798815189E-3,-1.985309646E-4,1.162416098E-2
4.128640120E-1,-5.486329086E-3,4.772387911E-4,4.123337567E-4,5.522461664E-3
4.153082300E-1,-1.098411158E-2,4.772387911E-4,1.023198478E-3,1.104198348E-2
4.177532300E-1,-9.151517414E-3,4.142425023E-3,1.023198478E-3,1.009737051E-2
4.201990640E-1,-1.098411158E-2,4.142425023E-3,1.634063199E-3,1.185244931E-2
4.226440640E-1,-9.762382135E-3,6.585883908E-3,2.855792642E-3,1.211748833E-2
4.250882830E-1,-7.318923250E-3,7.807615213E-3,2.244927920E-3,1.093458706E-2
4.275333350E-1,-1.037324686E-2,7.807615213E-3,4.688386805E-3,1.380377037E-2
4.299791680E-1,-9.151517414E-3,1.025107410E-2,5.910116248E-3,1.495875213E-2
4.324241680E-1,-1.159497630E-2,1.086193975E-2,5.910116248E-3,1.695153930E-2
4.348683870E-1,-6.708058529E-3,1.208366733E-2,5.299251527E-3,1.480186245E-2
4.373134390E-1,-1.098411158E-2,1.025107410E-2,5.910116248E-3,1.614511385E-2
4.397592720E-1,-8.540652692E-3,1.391626056E-2,6.520980969E-3,1.758204338E-2
4.422042720E-1,-8.540652692E-3,1.025107410E-2,5.910116248E-3,1.459303747E-2
4.446484910E-1,-8.540652692E-3,1.391626056E-2,5.299251527E-3,1.716645343E-2
4.470935430E-1,-7.318923250E-3,1.208366733E-2,6.520980969E-3,1.555971871E-2
4.495393240E-1,-1.037324686E-2,1.208366733E-2,6.520980969E-3,1.720879018E-2
4.519843760E-1,-7.318923250E-3,1.269453298E-2,5.910116248E-3,1.580023035E-2
4.544285950E-1,-1.159497630E-2,9.640208445E-3,6.520980969E-3,1.642864228E-2
4.568736470E-1,-6.708058529E-3,1.269453298E-2,5.299251527E-3,1.530461642E-2
4.593194280E-1,-1.037324686E-2,7.807615213E-3,4.077522084E-3,1.360842724E-2
4.617644800E-1,-7.318923250E-3,9.640208445E-3,5.299251527E-3,1.321296042E-2
4.642086990E-1,-9.151517414E-3,9.029342793E-3,4.077522084E-3,1.348723428E-2
4.666536990E-1,-1.037324686E-2,7.807615213E-3,5.299251527E-3,1.402302294E-2
4.690995330E-1,-1.037324686E-2,8.418477140E-3,3.466657363E-3,1.380191005E-2
4.715445850E-1,-1.342756953E-2,5.364156328E-3,2.244927920E-3,1.463261761E-2
4.739888030E-1,-8.540652692E-3,3.531559603E-3,2.244927920E-3,9.510749866E-3
4.764338030E-1,-1.403843518E-2,1.088104444E-3,1.023198478E-3,1.411766867E-2
4.788796370E-1,-9.151517414E-3,1.698966371E-3,1.634063199E-3,9.450233872E-3
4.813246890E-1,-1.342756953E-2,-1.336268615E-4,4.123337567E-4,1.343456359E-2
4.837689080E-1,-1.159497630E-2,4.772387911E-4,4.123337567E-4,1.161211658E-2
4.862139080E-1,-1.098411158E-2,-7.444925141E-4,-1.985309646E-4,1.101110307E-2
4.886597410E-1,-1.098411158E-2,-7.444925141E-4,1.023198478E-3,1.105675863E-2
4.911047410E-1,-1.037324686E-2,1.088104444E-3,4.123337567E-4,1.043830641E-2
4.935490120E-1,-1.403843518E-2,-7.444925141E-4,-1.985309646E-4,1.405956422E-2
4.959940120E-1,-1.098411158E-2,-1.336268615E-4,-1.985309646E-4,1.098671825E-2
4.984398450E-1,-1.464930084E-2,-7.444925141E-4,-8.093961515E-4,1.469052096E-2
5.008848450E-1,-1.098411158E-2,1.088104444E-3,-1.985309646E-4,1.103966000E-2
5.033291160E-1,-1.526016463E-2,-7.444925141E-4,-8.093961515E-4,1.529973907E-2
5.057741160E-1,-1.281670574E-2,1.088104444E-3,-1.420259941E-3,1.294098357E-2
5.082199490E-1,-1.281670574E-2,-1.336268615E-4,-2.641989384E-3,1.308686021E-2
5.106649490E-1,-1.526016463E-2,1.088104444E-3,-2.031125594E-3,1.543314831E-2
5.131091680E-1,-1.342756953E-2,2.309832023E-3,-2.641989384E-3,1.387858261E-2
5.155542200E-1,-1.526016463E-2,2.920697676E-3,-2.641989384E-3,1.576017789E-2
5.180000530E-1,-1.281670574E-2,3.531559603E-3,-3.252855036E-3,1.368652349E-2
5.204450530E-1,-1.648189314E-2,3.531559603E-3,-4.474584479E-3,1.743979991E-2
5.228892720E-1,-1.342756953E-2,7.196749561E-3,-3.863718826E-3,1.571690653E-2
5.253343240E-1,-1.526016463E-2,5.364156328E-3,-3.863718826E-3,1.663054782E-2
5.277801050E-1,-1.220584102E-2,9.640208445E-3,-5.696313921E-3,1.656394175E-2
5.302251580E-1,-1.464930084E-2,1.147280168E-2,-5.696313921E-3,1.945957825E-2
5.326693760E-1,-1.464930084E-2,1.269453298E-2,-6.918043364E-3,2.058184896E-2
5.351144280E-1,-1.220584102E-2,1.452712622E-2,-5.696313921E-3,1.981080370E-2
5.375602100E-1,-1.587102748E-2,1.635972038E-2,-5.085448269E-3,2.335362388E-2
5.400052620E-1,-1.159497630E-2,1.880317926E-2,-5.696313921E-3,2.281339558E-2
5.424494800E-1,-1.648189314E-2,1.880317926E-2,-7.528907154E-3,2.611315367E-2
5.448945330E-1,-1.159497630E-2,2.185750380E-2,-5.696313921E-3,2.538979992E-2
5.473403140E-1,-1.403843518E-2,2.124663815E-2,-6.307177711E-3,2.623504880E-2
5.497853660E-1,-1.098411158E-2,2.307923138E-2,-5.085448269E-3,2.606076385E-2
5.522295850E-1,-1.342756953E-2,2.185750380E-2,-6.307177711E-3,2.641648324E-2
5.546745850E-1,-1.220584102E-2,2.369009703E-2,-6.307177711E-3,2.738583107E-2
5.571204180E-1,-1.098411158E-2,2.185750380E-2,-5.696313921E-3,2.511671101E-2
5.595654700E-1,-1.403843518E-2,2.063577622E-2,-6.307177711E-3,2.574283227E-2
5.620096890E-1,-1.098411158E-2,2.124663815E-2,-6.307177711E-3,2.473561866E-2
5.644546890E-1,-1.526016463E-2,2.063577622E-2,-6.307177711E-3,2.642893065E-2
5.669005220E-1,-9.762382135E-3,2.185750380E-2,-6.918043364E-3,2.491814402E-2
5.693455740E-1,-1.342756953E-2,2.185750380E-2,-6.918043364E-3,2.656895594E-2
5.717897930E-1,-9.762382135E-3,2.491182834E-2,-6.918043364E-3,2.763625554E-2
5.742347930E-1,-1.220584102E-2,2.185750380E-2,-8.139772341E-3,2.632468274E-2
5.766806260E-1,-1.159497630E-2,2.124663815E-2,-8.750636131E-3,2.573784647E-2
5.791256260E-1,-9.762382135E-3,2.124663815E-2,-9.361501783E-3,2.518653317E-2
5.815698970E-1,-1.159497630E-2,2.063577622E-2,-8.139772341E-3,2.503067377E-2
5.840148970E-1,-8.540652692E-3,1.880317926E-2,-8.750636131E-3,2.242935424E-2
5.864607300E-1,-1.281670574E-2,1.452712622E-2,-9.361501783E-3,2.151611159E-2
5.889057300E-1,-8.540652692E-3,1.452712622E-2,-1.058323123E-2,1.989937003E-2
5.913500010E-1,-1.098411158E-2,1.269453298E-2,-1.119409502E-2,2.017695810E-2
5.937950010E-1,-6.708058529E-3,1.330539491E-2,-1.302669011E-2,1.979207514E-2
5.962408350E-1,-6.708058529E-3,8.418477140E-3,-1.302669011E-2,1.689862307E-2
5.986858350E-1,-6.708058529E-3,7.807615213E-3,-1.302669011E-2,1.660275760E-2
6.011301050E-1,-5.486329086E-3,7.807615213E-3,-1.363755390E-2,1.664456483E-2
6.035751050E-1,-7.318923250E-3,5.364156328E-3,-1.485928334E-2,1.741089062E-2
6.060209390E-1,-3.042869968E-3,2.309832023E-3,-1.485928334E-2,1.534251228E-2
6.084659390E-1,-6.708058529E-3,-1.336268615E-4,-1.485928334E-2,1.630380958E-2
6.109102100E-1,-2.432005247E-3,-1.336268615E-4,-1.485928334E-2,1.505758304E-2
6.133552100E-1,-2.432005247E-3,-2.577085746E-3,-1.608101279E-2,1.646678453E-2
6.158010430E-1,-4.875464365E-3,-3.187951399E-3,-1.669187844E-2,1.767914004E-2
6.182460430E-1,-2.432005247E-3,-4.409679212E-3,-1.608101279E-2,1.685107986E-2
6.206902620E-1,-3.042869968E-3,-4.409679212E-3,-1.608101279E-2,1.695002362E-2
6.231353140E-1,-3.042869968E-3,-5.020544864E-3,-1.547014900E-2,1.654661410E-2
6.255811470E-1,-4.264599644E-3,-5.631410517E-3,-1.608101279E-2,1.756412727E-2
6.280261470E-1,1.145363785E-5,-5.020544864E-3,-1.608101279E-2,1.684651222E-2
6.304703660E-1,-3.042869968E-3,-5.631410517E-3,-1.547014900E-2,1.674208326E-2
6.329154180E-1,-3.042869968E-3,-5.631410517E-3,-1.363755390E-2,1.506501638E-2
6.353612510E-1,-2.432005247E-3,-5.631410517E-3,-1.485928334E-2,1.607562551E-2
6.378062510E-1,-1.821140526E-3,-5.020544864E-3,-1.241582446E-2,1.351573603E-2
6.402504700E-1,-1.821140526E-3,-5.020544864E-3,-1.241582446E-2,1.351573603E-2
6.426955220E-1,-2.432005247E-3,-5.631410517E-3,-1.119409502E-2,1.276460721E-2
6.451413550E-1,-2.432005247E-3,-5.631410517E-3,-1.058323123E-2,1.223242483E-2
6.475863550E-1,-3.653734690E-3,-5.631410517E-3,-9.972365573E-3,1.202125770E-2
6.500305740E-1,-1.210275805E-3,-4.409679212E-3,-9.361501783E-3,1.041862534E-2
6.524756260E-1,1.145363785E-5,-2.577085746E-3,-8.750636131E-3,9.122232995E-3
6.549214080E-1,-1.821140526E-3,-1.336268615E-4,-8.750636131E-3,8.939129803E-3
6.573664600E-1,-1.821140526E-3,1.088104444E-3,-8.139772341E-3,8.411683414E-3
6.598106780E-1,-4.264599644E-3,3.531559603E-3,-6.307177711E-3,8.392807280E-3
6.622557300E-1,-3.653734690E-3,4.142425023E-3,-5.696313921E-3,7.934573369E-3
6.647015120E-1,-3.653734690E-3,5.364156328E-3,-5.085448269E-3,8.245346226E-3
6.671465640E-1,-3.653734690E-3,5.364156328E-3,-4.474584479E-3,7.883264334E-3
6.695907830E-1,-4.875464365E-3,6.585883908E-3,-5.085448269E-3,9.643951665E-3
6.720358350E-1,-4.264599644E-3,5.975021981E-3,-4.474584479E-3,8.597069504E-3
6.744816160E-1,-4.875464365E-3,5.364156328E-3,-5.696313921E-3,9.219127843E-3
6.769266680E-1,-3.653734690E-3,4.753290676E-3,-8.139772341E-3,1.010937403E-2
6.793708870E-1,-4.875464365E-3,2.920697676E-3,-6.918043364E-3,8.953209015E-3
6.818159390E-1,-4.264599644E-3,2.309832023E-3,-7.528907154E-3,8.955812472E-3
6.842617200E-1,-4.264599644E-3,3.531559603E-3,-6.918043364E-3,8.861040985E-3
6.867067720E-1,-4.264599644E-3,4.753290676E-3,-7.528907154E-3,9.872437657E-3
6.891509910E-1,-4.264599644E-3,2.920697676E-3,-8.750636131E-3,1.016321395E-2
6.915960430E-1,-2.432005247E-3,2.309832023E-3,-8.750636131E-3,9.371424982E-3
6.940418240E-1,-3.653734690E-3,4.142425023E-3,-9.361501783E-3,1.086955279E-2
6.964868760E-1,-2.432005247E-3,2.920697676E-3,-9.972365573E-3,1.067207569E-2
6.989310950E-1,-2.432005247E-3,3.531559603E-3,-9.972365573E-3,1.085516641E-2
7.013760950E-1,-3.042869968E-3,4.753290676E-3,-1.119409502E-2,1.253637081E-2
7.038219280E-1,-2.432005247E-3,4.142425023E-3,-1.119409502E-2,1.218121906E-2
7.062669800E-1,-3.042869968E-3,2.920697676E-3,-1.119409502E-2,1.196232819E-2
7.087111990E-1,-2.432005247E-3,2.309832023E-3,-1.302669011E-2,1.345156603E-2
7.111561990E-1,-1.821140526E-3,2.920697676E-3,-1.363755390E-2,1.406520189E-2
7.136020330E-1,-1.821140526E-3,1.698966371E-3,-1.363755390E-2,1.386311350E-2
7.160470850E-1,-2.432005247E-3,-7.444925141E-4,-1.547014900E-2,1.567783239E-2
7.184913030E-1,-2.432005247E-3,-1.966220094E-3,-1.485928334E-2,1.518482705E-2
7.209363030E-1,-1.821140526E-3,-3.187951399E-3,-1.608101279E-2,1.649480400E-2
7.233821370E-1,-2.432005247E-3,-1.355358167E-3,-1.608101279E-2,1.632025176E-2
7.258271890E-1,-3.653734690E-3,-1.966220094E-3,-1.669187844E-2,1.719984315E-2
7.282714080E-1,-4.264599644E-3,-3.187951399E-3,-1.547014900E-2,1.636078709E-2
7.307164080E-1,-3.653734690E-3,-3.187951399E-3,-1.608101279E-2,1.679618360E-2
7.331622410E-1,-4.875464365E-3,-3.798815189E-3,-1.608101279E-2,1.722788791E-2
7.356072930E-1,-6.097193807E-3,-4.409679212E-3,-1.608101279E-2,1.775443650E-2
7.380515120E-1,-7.929787971E-3,-4.409679212E-3,-1.547014900E-2,1.793466805E-2
7.404965120E-1,-7.318923250E-3,-4.409679212E-3,-1.424841955E-2,1.661413158E-2
7.429423450E-1,-7.929787971E-3,-5.631410517E-3,-1.547014900E-2,1.827347344E-2
7.453873970E-1,-6.708058529E-3,-4.409679212E-3,-1.363755390E-2,1.582486007E-2
7.478316160E-1,-9.762382135E-3,-3.798815189E-3,-1.424841955E-2,1.768481161E-2
7.502766160E-1,-9.151517414E-3,-1.355358167E-3,-1.363755390E-2,1.647938540E-2
7.527224490E-1,-1.037324686E-2,-7.444925141E-4,-1.302669011E-2,1.666892842E-2
7.551675010E-1,-1.098411158E-2,4.772387911E-4,-1.241582446E-2,1.658406346E-2
7.576117200E-1,-1.037324686E-2,-1.355358167E-3,-1.241582446E-2,1.623557646E-2
7.600567200E-1,-1.098411158E-2,1.698966371E-3,-1.058323123E-2,1.534737688E-2
7.625025530E-1,-1.098411158E-2,1.698966371E-3,-1.058323123E-2,1.534737688E-2
7.649476050E-1,-1.220584102E-2,2.920697676E-3,-1.058323123E-2,1.641699769E-2
7.673918240E-1,-1.281670574E-2,3.531559603E-3,-9.361501783E-3,1.625969172E-2
7.698368240E-1,-1.526016463E-2,5.975021981E-3,-8.750636131E-3,1.857813620E-2
7.722826580E-1,-1.464930084E-2,8.418477140E-3,-7.528907154E-3,1.849749213E-2
7.747277100E-1,-1.587102748E-2,9.029342793E-3,-6.918043364E-3,1.952633782E-2
7.771719280E-1,-1.648189314E-2,1.025107410E-2,-7.528907154E-3,2.081878393E-2
7.796169280E-1,-1.831448637E-2,1.025107410E-2,-5.085448269E-3,2.159552535E-2
7.820627620E-1,-1.892535202E-2,9.029342793E-3,-5.085448269E-3,2.157683398E-2
7.845078140E-1,-1.831448637E-2,8.418477140E-3,-6.307177711E-3,2.112040859E-2
7.869520330E-1,-1.892535202E-2,8.418477140E-3,-5.696313921E-3,2.148226475E-2
7.893970330E-1,-2.014708333E-2,7.807615213E-3,-4.474584479E-3,2.206548726E-2
7.918428660E-1,-2.014708333E-2,6.585883908E-3,-3.863718826E-3,2.154546719E-2
7.942878660E-1,-2.075794525E-2,5.364156328E-3,-3.252855036E-3,2.168519150E-2
7.967321370E-1,-2.197967656E-2,4.142425023E-3,-3.863718826E-3,2.269788955E-2
7.991771370E-1,-2.320140414E-2,3.531559603E-3,-3.863718826E-3,2.378456202E-2
8.016229700E-1,-2.259054221E-2,2.920697676E-3,-5.085448269E-3,2.333934139E-2
8.040679700E-1,-2.320140414E-2,2.309832023E-3,-4.474584479E-3,2.374157502E-2
8.065122410E-1,-2.259054221E-2,1.698966371E-3,-5.085448269E-3,2.321811509E-2
8.089572410E-1,-2.503400110E-2,4.772387911E-4,-6.307177711E-3,2.582071762E-2
8.114030740E-1,-2.442313544E-2,-1.336268615E-4,-7.528907154E-3,2.555761812E-2
8.138480740E-1,-2.381226979E-2,-1.966220094E-3,-9.972365573E-3,2.589089201E-2
8.162923450E-1,-2.320140414E-2,-1.355358167E-3,-1.058323123E-2,2.553716768E-2
8.187373450E-1,-2.320140414E-2,-1.966220094E-3,-1.058323123E-2,2.557686374E-2
8.211831780E-1,-2.320140414E-2,-1.966220094E-3,-1.180496067E-2,2.610609645E-2
8.236281780E-1,-2.442313544E-2,-7.444925141E-4,-1.241582446E-2,2.740796437E-2
8.260724490E-1,-2.442313544E-2,-2.577085746E-3,-1.302669011E-2,2.779974049E-2
8.285174490E-1,-2.381226979E-2,-1.966220094E-3,-1.485928334E-2,2.813695996E-2
8.309632830E-1,-2.442313544E-2,-3.187951399E-3,-1.730274409E-2,3.010045734E-2
8.334082830E-1,-2.442313544E-2,-2.577085746E-3,-1.913533732E-2,3.113345548E-2
8.358525530E-1,-2.381226979E-2,-3.187951399E-3,-1.974620298E-2,3.109822758E-2
8.382975530E-1,-2.503400110E-2,-5.020544864E-3,-2.035706677E-2,3.265451345E-2
8.407433870E-1,-2.625572868E-2,-8.074869402E-3,-2.280052565E-2,3.569917050E-2
8.431883870E-1,-2.808832191E-2,-1.235092152E-2,-2.218966186E-2,3.786661040E-2
8.456326580E-1,-2.564486302E-2,-1.662697271E-2,-2.341138944E-2,3.849945943E-2
8.480776580E-1,-2.381226979E-2,-1.723783836E-2,-2.402225323E-2,3.796361303E-2
8.505234910E-1,-2.381226979E-2,-1.723783836E-2,-2.463311888E-2,3.835306780E-2
8.529684910E-1,-2.259054221E-2,-1.662697271E-2,-2.524398454E-2,3.773655488E-2
8.554127620E-1,-2.259054221E-2,-1.235092152E-2,-2.707657777E-2,3.736333662E-2
8.578577620E-1,-2.320140414E-2,-1.112919208E-2,-2.829830535E-2,3.824863600E-2
8.603035950E-1,-2.442313544E-2,-7.464003749E-3,-2.952003665E-2,3.903374772E-2
8.627485950E-1,-2.442313544E-2,-3.798815189E-3,-3.074176423E-2,3.944586936E-2
8.651928660E-1,-2.320140414E-2,-1.336268615E-4,-3.135263175E-2,3.900398092E-2
8.676378660E-1,-2.442313544E-2,2.309832023E-3,-3.074176423E-2,3.933040728E-2
8.700836990E-1,-2.503400110E-2,4.142425023E-3,-3.135263175E-2,4.033420897E-2
8.725286990E-1,-2.381226979E-2,4.753290676E-3,-3.440695629E-2,4.211242816E-2
8.749729700E-1,-2.564486302E-2,6.585883908E-3,-3.562868387E-2,4.438959315E-2
8.774179700E-1,-2.564486302E-2,8.418477140E-3,-3.623954952E-2,4.518666514E-2
8.798638030E-1,-2.503400110E-2,8.418477140E-3,-3.562868387E-2,4.435059281E-2
8.823088030E-1,-2.564486302E-2,8.418477140E-3,-3.623954952E-2,4.518666514E-2
8.847530740E-1,-2.625572868E-2,8.418477140E-3,-3.685041517E-2,4.602376716E-2
8.871980740E-1,-2.625572868E-2,7.807615213E-3,-3.807214275E-2,4.690213425E-2
8.896439080E-1,-2.625572868E-2,7.196749561E-3,-3.868300840E-2,4.730255418E-2
8.920889080E-1,-2.503400110E-2,9.029342793E-3,-3.807214275E-2,4.645124644E-2
8.945331780E-1,-2.381226979E-2,1.086193975E-2,-3.929387406E-2,4.721243974E-2
8.969781780E-1,-2.381226979E-2,1.147280168E-2,-3.685041517E-2,4.534977915E-2
8.994240120E-1,-2.259054221E-2,1.269453298E-2,-3.623954952E-2,4.455096760E-2
9.018690120E-1,-2.136881091E-2,1.513799187E-2,-3.562868387E-2,4.421750775E-2
9.043132830E-1,-2.197967656E-2,1.391626056E-2,-3.562868387E-2,4.411543498E-2
9.067582830E-1,-2.197967656E-2,1.513799187E-2,-3.623954952E-2,4.500633210E-2
9.092041160E-1,-2.197967656E-2,1.452712622E-2,-3.685041517E-2,4.530007369E-2
9.116491160E-1,-2.075794525E-2,1.513799187E-2,-3.623954952E-2,4.442247222E-2
9.140933870E-1,-2.136881091E-2,1.758145168E-2,-3.746127710E-2,4.657339160E-2
9.165383870E-1,-1.953621767E-2,1.635972038E-2,-3.807214275E-2,4.581257803E-2
9.189842200E-1,-1.831448637E-2,1.880317926E-2,-3.929387406E-2,4.725450772E-2
9.214292200E-1,-1.648189314E-2,2.063577622E-2,-4.295906052E-2,5.042785879E-2
9.238734910E-1,-1.342756953E-2,2.185750380E-2,-4.601338506E-2,5.268094248E-2
9.263184910E-1,-1.220584102E-2,2.491182834E-2,-4.723511264E-2,5.477898878E-2
9.287643240E-1,-1.159497630E-2,2.552269399E-2,-4.906770959E-2,5.651098574E-2
9.312093240E-1,-7.318923250E-3,3.040961176E-2,-5.273289606E-2,6.131125061E-2
9.336535950E-1,-4.875464365E-3,3.224220127E-2,-5.578722060E-2,6.461844688E-2
9.360985950E-1,-4.264599644E-3,3.468566388E-2,-6.006327271E-2,6.949013468E-2
9.385444280E-1,-1.821140526E-3,3.835085034E-2,-6.311760098E-2,7.387784396E-2
9.409894280E-1,1.145363785E-5,3.957258165E-2,-6.617192179E-2,7.710196225E-2
9.434336990E-1,1.844047802E-3,4.568123072E-2,-7.044798136E-2,8.398269721E-2
9.458786990E-1,3.065777244E-3,4.934641719E-2,-7.228057086E-2,8.757253453E-2
9.483245330E-1,4.287506454E-3,5.362246931E-2,-7.655662298E-2,9.356638525E-2
9.507695850E-1,3.676641965E-3,5.850938708E-2,-8.022181690E-2,9.935998178E-2
9.532138030E-1,5.509235896E-3,6.522890180E-2,-8.205440640E-2,1.049670754E-1
9.556588030E-1,4.287506454E-3,7.133754343E-2,-8.510872722E-2,1.111347077E-1
9.581046370E-1,6.120100617E-3,7.500273734E-2,-8.755218983E-2,1.154480497E-1
9.605496890E-1,6.120100617E-3,7.927878946E-2,-9.243910760E-2,1.219326482E-1
9.629939080E-1,6.120100617E-3,7.988964766E-2,-9.427170455E-2,1.237213228E-1
9.654389080E-1,7.341830060E-3,8.050050586E-2,-9.610429406E-2,1.255797326E-1
9.678847410E-1,9.174424224E-3,8.050050586E-2,-9.976948798E-2,1.285241309E-1
9.703297410E-1,9.174424224E-3,7.866791636E-2,-1.028238088E-1,1.297903956E-1
9.727740120E-1,9.174424224E-3,7.866791636E-2,-1.058781296E-1,1.322232561E-1
9.752190120E-1,9.785288945E-3,7.805705816E-2,-1.058781296E-1,1.319046418E-1
9.776648450E-1,9.785288945E-3,7.561359555E-2,-1.070998609E-1,1.314669081E-1
9.801098450E-1,8.563559502E-3,7.622445375E-2,-1.083215922E-1,1.327293081E-1
9.825541160E-1,7.952694781E-3,7.561359555E-2,-1.083215922E-1,1.323413334E-1
9.849991160E-1,7.952694781E-3,7.500273734E-2,-1.052672639E-1,1.294984665E-1
9.874449490E-1,5.509235896E-3,7.439186424E-2,-1.046563983E-1,1.285202819E-1
9.898900010E-1,6.120100617E-3,7.317013294E-2,-1.016020775E-1,1.253567156E-1
9.923342200E-1,3.676641965E-3,7.194840163E-2,-9.976948798E-2,1.230611268E-1
9.947792200E-1,3.065777244E-3,7.072667032E-2,-9.549342841E-2,1.188724348E-1
9.972250530E-1,4.898371175E-3,7.011581212E-2,-9.304997325E-2,1.166126866E-1
9.996701050E-1,4.287506454E-3,6.950495392E-2,-8.999565244E-2,1.137916464E-1
1.002114324E0,4.898371175E-3,6.828322262E-2,-8.571959287E-2,1.097016004E-1
1.004559324E0,3.676641965E-3,6.767234951E-2,-8.327613771E-2,1.073684297E-1
1.007005158E0,4.287506454E-3,6.767234951E-2,-8.022181690E-2,1.050403232E-1
1.009450210E0,1.844047802E-3,6.767234951E-2,-7.838921994E-2,1.035751766E-1
1.011894428E0,2.454912523E-3,6.461802870E-2,-7.594575733E-2,9.974604897E-2
1.014339428E0,2.454912523E-3,6.339629740E-2,-7.533489168E-2,9.849092863E-2
1.016785262E0,2.454912523E-3,6.278543919E-2,-7.350230217E-2,9.669863698E-2
1.019230314E0,3.065777244E-3,6.156371161E-2,-7.044798136E-2,9.360773288E-2
1.021674533E0,3.676641965E-3,5.912025273E-2,-6.922625005E-2,9.110980010E-2
1.024119533E0,3.676641965E-3,5.912025273E-2,-6.678278744E-2,8.926736625E-2
1.026565366E0,3.676641965E-3,5.728765577E-2,-6.495019794E-2,8.668287842E-2
1.029010418E0,3.676641965E-3,5.606593192E-2,-6.433933228E-2,8.541929581E-2
1.031454637E0,1.844047802E-3,5.484420061E-2,-6.372846663E-2,8.409877711E-2
1.033899637E0,2.454912523E-3,5.178987235E-2,-6.189586967E-2,8.074228233E-2
1.036345470E0,1.844047802E-3,5.056814849E-2,-6.189586967E-2,7.994771314E-2
1.038790522E0,1.233183080E-3,4.934641719E-2,-6.189586967E-2,7.916873317E-2
1.041234741E0,1.844047802E-3,4.751382023E-2,-6.250673532E-2,7.853696955E-2
1.043679741E0,1.844047802E-3,4.568123072E-2,-6.250673532E-2,7.744202550E-2
1.046125574E0,2.454912523E-3,4.568123072E-2,-6.311760098E-2,7.795276127E-2
1.048570626E0,3.676641965E-3,4.507036507E-2,-6.311760098E-2,7.764462027E-2
1.051014845E0,2.454912523E-3,4.812468588E-2,-6.433933228E-2,8.038383958E-2
1.053459897E0,2.454912523E-3,4.629209638E-2,-6.495019794E-2,7.979669789E-2
1.055905678E0,-5.994110834E-4,4.568123072E-2,-6.495019794E-2,7.940820075E-2
1.058350730E0,-5.994110834E-4,4.690295458E-2,-6.433933228E-2,7.962283668E-2
1.060794949E0,-2.432005247E-3,4.629209638E-2,-6.433933228E-2,7.929957449E-2
1.063240001E0,-3.042869968E-3,4.445949942E-2,-6.311760098E-2,7.726407768E-2
1.065685783E0,-4.875464365E-3,4.201603681E-2,-6.189586967E-2,7.496810111E-2
1.068130835E0,-4.264599644E-3,4.079431295E-2,-6.006327271E-2,7.273210783E-2
1.070575053E0,-5.486329086E-3,3.957258165E-2,-5.639808625E-2,6.911463780E-2
1.073020105E0,-5.486329086E-3,3.590739518E-2,-5.517635494E-2,6.605960173E-2
1.075465887E0,-6.708058529E-3,3.163133562E-2,-5.395462736E-2,6.290183826E-2
1.077910939E0,-8.540652692E-3,2.918788046E-2,-4.784597829E-2,5.669314555E-2
1.080355158E0,-9.151517414E-3,2.552269399E-2,-4.356992617E-2,5.131760562E-2
1.082800210E0,-1.159497630E-2,2.430096269E-2,-3.990473971E-2,4.813905394E-2
1.085245991E0,-1.098411158E-2,2.124663815E-2,-3.685041517E-2,4.393203203E-2
1.087691043E0,-1.159497630E-2,1.819231361E-2,-3.196349740E-2,3.856253254E-2
1.090135262E0,-1.342756953E-2,1.635972038E-2,-2.829830535E-2,3.533743284E-2
1.092580314E0,-1.342756953E-2,1.391626056E-2,-2.341138944E-2,3.036535999E-2
1.095026095E0,-1.464930084E-2,1.147280168E-2,-1.913533732E-2,2.669060374E-2
1.097471147E0,-1.709275879E-2,1.025107410E-2,-1.547014900E-2,2.523038710E-2
1.099915366E0,-1.587102748E-2,7.807615213E-3,-1.119409502E-2,2.093217934E-2
1.102360418E0,-1.648189314E-2,6.585883908E-3,-8.139772341E-3,1.952645800E-2
1.104806199E0,-1.770362258E-2,4.142425023E-3,-5.085448269E-3,1.887961127E-2
1.107251251E0,-1.709275879E-2,2.309832023E-3,-8.093961515E-4,1.726710309E-2
1.109695470E0,-2.014708333E-2,3.531559603E-3,1.023198478E-3,2.047983923E-2
1.112140522E0,-2.136881091E-2,1.698966371E-3,3.466657363E-3,2.171474797E-2
1.114586303E0,-2.136881091E-2,-7.444925141E-4,5.299251527E-3,2.202867258E-2
1.117031355E0,-2.197967656E-2,-2.577085746E-3,7.742710412E-3,2.344562043E-2
1.119475574E0,-2.197967656E-2,-3.798815189E-3,9.575304575E-3,2.427392915E-2
1.121920626E0,-2.259054221E-2,-5.631410517E-3,1.018616930E-2,2.541266273E-2
1.124366408E0,-2.503400110E-2,-6.853138097E-3,1.201876346E-2,2.860275140E-2
1.126811460E0,-2.442313544E-2,-9.296596982E-3,1.201876346E-2,2.876398678E-2
1.129255678E0,-2.625572868E-2,-8.074869402E-3,1.324049290E-2,3.049389212E-2
1.131700730E0,-2.686659433E-2,-9.907462634E-3,1.507308707E-2,3.236000093E-2
1.134146564E0,-2.625572868E-2,-1.051832829E-2,1.629481651E-2,3.264229715E-2
1.136591564E0,-2.747745998E-2,-1.235092152E-2,1.568395272E-2,3.396384022E-2
1.139035783E0,-2.747745998E-2,-1.357265096E-2,1.690568030E-2,3.500042411E-2
1.141480835E0,-2.808832191E-2,-1.296178717E-2,1.873827539E-2,3.616745387E-2
1.143926668E0,-2.747745998E-2,-1.601610892E-2,1.996000484E-2,3.754901257E-2
1.146371668E0,-2.869918756E-2,-1.540524606E-2,1.934913918E-2,3.788606815E-2
1.148815887E0,-2.931005321E-2,-1.845956780E-2,2.118173428E-2,4.060173309E-2
1.151260939E0,-2.931005321E-2,-1.968129724E-2,2.301432937E-2,4.214370697E-2
1.153706772E0,-2.931005321E-2,-2.151389048E-2,2.362519316E-2,4.335984842E-2
1.156151772E0,-2.931005321E-2,-2.334648557E-2,2.545778826E-2,4.530161797E-2
1.158595991E0,-3.236437589E-2,-2.578994446E-2,2.729038149E-2,4.957155418E-2
1.161041043E0,-3.053178079E-2,-2.762253955E-2,2.790124714E-2,4.973604248E-2
1.163486876E0,-3.053178079E-2,-2.823340334E-2,2.912297472E-2,5.076871438E-2
1.165931876E0,-3.175351024E-2,-2.945513278E-2,3.034470603E-2,5.288375406E-2
1.168376095E0,-3.297523782E-2,-3.067686222E-2,3.217729926E-2,5.535173685E-2
1.170821147E0,-3.419696912E-2,-3.128772601E-2,3.278816491E-2,5.677515526E-2
1.173266980E0,-3.480783105E-2,-3.128772601E-2,3.400989249E-2,5.785481561E-2
1.175711980E0,-3.419696912E-2,-3.312032297E-2,3.400989249E-2,5.850693359E-2
1.178156251E0,-3.602956235E-2,-3.250945732E-2,3.523162380E-2,5.996883769E-2
1.180601251E0,-3.602956235E-2,-3.250945732E-2,3.523162380E-2,5.996883769E-2
1.183047085E0,-3.602956235E-2,-3.067686222E-2,3.462075815E-2,5.863272238E-2
1.185492085E0,-3.602956235E-2,-3.189859167E-2,3.462075815E-2,5.928107968E-2
1.187936355E0,-3.664042801E-2,-3.006599844E-2,3.462075815E-2,5.869482193E-2
1.190381355E0,-3.664042801E-2,-2.762253955E-2,3.523162380E-2,5.785147337E-2
1.192827189E0,-3.602956235E-2,-2.578994446E-2,3.584248945E-2,5.699065405E-2
1.195272189E0,-3.664042801E-2,-2.273562178E-2,3.339902684E-2,5.454286806E-2
1.197716460E0,-3.786215559E-2,-1.907043159E-2,3.278816491E-2,5.359373046E-2
1.200161460E0,-3.908388689E-2,-1.479438040E-2,3.217729926E-2,5.274279566E-2
1.202607293E0,-3.847302124E-2,-1.112919208E-2,3.217729926E-2,5.137519700E-2
1.205052293E0,-3.908388689E-2,-9.296596982E-3,3.034470603E-2,5.034657996E-2
1.207496564E0,-4.091648012E-2,-7.464003749E-3,2.851211093E-2,5.042628449E-2
1.209941564E0,-4.030561447E-2,-5.631410517E-3,2.667951584E-2,4.866263359E-2
1.212387397E0,-3.908388689E-2,-5.631410517E-3,2.545778826E-2,4.698257104E-2
1.214832397E0,-3.969474882E-2,-4.409679212E-3,2.667951584E-2,4.803035415E-2
1.217276668E0,-3.969474882E-2,-3.187951399E-3,2.606865205E-2,4.759633114E-2
1.219721668E0,-3.969474882E-2,-1.966220094E-3,2.545778826E-2,4.719786106E-2
1.222167501E0,-3.969474882E-2,-1.355358167E-3,2.545778826E-2,4.717636127E-2
1.224612553E0,-3.908388689E-2,-1.336268615E-4,2.423605695E-2,4.598863476E-2
1.227056772E0,-4.030561447E-2,-1.355358167E-3,2.362519316E-2,4.673894849E-2
1.229501772E0,-3.908388689E-2,-3.187951399E-3,2.301432937E-2,4.546836928E-2
1.231947605E0,-3.908388689E-2,-2.577085746E-3,2.423605695E-2,4.606059099E-2
1.234392658E0,-3.602956235E-2,-1.355358167E-3,2.423605695E-2,4.344367406E-2
1.236836876E0,-3.725129366E-2,-5.020544864E-3,2.362519316E-2,4.439610909E-2
1.239281876E0,-3.602956235E-2,-4.409679212E-3,2.240346372E-2,4.265547820E-2
1.241727710E0,-3.419696912E-2,-3.798815189E-3,2.240346372E-2,4.105823767E-2
1.244172762E0,-3.602956235E-2,-5.631410517E-3,2.301432937E-2,4.312193762E-2
1.246616980E0,-3.053178079E-2,-7.464003749E-3,2.240346372E-2,3.859813696E-2
1.249061980E0,-3.419696912E-2,-9.296596982E-3,2.179259807E-2,4.160260500E-2
1.251507814E0,-2.931005321E-2,-6.853138097E-3,2.118173428E-2,3.680639331E-2
1.253952866E0,-3.175351024E-2,-9.907462634E-3,1.934913918E-2,3.848158541E-2
1.256397085E0,-2.686659433E-2,-8.685733192E-3,2.057087049E-2,3.493446099E-2
1.258842137E0,-2.564486302E-2,-8.685733192E-3,1.996000484E-2,3.363781731E-2
1.261287918E0,-2.564486302E-2,-8.074869402E-3,1.812741160E-2,3.242630979E-2
1.263732970E0,-2.014708333E-2,-7.464003749E-3,1.629481651E-2,2.696548467E-2
1.266177189E0,-2.259054221E-2,-6.242274307E-3,1.629481651E-2,2.854504565E-2
1.268622241E0,-1.464930084E-2,-1.355358167E-3,1.690568030E-2,2.241073486E-2
1.271068022E0,-1.587102748E-2,-1.355358167E-3,1.629481651E-2,2.278700406E-2
1.273513074E0,-1.037324686E-2,3.531559603E-3,1.385135762E-2,1.766171769E-2
1.275957293E0,-1.159497630E-2,2.309832023E-3,1.201876346E-2,1.685910657E-2
1.278402345E0,-7.929787971E-3,6.585883908E-3,1.201876346E-2,1.583370074E-2
1.280848126E0,-5.486329086E-3,8.418477140E-3,1.201876346E-2,1.566592606E-2
1.283293178E0,-6.708058529E-3,7.196749561E-3,1.079703402E-2,1.460709407E-2
1.285737397E0,-6.097193807E-3,5.364156328E-3,1.018616930E-2,1.302720194E-2
1.288182449E0,-1.098411158E-2,1.088104444E-3,1.018616930E-2,1.501974445E-2
1.290628230E0,-1.037324686E-2,-2.577085746E-3,1.140789874E-2,1.563284283E-2
1.293073283E0,-1.709275879E-2,-6.242274307E-3,1.140789874E-2,2.147716334E-2
1.295517501E0,-1.464930084E-2,-8.685733192E-3,1.262962818E-2,2.120262918E-2
1.297962553E0,-2.197967656E-2,-1.235092152E-2,1.446222235E-2,2.906556931E-2
1.300408387E0,-2.197967656E-2,-1.357265096E-2,1.751654595E-2,3.121141486E-2
1.302853387E0,-2.442313544E-2,-1.601610892E-2,1.996000484E-2,3.537523262E-2
1.305297605E0,-2.747745998E-2,-1.723783836E-2,2.362519316E-2,4.012858869E-2
1.307742658E0,-2.625572868E-2,-1.907043159E-2,2.729038149E-2,4.240058456E-2
1.310188491E0,-3.297523782E-2,-2.212475613E-2,3.156643361E-2,5.072781164E-2
1.312633491E0,-2.808832191E-2,-2.395734936E-2,3.767508268E-2,5.274770394E-2
1.315077710E0,-3.175351024E-2,-3.067686222E-2,4.011854157E-2,5.965612010E-2
1.317522762E0,-2.625572868E-2,-3.189859167E-2,4.439459369E-2,6.064456602E-2
1.319968595E0,-2.931005321E-2,-3.678550944E-2,4.928151146E-2,6.812430033E-2
1.322413595E0,-2.564486302E-2,-4.167242721E-2,5.416842923E-2,7.299636233E-2
1.324857814E0,-2.564486302E-2,-4.717021063E-2,5.844448134E-2,7.936274422E-2
1.327302866E0,-2.442313544E-2,-5.144626275E-2,6.149880588E-2,8.381712606E-2
1.329748699E0,-2.014708333E-2,-5.450058728E-2,6.455313414E-2,8.685232357E-2
1.332193699E0,-2.197967656E-2,-6.060923263E-2,6.699658930E-2,9.297918176E-2
1.334637918E0,-1.770362258E-2,-6.366355717E-2,6.944005191E-2,9.585607740E-2
1.337082970E0,-1.709275879E-2,-6.549615413E-2,7.066177577E-2,9.785190424E-2
1.339528803E0,-1.709275879E-2,-6.916134804E-2,7.188349962E-2,1.012061855E-1
1.341973803E0,-1.342756953E-2,-7.099393755E-2,7.249436527E-2,1.023517063E-1
1.344418022E0,-1.098411158E-2,-7.343740016E-2,7.127264142E-2,1.029246903E-1
1.346863074E0,-1.037324686E-2,-7.526998967E-2,7.066177577E-2,1.037606002E-1
1.349308908E0,-9.151517414E-3,-7.404825836E-2,6.944005191E-2,1.019255397E-1
1.351753908E0,-7.929787971E-3,-7.526998967E-2,6.638572365E-2,1.006753057E-1
1.354198178E0,-6.708058529E-3,-7.588085532E-2,6.455313414E-2,9.984993431E-2
1.356643178E0,-4.875464365E-3,-7.404825836E-2,6.272053719E-2,9.716367894E-2
1.359089012E0,-3.653734690E-3,-7.221566886E-2,6.027707830E-2,9.413702127E-2
1.361534012E0,-1.210275805E-3,-6.855047494E-2,5.600102246E-2,8.852540256E-2
1.363978283E0,-5.994110834E-4,-6.610701978E-2,5.294669792E-2,8.469858428E-2
1.366423283E0,1.844047802E-3,-5.999836698E-2,5.050324276E-2,7.844604568E-2
1.368869116E0,3.065777244E-3,-5.450058728E-2,4.867064580E-2,7.313374575E-2
1.371314168E0,4.287506454E-3,-4.900280386E-2,4.561632499E-2,6.708581522E-2
1.373758387E0,4.898371175E-3,-4.045069590E-2,4.317286238E-2,5.936454232E-2
1.376203387E0,7.952694781E-3,-3.312032297E-2,4.134026915E-2,5.356509126E-2
1.378649220E0,6.730965339E-3,-2.640080824E-2,3.889681026E-2,4.748968750E-2
1.381094272E0,7.952694781E-3,-2.273562178E-2,3.889681026E-2,4.575058142E-2
1.383538491E0,6.730965339E-3,-1.601610892E-2,3.767508268E-2,4.148775114E-2
1.385983491E0,9.174424224E-3,-1.479438040E-2,3.584248945E-2,3.984630223E-2
1.388429324E0,7.952694781E-3,-9.907462634E-3,3.400989249E-2,3.630531583E-2
1.390874376E0,9.785288945E-3,-9.296596982E-3,3.400989249E-2,3.659031815E-2
1.393318595E0,9.174424224E-3,-8.685733192E-3,3.462075815E-2,3.685388603E-2
1.395763595E0,9.174424224E-3,-6.242274307E-3,3.462075815E-2,3.635564527E-2
1.398209428E0,9.785288945E-3,-6.853138097E-3,3.278816491E-2,3.489672105E-2
1.400654480E0,1.100701839E-2,-5.631410517E-3,3.095556982E-2,3.333338478E-2
1.403098699E0,1.100701839E-2,-4.409679212E-3,3.156643361E-2,3.372001565E-2
1.405543699E0,1.222874783E-2,-5.020544864E-3,3.095556982E-2,3.365999773E-2
1.407989533E0,1.222874783E-2,-7.464003749E-3,2.973384038E-2,3.300537667E-2
1.410434585E0,1.345047727E-2,-7.464003749E-3,2.851211093E-2,3.239702395E-2
1.412878803E0,1.345047727E-2,-7.464003749E-3,2.667951584E-2,3.079648123E-2
1.415323855E0,1.222874783E-2,-8.074869402E-3,2.545778826E-2,2.937421952E-2
1.417769637E0,1.345047727E-2,-8.685733192E-3,2.362519316E-2,2.853956993E-2
1.420214689E0,1.345047727E-2,-8.074869402E-3,2.240346372E-2,2.735021099E-2
1.422658908E0,1.283961255E-2,-7.464003749E-3,1.934913918E-2,2.439172379E-2
1.425103960E0,1.345047727E-2,-6.853138097E-3,1.751654595E-2,2.312380208E-2
1.427549741E0,1.406134106E-2,-4.409679212E-3,1.385135762E-2,2.022440830E-2
1.429994793E0,1.406134106E-2,-6.242274307E-3,1.201876346E-2,1.952275534E-2
1.432439012E0,1.345047727E-2,-5.631410517E-3,9.575304575E-3,1.744461467E-2
1.434884064E0,1.345047727E-2,-5.631410517E-3,5.910116248E-3,1.573396318E-2
1.437329845E0,1.467220671E-2,-5.631410517E-3,2.244927920E-3,1.587533104E-2
1.439774897E0,1.406134106E-2,-5.020544864E-3,-1.985309646E-4,1.493206609E-2
1.442219116E0,1.406134106E-2,-5.020544864E-3,-3.252855036E-3,1.528097671E-2
1.444664168E0,1.406134106E-2,-4.409679212E-3,-6.307177711E-3,1.602956874E-2
1.447110001E0,1.589393616E-2,-3.798815189E-3,-8.139772341E-3,1.825661790E-2
1.449555001E0,1.711566560E-2,-5.020544864E-3,-9.361501783E-3,2.014421990E-2
1.451999220E0,1.833739504E-2,-5.020544864E-3,-1.058323123E-2,2.175938213E-2
1.454444272E0,1.894825883E-2,-2.577085746E-3,-1.302669011E-2,2.313811874E-2
1.456890105E0,2.078085579E-2,-2.577085746E-3,-1.302669011E-2,2.466130559E-2
1.459335105E0,2.200258337E-2,-1.966220094E-3,-1.485928334E-2,2.662288485E-2
1.461779324E0,2.200258337E-2,-7.444925141E-4,-1.608101279E-2,2.726292200E-2
1.464224376E0,2.322431467E-2,-1.336268615E-4,-1.730274409E-2,2.896155385E-2
1.466670210E0,2.383517660E-2,1.088104444E-3,-1.730274409E-2,2.947345531E-2
1.469115210E0,2.383517660E-2,1.698966371E-3,-1.730274409E-2,2.950232336E-2
1.471559480E0,2.444604225E-2,1.698966371E-3,-1.791360788E-2,3.035445298E-2
1.474004480E0,2.566777356E-2,2.920697676E-3,-1.791360788E-2,3.143664139E-2
1.476450314E0,2.688950114E-2,5.364156328E-3,-1.730274409E-2,3.242228243E-2
1.478895314E0,2.750036679E-2,5.975021981E-3,-1.791360788E-2,3.335968238E-2
1.481339585E0,2.811123244E-2,8.418477140E-3,-1.730274409E-2,3.406606963E-2
1.483784585E0,3.055469133E-2,1.025107410E-2,-1.852447167E-2,3.717297046E-2
1.486230418E0,3.116555326E-2,1.147280168E-2,-1.791360788E-2,3.773346307E-2
1.488675418E0,3.299815208E-2,1.269453298E-2,-1.669187844E-2,3.909792851E-2
1.491119689E0,3.360901400E-2,1.697058603E-2,-1.791360788E-2,4.169489129E-2
1.493564689E0,3.666333854E-2,1.880317926E-2,-1.730274409E-2,4.468942712E-2
1.496010522E0,3.483074531E-2,2.063577622E-2,-1.791360788E-2,4.427090948E-2
1.498455522E0,3.605247289E-2,2.002491057E-2,-1.791360788E-2,4.496304251E-2
1.500899793E0,3.666333854E-2,2.246836945E-2,-1.730274409E-2,4.635097596E-2
1.503344793E0,3.666333854E-2,2.124663815E-2,-1.852447167E-2,4.624690342E-2
1.505790626E0,3.849593550E-2,1.880317926E-2,-1.852447167E-2,4.667603937E-2
1.508235626E0,3.788506985E-2,1.880317926E-2,-1.791360788E-2,4.593185621E-2
1.510679897E0,3.727420419E-2,1.880317926E-2,-1.852447167E-2,4.567364557E-2
1.513124897E0,3.666333854E-2,1.513799187E-2,-1.730274409E-2,4.327521397E-2
1.515570730E0,3.605247289E-2,1.330539491E-2,-1.791360788E-2,4.239943021E-2
1.518015730E0,3.605247289E-2,8.418477140E-3,-1.852447167E-2,4.139815949E-2
1.520460001E0,3.788506985E-2,1.025107410E-2,-2.096793056E-2,4.449738362E-2
1.522905001E0,3.910679743E-2,8.418477140E-3,-1.913533732E-2,4.434381013E-2
1.525350835E0,3.666333854E-2,8.418477140E-3,-2.035706677E-2,4.277243642E-2
1.527795887E0,3.605247289E-2,9.029342793E-3,-1.974620298E-2,4.208589270E-2
1.530240105E0,3.544161096E-2,1.086193975E-2,-2.096793056E-2,4.258806916E-2
1.532685105E0,3.605247289E-2,1.086193975E-2,-2.096793056E-2,4.309775688E-2
1.535130939E0,3.421987966E-2,1.147280168E-2,-2.280052565E-2,4.269062323E-2
1.537575991E0,3.238728642E-2,1.208366733E-2,-2.402225323E-2,4.209536778E-2
1.540020210E0,3.116555326E-2,1.147280168E-2,-2.524398454E-2,4.171541254E-2
1.542465262E0,3.177642077E-2,1.269453298E-2,-2.646571212E-2,4.325882572E-2
1.544911043E0,2.933296002E-2,1.269453298E-2,-2.585484646E-2,4.111017875E-2
1.547356095E0,2.811123244E-2,1.208366733E-2,-2.585484646E-2,4.005907502E-2
1.549800314E0,2.688950114E-2,1.147280168E-2,-2.585484646E-2,3.902747155E-2
1.552245366E0,2.566777356E-2,1.086193975E-2,-2.524398454E-2,3.760418979E-2
1.554691147E0,2.566777356E-2,8.418477140E-3,-2.402225323E-2,3.614932928E-2
1.557136199E0,2.261344902E-2,6.585883908E-3,-2.402225323E-2,3.364239281E-2
1.559580418E0,2.078085579E-2,4.753290676E-3,-2.341138944E-2,3.166276828E-2
1.562025470E0,2.016999014E-2,1.698966371E-3,-2.096793056E-2,2.914393763E-2
1.564471303E0,2.078085579E-2,-1.355358167E-3,-1.791360788E-2,2.746958883E-2
1.566916303E0,1.955912448E-2,-3.798815189E-3,-1.730274409E-2,2.638892382E-2
1.569360522E0,2.016999014E-2,-6.242274307E-3,-1.608101279E-2,2.654041188E-2
1.571805574E0,1.772653125E-2,-8.685733192E-3,-1.302669011E-2,2.365093078E-2
1.574251408E0,1.589393616E-2,-1.296178717E-2,-1.241582446E-2,2.397452461E-2
1.576696408E0,1.650479995E-2,-1.357265096E-2,-1.058323123E-2,2.384596525E-2
1.579140626E0,1.528307237E-2,-1.479438040E-2,-6.918043364E-3,2.236750582E-2
1.581585678E0,1.467220671E-2,-1.296178717E-2,-6.918043364E-3,2.076393269E-2
1.584031512E0,1.222874783E-2,-1.418351475E-2,-4.474584479E-3,1.925451299E-2
1.586476512E0,1.406134106E-2,-1.235092152E-2,-2.641989384E-3,1.890097042E-2
1.588920730E0,1.406134106E-2,-8.685733192E-3,-1.420259941E-3,1.658856268E-2
1.591365783E0,1.161788311E-2,-5.631410517E-3,-1.985309646E-4,1.291229673E-2
1.593811616E0,9.785288945E-3,-3.187951399E-3,2.244927920E-3,1.053349967E-2
1.596256616E0,1.039615367E-2,-1.355358167E-3,2.244927920E-3,1.072178661E-2
1.598700887E0,9.174424224E-3,1.698966371E-3,2.855792642E-3,9.757668686E-3
1.601145887E0,7.341830060E-3,5.364156328E-3,2.244927920E-3,9.365700353E-3
1.603591720E0,6.730965339E-3,5.975021981E-3,2.855792642E-3,9.442580880E-3
1.606036720E0,6.730965339E-3,7.807615213E-3,3.466657363E-3,1.087577413E-2
1.608480991E0,5.509235896E-3,1.208366733E-2,3.466657363E-3,1.372532002E-2
1.610925991E0,4.287506454E-3,1.269453298E-2,4.077522084E-3,1.400571546E-2
1.613371824E0,4.287506454E-3,1.513799187E-2,2.855792642E-3,1.599053035E-2
1.615816824E0,3.065777244E-3,1.635972038E-2,4.077522084E-3,1.713667492E-2
1.618261095E0,1.233183080E-3,1.697058603E-2,2.855792642E-3,1.725332091E-2
1.620706095E0,6.223183591E-4,1.819231361E-2,4.077522084E-3,1.865405428E-2
1.623151928E0,1.233183080E-3,1.941404492E-2,2.855792642E-3,1.966167419E-2
1.625596928E0,1.233183080E-3,2.002491057E-2,4.077522084E-3,2.047300589E-2
1.628041199E0,1.145363785E-5,2.124663815E-2,4.688386805E-3,2.175777412E-2
1.630486199E0,-2.432005247E-3,2.246836945E-2,4.688386805E-3,2.308079822E-2
1.632932033E0,-3.653734690E-3,2.369009703E-2,4.688386805E-3,2.442440266E-2
1.635377085E0,-3.653734690E-3,2.430096269E-2,4.077522084E-3,2.491009336E-2
1.637821303E0,-4.875464365E-3,2.491182834E-2,5.299251527E-3,2.593166811E-2
1.640266303E0,-6.097193807E-3,2.613355592E-2,4.077522084E-3,2.714340995E-2
1.642712137E0,-7.318923250E-3,2.491182834E-2,5.299251527E-3,2.649996029E-2
1.645157189E0,-6.708058529E-3,2.735528722E-2,6.520980969E-3,2.891077621E-2
1.647601408E0,-8.540652692E-3,2.674442157E-2,5.299251527E-3,2.857077003E-2
1.650046408E0,-9.762382135E-3,2.674442157E-2,5.299251527E-3,2.895945885E-2
1.652492241E0,-1.037324686E-2,2.613355592E-2,4.077522084E-3,2.841114538E-2
1.654937293E0,-1.159497630E-2,2.552269399E-2,4.688386805E-3,2.842239179E-2
1.657381512E0,-1.342756953E-2,2.552269399E-2,4.077522084E-3,2.912616896E-2
1.659826564E0,-1.342756953E-2,2.491182834E-2,3.466657363E-3,2.851169108E-2
1.662272345E0,-1.403843518E-2,2.369009703E-2,5.299251527E-3,2.804247540E-2
1.664717397E0,-1.526016463E-2,2.185750380E-2,4.688386805E-3,2.706665971E-2
1.667161616E0,-1.587102748E-2,2.124663815E-2,3.466657363E-3,2.674559514E-2
1.669606668E0,-1.709275879E-2,2.063577622E-2,4.077522084E-3,2.710394528E-2
1.672052449E0,-1.709275879E-2,2.002491057E-2,4.688386805E-3,2.674210944E-2
1.674497501E0,-1.953621767E-2,2.124663815E-2,5.299251527E-3,2.934562149E-2
1.676941720E0,-1.953621767E-2,2.124663815E-2,4.688386805E-3,2.924148431E-2
1.679386772E0,-2.197967656E-2,2.185750380E-2,5.299251527E-3,3.144739609E-2
1.681832553E0,-2.320140414E-2,2.124663815E-2,3.466657363E-3,3.165031595E-2
1.684277605E0,-2.381226979E-2,2.063577622E-2,4.688386805E-3,3.185656014E-2
1.686721824E0,-2.442313544E-2,2.063577622E-2,4.077522084E-3,3.223276270E-2
1.689166876E0,-2.442313544E-2,2.063577622E-2,4.688386805E-3,3.231572026E-2
1.691612710E0,-2.442313544E-2,2.124663815E-2,4.688386805E-3,3.270917529E-2
1.694057710E0,-2.625572868E-2,2.063577622E-2,5.299251527E-3,3.381243285E-2
1.696501928E0,-2.442313544E-2,2.002491057E-2,5.910116248E-3,3.213123188E-2
1.698946980E0,-2.381226979E-2,1.819231361E-2,5.910116248E-3,3.054363995E-2
1.701392814E0,-2.442313544E-2,2.002491057E-2,7.131845690E-3,3.237823051E-2
1.703837814E0,-2.503400110E-2,2.002491057E-2,7.742710412E-3,3.297950604E-2
1.706282033E0,-2.320140414E-2,2.063577622E-2,8.353575133E-3,3.215466734E-2
1.708727085E0,-2.442313544E-2,2.124663815E-2,9.575304575E-3,3.375789738E-2
1.711172918E0,-2.503400110E-2,2.307923138E-2,9.575304575E-3,3.537002389E-2
1.713617918E0,-2.381226979E-2,2.613355592E-2,1.140789874E-2,3.715006179E-2
1.716062137E0,-2.442313544E-2,2.552269399E-2,1.079703402E-2,3.693877904E-2
1.718507189E0,-2.503400110E-2,2.674442157E-2,1.201876346E-2,3.855406556E-2
1.720953022E0,-2.503400110E-2,2.918788046E-2,1.201876346E-2,4.028751980E-2
1.723398022E0,-2.381226979E-2,2.979874611E-2,1.140789874E-2,3.981368629E-2
1.725842293E0,-2.381226979E-2,2.918788046E-2,1.140789874E-2,3.935856593E-2
1.728287293E0,-2.442313544E-2,3.040961176E-2,1.262962818E-2,4.099684793E-2
1.730733126E0,-2.381226979E-2,3.163133562E-2,1.201876346E-2,4.137651823E-2
1.733178126E0,-2.197967656E-2,3.163133562E-2,1.201876346E-2,4.034969950E-2
1.735622397E0,-2.197967656E-2,3.102047741E-2,1.262962818E-2,4.006099985E-2
1.738067397E0,-2.259054221E-2,3.163133562E-2,1.201876346E-2,4.068568133E-2
1.740513230E0,-2.075794525E-2,3.163133562E-2,1.201876346E-2,3.969740998E-2
1.742958230E0,-2.259054221E-2,3.285306692E-2,1.201876346E-2,4.164261373E-2
1.745402501E0,-2.197967656E-2,3.407479823E-2,1.324049290E-2,4.265569960E-2
1.747847501E0,-2.136881091E-2,3.590739518E-2,1.262962818E-2,4.365174242E-2
1.750293335E0,-2.136881091E-2,3.590739518E-2,1.446222235E-2,4.421677265E-2
1.752738387E0,-2.075794525E-2,3.896171600E-2,1.507308707E-2,4.664874659E-2
1.755182605E0,-1.953621767E-2,3.957258165E-2,1.690568030E-2,4.725944398E-2
1.757627605E0,-1.770362258E-2,3.957258165E-2,1.690568030E-2,4.653181167E-2
1.760073439E0,-1.709275879E-2,4.018344730E-2,1.751654595E-2,4.704998642E-2
1.762518491E0,-1.709275879E-2,3.651826084E-2,1.873827539E-2,4.446199211E-2
1.764962710E0,-1.709275879E-2,3.468566388E-2,2.057087049E-2,4.379975336E-2
1.767407710E0,-1.709275879E-2,3.407479823E-2,2.179259807E-2,4.391095089E-2
1.769853543E0,-1.648189314E-2,3.102047741E-2,2.362519316E-2,4.233287815E-2
1.772298595E0,-1.648189314E-2,3.102047741E-2,2.545778826E-2,4.338227522E-2
1.774742814E0,-1.587102748E-2,2.979874611E-2,2.606865205E-2,4.265476999E-2
1.777187866E0,-1.403843518E-2,2.796614915E-2,2.667951584E-2,4.112152388E-2
1.779633647E0,-1.281670574E-2,2.552269399E-2,2.912297472E-2,4.078999278E-2
1.782078699E0,-1.220584102E-2,2.430096269E-2,3.034470603E-2,4.074703089E-2
1.784522918E0,-1.281670574E-2,2.613355592E-2,3.034470603E-2,4.204797112E-2
1.786967970E0,-1.159497630E-2,2.369009703E-2,2.912297472E-2,3.929137093E-2
1.789413751E0,-1.159497630E-2,2.369009703E-2,3.034470603E-2,4.020529016E-2
1.791858803E0,-1.098411158E-2,2.185750380E-2,3.034470603E-2,3.897694657E-2
1.794303022E0,-9.762382135E-3,1.941404492E-2,3.217729926E-2,3.882766839E-2
1.796748074E0,-1.037324686E-2,1.880317926E-2,3.156643361E-2,3.817857425E-2
1.799193908E0,-1.037324686E-2,1.697058603E-2,3.217729926E-2,3.782834425E-2
1.801638908E0,-9.151517414E-3,1.574885845E-2,3.095556982E-2,3.591690572E-2
1.804083126E0,-8.540652692E-3,1.452712622E-2,3.217729926E-2,3.632297802E-2
1.806528178E0,-9.151517414E-3,1.330539491E-2,3.156643361E-2,3.545734812E-2
1.808974012E0,-9.762382135E-3,1.147280168E-2,3.156643361E-2,3.497669244E-2
1.811419012E0,-9.762382135E-3,1.086193975E-2,3.156643361E-2,3.478110940E-2
1.813863230E0,-1.098411158E-2,1.086193975E-2,3.156643361E-2,3.514359363E-2
1.816308283E0,-9.762382135E-3,1.086193975E-2,3.095556982E-2,3.422766634E-2
1.818754116E0,-1.037324686E-2,1.086193975E-2,2.973384038E-2,3.331196855E-2
1.821199116E0,-1.037324686E-2,1.147280168E-2,3.034470603E-2,3.405922214E-2
1.823643335E0,-1.159497630E-2,1.330539491E-2,2.973384038E-2,3.457713511E-2
1.826088387E0,-1.159497630E-2,1.513799187E-2,2.851211093E-2,3.430076884E-2
1.828534220E0,-1.098411158E-2,1.697058603E-2,2.973384038E-2,3.595487117E-2
1.830979220E0,-1.098411158E-2,1.819231361E-2,2.912297472E-2,3.605216552E-2
1.833423491E0,-1.037324686E-2,2.002491057E-2,2.790124714E-2,3.587590955E-2
1.835868491E0,-9.762382135E-3,2.002491057E-2,2.851211093E-2,3.618344398E-2
1.838314324E0,-1.220584102E-2,2.246836945E-2,2.729038149E-2,3.739752803E-2
1.840759324E0,-1.159497630E-2,2.369009703E-2,2.545778826E-2,3.665737519E-2
1.843203595E0,-1.220584102E-2,2.430096269E-2,2.606865205E-2,3.767086357E-2
1.845648595E0,-1.220584102E-2,2.552269399E-2,2.545778826E-2,3.805902582E-2
1.848094428E0,-1.281670574E-2,2.491182834E-2,2.606865205E-2,3.826802525E-2
1.850539428E0,-1.281670574E-2,2.369009703E-2,2.729038149E-2,3.834388563E-2
1.852983699E0,-1.342756953E-2,2.185750380E-2,2.606865205E-2,3.657355213E-2
1.855428699E0,-1.342756953E-2,2.002491057E-2,2.545778826E-2,3.506273877E-2
1.857874533E0,-1.220584102E-2,1.819231361E-2,2.606865205E-2,3.405168790E-2
1.860319585E0,-1.281670574E-2,1.880317926E-2,2.606865205E-2,3.460349861E-2
1.862763803E0,-1.281670574E-2,1.697058603E-2,2.484692261E-2,3.270532524E-2
1.865208803E0,-1.098411158E-2,1.513799187E-2,2.606865205E-2,3.208401665E-2
1.867654637E0,-1.159497630E-2,1.513799187E-2,2.790124714E-2,3.379470173E-2
1.870099689E0,-1.159497630E-2,1.574885845E-2,2.851211093E-2,3.457470879E-2
1.872543908E0,-1.098411158E-2,1.758145168E-2,2.912297472E-2,3.574780843E-2
1.874988908E0,-1.037324686E-2,1.880317926E-2,2.729038149E-2,3.472648446E-2
1.877434741E0,-1.037324686E-2,2.002491057E-2,2.729038149E-2,3.540291253E-2
1.879879793E0,-1.098411158E-2,2.063577622E-2,2.851211093E-2,3.687040056E-2
1.882324012E0,-9.762382135E-3,2.124663815E-2,2.729038149E-2,3.593728787E-2
1.884769012E0,-8.540652692E-3,2.124663815E-2,2.851211093E-2,3.656915163E-2
1.887214845E0,-9.151517414E-3,2.246836945E-2,2.790124714E-2,3.697374053E-2
1.889659897E0,-7.318923250E-3,2.369009703E-2,2.729038149E-2,3.687210676E-2
1.892104116E0,-7.929787971E-3,2.491182834E-2,2.851211093E-2,3.868360374E-2
1.894549168E0,-8.540652692E-3,2.674442157E-2,2.729038149E-2,3.915318321E-2
1.896994949E0,-6.097193807E-3,2.735528722E-2,2.729038149E-2,3.911844109E-2
1.899440001E0,-7.318923250E-3,2.552269399E-2,2.545778826E-2,3.678414780E-2
1.901884220E0,-7.318923250E-3,2.307923138E-2,2.667951584E-2,3.602796309E-2
1.904329272E0,-7.318923250E-3,2.185750380E-2,2.545778826E-2,3.434262793E-2
1.906775053E0,-5.486329086E-3,1.941404492E-2,2.545778826E-2,3.248236337E-2
1.909220105E0,-5.486329086E-3,1.635972038E-2,2.545778826E-2,3.075449952E-2
1.911664324E0,-6.097193807E-3,1.513799187E-2,2.423605695E-2,2.921850487E-2
1.914109376E0,-6.097193807E-3,1.330539491E-2,2.301432937E-2,2.727395576E-2
1.916555210E0,-6.097193807E-3,1.025107410E-2,2.423605695E-2,2.701197418E-2
1.919000210E0,-4.264599644E-3,7.196749561E-3,2.423605695E-2,2.563915894E-2
1.921444428E0,-4.875464365E-3,4.753290676E-3,2.179259807E-2,2.283158461E-2
1.923889480E0,-4.875464365E-3,4.142425023E-3,2.118173428E-2,2.212680964E-2
1.926335314E0,-3.042869968E-3,2.309832023E-3,1.996000484E-2,2.032230732E-2
1.928780314E0,-2.432005247E-3,4.772387911E-4,1.934913918E-2,1.950721901E-2
1.931224585E0,-4.264599644E-3,-1.336268615E-4,1.751654595E-2,1.802870068E-2
1.933669585E0,-3.653734690E-3,-2.577085746E-3,1.751654595E-2,1.807817829E-2
1.936115418E0,-2.432005247E-3,-3.798815189E-3,1.629481651E-2,1.690759272E-2
1.938560418E0,-2.432005247E-3,-3.187951399E-3,1.385135762E-2,1.442004825E-2
1.941004689E0,-3.042869968E-3,-3.798815189E-3,1.446222235E-2,1.525928995E-2
1.943449689E0,-5.994110834E-4,-2.577085746E-3,1.262962818E-2,1.290380458E-2
1.945895522E0,-1.210275805E-3,-2.577085746E-3,1.262962818E-2,1.294656891E-2
1.948340522E0,-5.994110834E-4,-7.444925141E-4,1.018616930E-2,1.023091431E-2
1.950784793E0,-5.994110834E-4,1.088104444E-3,1.079703402E-2,1.086826612E-2
1.953229793E0,1.145363785E-5,1.698966371E-3,8.964439854E-3,9.124023225E-3
1.955675626E0,-2.432005247E-3,4.142425023E-3,7.742710412E-3,9.111745119E-3
1.958120626E0,-1.210275805E-3,3.531559603E-3,5.299251527E-3,6.482186938E-3
1.960564897E0,-1.210275805E-3,4.753290676E-3,6.520980969E-3,8.159763022E-3
1.963009897E0,-5.994110834E-4,5.975021981E-3,5.910116248E-3,8.425535911E-3
1.965455730E0,1.145363785E-5,6.585883908E-3,3.466657363E-3,7.442560803E-3
1.967900783E0,6.223183591E-4,5.975021981E-3,3.466657363E-3,6.935840330E-3
1.970345001E0,6.223183591E-4,9.640208445E-3,4.123337567E-4,9.669070180E-3
1.972790001E0,3.065777244E-3,7.807615213E-3,1.023198478E-3,8.450134943E-3
1.975235835E0,2.454912523E-3,9.640208445E-3,4.123337567E-4,9.956416699E-3
1.977680887E0,3.065777244E-3,8.418477140E-3,4.123337567E-4,8.968821918E-3
1.980125105E0,3.065777244E-3,1.025107410E-2,4.123337567E-4,1.070763883E-2
1.982570105E0,3.065777244E-3,1.086193975E-2,-1.985309646E-4,1.128805297E-2
1.985015939E0,1.233183080E-3,1.025107410E-2,-1.985309646E-4,1.032689088E-2
1.987460991E0,1.233183080E-3,9.029342793E-3,-1.985309646E-4,9.115327000E-3
1.989905210E0,1.844047802E-3,8.418477140E-3,-1.985309646E-4,8.620364505E-3
1.992350210E0,3.676641965E-3,7.196749561E-3,-1.985309646E-4,8.083954164E-3
1.994796043E0,4.287506454E-3,5.975021981E-3,-8.093961515E-4,7.398562116E-3
1.997241095E0,4.898371175E-3,4.142425023E-3,1.023198478E-3,6.496203535E-3
1.999685314E0,4.898371175E-3,1.698966371E-3,2.244927920E-3,5.649798958E-3
2.002130366E0,6.120100617E-3,-1.336268615E-4,3.466657363E-3,7.034998293E-3
2.004576147E0,4.898371175E-3,-2.577085746E-3,4.077522084E-3,6.874707082E-3
2.007021199E0,6.730965339E-3,-3.798815189E-3,4.688386805E-3,9.039793254E-3
2.009465418E0,7.341830060E-3,-3.798815189E-3,6.520980969E-3,1.052884886E-2
2.011910470E0,7.952694781E-3,-5.020544864E-3,7.131845690E-3,1.180315415E-2
2.014356251E0,6.730965339E-3,-5.020544864E-3,7.742710412E-3,1.142196698E-2
2.016801303E0,5.509235896E-3,-3.798815189E-3,8.964439854E-3,1.118677160E-2
2.019245522E0,5.509235896E-3,-5.020544864E-3,8.353575133E-3,1.119552448E-2
2.021690574E0,6.120100617E-3,-2.577085746E-3,8.964439854E-3,1.115608284E-2
2.024136408E0,4.898371175E-3,-1.966220094E-3,9.575304575E-3,1.093373309E-2
2.026581408E0,6.120100617E-3,-1.966220094E-3,9.575304575E-3,1.153291423E-2
2.029025626E0,7.341830060E-3,-1.355358167E-3,8.964439854E-3,1.166621817E-2
2.031470678E0,7.952694781E-3,-1.966220094E-3,8.964439854E-3,1.214382796E-2
2.033916512E0,7.341830060E-3,-1.336268615E-4,8.964439854E-3,1.158798976E-2
2.036361512E0,7.341830060E-3,-1.355358167E-3,7.742710412E-3,1.075588346E-2
2.038805730E0,7.952694781E-3,-1.355358167E-3,7.742710412E-3,1.118176706E-2
2.041250783E0,7.952694781E-3,-1.355358167E-3,7.131845690E-3,1.076780261E-2
2.043696616E0,6.730965339E-3,-2.577085746E-3,8.964439854E-3,1.150254090E-2
2.046141616E0,5.509235896E-3,-3.187951399E-3,7.131845690E-3,9.559180782E-3
2.048585887E0,6.730965339E-3,-1.966220094E-3,6.520980969E-3,9.575756296E-3
2.051030887E0,5.509235896E-3,-3.187951399E-3,7.131845690E-3,9.559180782E-3
2.053476720E0,6.730965339E-3,-5.020544864E-3,5.910116248E-3,1.026845846E-2
2.055921720E0,6.730965339E-3,-4.409679212E-3,5.910116248E-3,9.984019191E-3
2.058365991E0,5.509235896E-3,-5.631410517E-3,7.131845690E-3,1.062674398E-2
2.060810991E0,6.120100617E-3,-7.464003749E-3,7.131845690E-3,1.200125854E-2
2.063256824E0,5.509235896E-3,-8.685733192E-3,7.131845690E-3,1.251626399E-2
2.065701824E0,7.952694781E-3,-1.174005587E-2,8.353575133E-3,1.645771805E-2
2.068146095E0,7.341830060E-3,-1.112919208E-2,8.964439854E-3,1.606619329E-2
2.070591095E0,6.730965339E-3,-1.174005587E-2,1.018616930E-2,1.693791165E-2
2.073036928E0,7.341830060E-3,-1.174005587E-2,1.140789874E-2,1.794077852E-2
2.075481928E0,6.120100617E-3,-1.174005587E-2,1.262962818E-2,1.829732361E-2
2.077926199E0,6.730965339E-3,-1.235092152E-2,1.446222235E-2,2.017441528E-2
2.080371199E0,4.898371175E-3,-1.174005587E-2,1.385135762E-2,1.880646325E-2
2.082817033E0,5.509235896E-3,-1.174005587E-2,1.629481651E-2,2.082550448E-2
2.085262085E0,5.509235896E-3,-1.235092152E-2,1.690568030E-2,2.164945655E-2
2.087706303E0,5.509235896E-3,-1.296178717E-2,1.873827539E-2,2.344104459E-2
2.090151303E0,3.065777244E-3,-1.296178717E-2,1.873827539E-2,2.298977776E-2
2.092597137E0,3.065777244E-3,-1.357265096E-2,2.179259807E-2,2.585600849E-2
2.095042189E0,3.676641965E-3,-1.357265096E-2,2.057087049E-2,2.491777002E-2
2.097486408E0,2.454912523E-3,-1.357265096E-2,2.118173428E-2,2.527665557E-2
2.099931408E0,6.223183591E-4,-1.235092152E-2,2.240346372E-2,2.558999276E-2
2.102377241E0,1.145363785E-5,-1.112919208E-2,2.118173428E-2,2.392749286E-2
2.104822293E0,-1.821140526E-3,-1.051832829E-2,2.240346372E-2,2.481666717E-2
2.107266512E0,-1.821140526E-3,-5.631410517E-3,2.057087049E-2,2.140537432E-2
2.109711564E0,-3.042869968E-3,-3.187951399E-3,2.118173428E-2,2.163534051E-2
2.112157345E0,-2.432005247E-3,-7.444925141E-4,2.179259807E-2,2.194051616E-2
2.114602397E0,-4.875464365E-3,2.920697676E-3,2.240346372E-2,2.311310915E-2
2.117046616E0,-7.318923250E-3,9.029342793E-3,2.057087049E-2,2.362744975E-2
2.119491668E0,-8.540652692E-3,1.269453298E-2,2.118173428E-2,2.612967246E-2
2.121937449E0,-8.540652692E-3,1.513799187E-2,1.934913918E-2,2.600943547E-2
2.124382501E0,-1.037324686E-2,1.758145168E-2,2.057087049E-2,2.898055221E-2
2.126826720E0,-1.281670574E-2,2.063577622E-2,1.934913918E-2,3.105627784E-2
2.129271772E0,-1.464930084E-2,2.307923138E-2,1.812741160E-2,3.280024371E-2
2.131717553E0,-1.403843518E-2,2.735528722E-2,1.812741160E-2,3.569303087E-2
2.134162605E0,-1.709275879E-2,2.613355592E-2,1.812741160E-2,3.610717656E-2
2.136606824E0,-1.892535202E-2,2.796614915E-2,1.934913918E-2,3.891867977E-2
2.139051876E0,-1.953621767E-2,2.857701480E-2,1.873827539E-2,3.936283197E-2
2.141497710E0,-2.014708333E-2,2.613355592E-2,1.873827539E-2,3.794720907E-2
2.143942710E0,-2.197967656E-2,2.796614915E-2,1.751654595E-2,3.964897303E-2
2.146386928E0,-2.259054221E-2,2.796614915E-2,1.996000484E-2,4.111982355E-2
2.148831980E0,-2.136881091E-2,2.857701480E-2,1.996000484E-2,4.088610580E-2
2.151277814E0,-2.320140414E-2,2.735528722E-2,2.118173428E-2,4.165672527E-2
2.153722814E0,-2.442313544E-2,2.796614915E-2,2.057087049E-2,4.244709361E-2
2.156167033E0,-2.503400110E-2,2.796614915E-2,2.057087049E-2,4.280148855E-2
2.158612085E0,-2.564486302E-2,2.735528722E-2,2.118173428E-2,4.306549205E-2
2.161057918E0,-2.503400110E-2,2.796614915E-2,2.240346372E-2,4.371180500E-2
2.163502918E0,-2.564486302E-2,2.796614915E-2,1.996000484E-2,4.287384157E-2
2.165947189E0,-2.686659433E-2,2.796614915E-2,1.996000484E-2,4.361560710E-2
2.168392189E0,-2.564486302E-2,2.613355592E-2,1.873827539E-2,4.113082432E-2
2.170838022E0,-2.564486302E-2,2.369009703E-2,1.812741160E-2,3.933805725E-2
2.173283022E0,-2.808832191E-2,2.002491057E-2,1.629481651E-2,3.815064765E-2
2.175727293E0,-2.931005321E-2,1.574885845E-2,1.751654595E-2,3.760232897E-2
2.178172293E0,-2.686659433E-2,1.330539491E-2,1.629481651E-2,3.412284381E-2
2.180618126E0,-2.442313544E-2,1.269453298E-2,1.629481651E-2,3.198689978E-2
2.183063126E0,-2.442313544E-2,1.208366733E-2,1.507308707E-2,3.114004680E-2
2.185507397E0,-2.564486302E-2,1.086193975E-2,1.385135762E-2,3.110467558E-2
2.187952397E0,-2.625572868E-2,1.208366733E-2,1.446222235E-2,3.231925401E-2
2.190398230E0,-2.625572868E-2,1.330539491E-2,1.507308707E-2,3.306954454E-2
2.192843230E0,-2.503400110E-2,1.147280168E-2,1.446222235E-2,3.110437693E-2
2.195287501E0,-2.442313544E-2,1.025107410E-2,1.324049290E-2,2.961223932E-2
2.197732501E0,-2.381226979E-2,9.640208445E-3,1.324049290E-2,2.890101147E-2
2.200178335E0,-2.197967656E-2,1.025107410E-2,1.201876346E-2,2.706734891E-2
2.202623387E0,-2.014708333E-2,9.640208445E-3,1.201876346E-2,2.536314769E-2
2.205067605E0,-1.892535202E-2,1.025107410E-2,1.079703402E-2,2.407964728E-2
2.207512605E0,-1.709275879E-2,8.418477140E-3,1.201876346E-2,2.252740188E-2
2.209958439E0,-1.709275879E-2,3.531559603E-3,1.262962818E-2,2.154395099E-2
2.212403491E0,-1.403843518E-2,1.088104444E-3,1.079703402E-2,1.774366302E-2
2.214847710E0,-1.281670574E-2,-2.577085746E-3,9.575304575E-3,1.620480715E-2
2.217292710E0,-1.220584102E-2,-6.853138097E-3,9.575304575E-3,1.695979111E-2
2.219738543E0,-1.159497630E-2,-1.235092152E-2,8.964439854E-3,1.916637471E-2
2.222183595E0,-9.762382135E-3,-1.907043159E-2,1.018616930E-2,2.372221556E-2
2.224627814E0,-9.151517414E-3,-2.456821501E-2,8.964439854E-3,2.770755568E-2
2.227072866E0,-6.097193807E-3,-2.884426713E-2,9.575304575E-3,3.099764469E-2
2.229518647E0,-4.875464365E-3,-3.312032297E-2,8.353575133E-3,3.450374131E-2
2.231963699E0,-4.264599644E-3,-3.739637509E-2,8.964439854E-3,3.869156060E-2
2.234407918E0,-1.821140526E-3,-4.045069590E-2,7.131845690E-3,4.111494345E-2
2.236852970E0,-1.821140526E-3,-4.350502044E-2,7.131845690E-3,4.412331106E-2
2.239298751E0,1.145363785E-5,-4.594847932E-2,5.910116248E-3,4.632701542E-2
2.241743803E0,1.145363785E-5,-4.717021063E-2,5.910116248E-3,4.753901951E-2
2.244188022E0,-1.821140526E-3,-5.022453144E-2,4.688386805E-3,5.047574747E-2
2.246633074E0,1.844047802E-3,-4.839193821E-2,4.077522084E-3,4.859841955E-2
2.249078908E0,-3.042869968E-3,-5.022453144E-2,2.244927920E-3,5.036667864E-2
2.251523908E0,3.065777244E-3,-4.778107628E-2,1.634063199E-3,4.790720617E-2
2.253968126E0,6.223183591E-4,-4.900280386E-2,4.123337567E-4,4.900848993E-2
2.256413178E0,6.223183591E-4,-4.472675174E-2,4.123337567E-4,4.473298135E-2
2.258859012E0,1.145363785E-5,-4.167242721E-2,-1.985309646E-4,4.167290169E-2
2.261304012E0,-5.994110834E-4,-3.922896832E-2,-8.093961515E-4,3.924189561E-2
2.263748230E0,3.065777244E-3,-3.495291620E-2,-1.985309646E-4,3.508767242E-2
2.266193283E0,-1.210275805E-3,-2.823340334E-2,-2.031125594E-3,2.833223081E-2
2.268639116E0,6.223183591E-4,-2.212475613E-2,-2.031125594E-3,2.222650636E-2
2.271084116E0,-3.042869968E-3,-1.845956780E-2,-1.420259941E-3,1.876251154E-2
2.273528387E0,1.145363785E-5,-8.685733192E-3,-2.031125594E-3,8.920065215E-3
2.275973387E0,-3.653734690E-3,-4.409679212E-3,-1.420259941E-3,5.900185271E-3
2.278419220E0,-3.653734690E-3,4.753290676E-3,4.123337567E-4,6.009456594E-3
2.280864220E0,-4.264599644E-3,1.025107410E-2,1.023198478E-3,1.114981011E-2
2.283308491E0,-6.097193807E-3,1.758145168E-2,2.244927920E-3,1.874361003E-2
2.285753491E0,-3.653734690E-3,2.307923138E-2,2.855792642E-3,2.354052357E-2
2.288199324E0,-7.318923250E-3,2.735528722E-2,2.855792642E-3,2.846109499E-2
2.290644324E0,-4.264599644E-3,3.407479823E-2,6.520980969E-3,3.495428267E-2
2.293088595E0,-7.929787971E-3,3.651826084E-2,7.131845690E-3,3.804376604E-2
2.295533595E0,-4.264599644E-3,4.140517116E-2,8.353575133E-3,4.245417796E-2
2.297979428E0,-5.486329086E-3,4.323776811E-2,1.018616930E-2,4.475893702E-2
2.300424480E0,-4.264599644E-3,4.873555154E-2,1.140789874E-2,5.023426069E-2
2.302868699E0,-3.042869968E-3,4.934641719E-2,1.324049290E-2,5.118240517E-2
2.305313699E0,-5.486329086E-3,5.301160365E-2,1.385135762E-2,5.506532518E-2
2.307759533E0,-3.042869968E-3,5.423333496E-2,1.568395272E-2,5.653759856E-2
2.310204585E0,-6.097193807E-3,5.606593192E-2,1.568395272E-2,5.853674800E-2
2.312648803E0,-2.432005247E-3,5.667679012E-2,1.751654595E-2,5.937173208E-2
2.315093803E0,-6.708058529E-3,5.606593192E-2,1.629481651E-2,5.876995675E-2
2.317539637E0,-1.821140526E-3,5.667679012E-2,1.751654595E-2,5.934984813E-2
2.319984689E0,-5.486329086E-3,5.301160365E-2,1.751654595E-2,5.609954822E-2
2.322428908E0,-2.432005247E-3,5.301160365E-2,1.629481651E-2,5.551275364E-2
2.324873908E0,-2.432005247E-3,5.056814849E-2,1.629481651E-2,5.318433356E-2
2.327319741E0,-3.653734690E-3,4.995728284E-2,1.507308707E-2,5.230944312E-2
2.329764793E0,-1.210275805E-3,4.934641719E-2,1.507308707E-2,5.161135157E-2
2.332209012E0,-4.264599644E-3,4.751382023E-2,1.385135762E-2,4.967504435E-2
2.334654064E0,-1.210275805E-3,4.934641719E-2,1.140789874E-2,5.066235102E-2
2.337099845E0,1.145363785E-5,4.507036507E-2,1.079703402E-2,4.634559183E-2
2.339544897E0,-5.994110834E-4,4.445949942E-2,1.079703402E-2,4.575568080E-2
2.341989116E0,-1.210275805E-3,4.507036507E-2,8.353575133E-3,4.585395068E-2
2.344434168E0,-5.994110834E-4,4.079431295E-2,7.742710412E-3,4.152691690E-2
2.346879949E0,-5.994110834E-4,3.896171600E-2,5.910116248E-3,3.941197890E-2
2.349325001E0,1.145363785E-5,3.590739518E-2,4.688386805E-3,3.621218208E-2
2.351769220E0,1.145363785E-5,3.224220127E-2,5.299251527E-3,3.267478754E-2
2.354214272E0,1.145363785E-5,2.979874611E-2,4.077522084E-3,3.007642910E-2
2.356660105E0,6.223183591E-4,2.979874611E-2,4.688386805E-3,3.017173380E-2
2.359105105E0,2.454912523E-3,2.796614915E-2,3.466657363E-3,2.828691936E-2
2.361549324E0,1.233183080E-3,2.796614915E-2,4.688386805E-3,2.838322057E-2
2.363994376E0,3.676641965E-3,2.674442157E-2,4.688386805E-3,2.740005022E-2
2.366440210E0,3.676641965E-3,2.491182834E-2,3.466657363E-3,2.541917781E-2
2.368885210E0,1.844047802E-3,2.491182834E-2,2.855792642E-3,2.514269785E-2
2.371329428E0,3.676641965E-3,2.369009703E-2,4.077522084E-3,2.431798881E-2
2.373774480E0,3.065777244E-3,2.307923138E-2,4.688386805E-3,2.374933435E-2
2.376220314E0,5.509235896E-3,2.124663815E-2,4.077522084E-3,2.232481801E-2
2.378665314E0,4.898371175E-3,2.246836945E-2,4.688386805E-3,2.346918484E-2
2.381109533E0,6.120100617E-3,2.369009703E-2,6.520980969E-3,2.532191782E-2
2.383554585E0,6.730965339E-3,2.369009703E-2,5.299251527E-3,2.519144019E-2
2.386000418E0,7.341830060E-3,2.552269399E-2,5.299251527E-3,2.708121940E-2
2.388445418E0,7.952694781E-3,2.735528722E-2,5.299251527E-3,2.897652774E-2
2.390889637E0,8.563559502E-3,2.674442157E-2,4.077522084E-3,2.837648362E-2
2.393334689E0,9.785288945E-3,2.857701480E-2,5.299251527E-3,3.066724183E-2
2.395780522E0,7.952694781E-3,2.735528722E-2,5.910116248E-3,2.909444221E-2
2.398225522E0,9.174424224E-3,2.735528722E-2,4.688386805E-3,2.923119515E-2
2.400669793E0,9.785288945E-3,2.857701480E-2,4.688386805E-3,3.056760746E-2
2.403114793E0,1.039615367E-2,2.857701480E-2,5.910116248E-3,3.097830306E-2
2.405560626E0,1.222874783E-2,3.040961176E-2,6.520980969E-3,3.341870664E-2
2.408005626E0,1.161788311E-2,2.979874611E-2,6.520980969E-3,3.264144100E-2
2.410449897E0,1.283961255E-2,3.040961176E-2,5.910116248E-3,3.353400680E-2
2.412894897E0,1.283961255E-2,3.102047741E-2,7.131845690E-3,3.432184279E-2
2.415340730E0,1.345047727E-2,3.163133562E-2,5.910116248E-3,3.487672871E-2
2.417785783E0,1.406134106E-2,3.163133562E-2,7.131845690E-3,3.534297566E-2
2.420230001E0,1.467220671E-2,3.102047741E-2,7.131845690E-3,3.504863609E-2
2.422675001E0,1.406134106E-2,3.285306692E-2,7.742710412E-3,3.656494063E-2
2.425120835E0,1.528307237E-2,3.224220127E-2,7.131845690E-3,3.638674301E-2
2.427565887E0,1.650479995E-2,3.102047741E-2,5.910116248E-3,3.563155784E-2
2.430010105E0,1.528307237E-2,3.102047741E-2,6.520980969E-3,3.519041791E-2
2.432455105E0,1.589393616E-2,3.040961176E-2,5.910116248E-3,3.481797191E-2
2.434900939E0,1.467220671E-2,2.918788046E-2,5.299251527E-3,3.309513684E-2
2.437345991E0,1.650479995E-2,2.918788046E-2,3.466657363E-3,3.370991694E-2
2.439790210E0,1.833739504E-2,2.918788046E-2,4.688386805E-3,3.478754653E-2
2.442235210E0,1.894825883E-2,2.796614915E-2,3.466657363E-3,3.395820555E-2
2.444681043E0,1.772653125E-2,2.613355592E-2,2.244927920E-3,3.165805358E-2
2.447126095E0,1.711566560E-2,2.613355592E-2,1.023198478E-3,3.125629039E-2
2.449570314E0,1.772653125E-2,2.369009703E-2,-1.420259941E-3,2.962208207E-2
2.452015314E0,1.772653125E-2,2.246836945E-2,-8.093961515E-4,2.863062448E-2
2.454461147E0,1.833739504E-2,2.063577622E-2,-2.641989384E-3,2.773220916E-2
2.456906199E0,1.894825883E-2,1.880317926E-2,-2.641989384E-3,2.682491698E-2
2.459350418E0,1.833739504E-2,2.002491057E-2,-2.641989384E-3,2.728071128E-2
2.461795470E0,1.833739504E-2,1.941404492E-2,-2.031125594E-3,2.678228273E-2
2.464241251E0,1.772653125E-2,1.941404492E-2,-3.252855036E-3,2.648992480E-2
2.466686303E0,1.711566560E-2,1.941404492E-2,-4.474584479E-3,2.626543461E-2
2.469130522E0,1.711566560E-2,2.185750380E-2,-3.863718826E-3,2.802899935E-2
2.471575574E0,1.589393616E-2,1.880317926E-2,-3.252855036E-3,2.483460938E-2
2.474021408E0,1.650479995E-2,2.002491057E-2,-3.252855036E-3,2.615313615E-2
2.476466408E0,1.528307237E-2,1.941404492E-2,-3.863718826E-3,2.500811397E-2
2.478910626E0,1.467220671E-2,1.880317926E-2,-2.641989384E-3,2.399611027E-2
2.481355678E0,1.528307237E-2,1.758145168E-2,-3.252855036E-3,2.352149677E-2
2.483801460E0,1.345047727E-2,1.941404492E-2,-2.641989384E-3,2.376553359E-2
2.486246512E0,1.283961255E-2,2.063577622E-2,-8.093961515E-4,2.431760747E-2
2.488690730E0,1.283961255E-2,2.124663815E-2,-1.420259941E-3,2.486548655E-2
2.491135783E0,1.039615367E-2,2.063577622E-2,-1.420259941E-3,2.315021403E-2
2.493581616E0,1.161788311E-2,2.002491057E-2,-1.985309646E-4,2.315192575E-2
2.496026616E0,1.039615367E-2,1.819231361E-2,1.023198478E-3,2.097825590E-2
2.498470835E0,9.174424224E-3,1.819231361E-2,1.634063199E-3,2.044016871E-2
2.500915887E0,9.785288945E-3,1.697058603E-2,1.023198478E-3,1.961630967E-2
2.503361720E0,9.785288945E-3,1.574885845E-2,1.634063199E-3,1.861312937E-2
2.505806720E0,8.563559502E-3,1.391626056E-2,2.244927920E-3,1.649353088E-2
2.508250939E0,1.039615367E-2,1.269453298E-2,3.466657363E-3,1.677047680E-2
2.510695991E0,1.039615367E-2,1.208366733E-2,4.077522084E-3,1.645360792E-2
2.513141824E0,1.100701839E-2,1.208366733E-2,4.077522084E-3,1.684623567E-2
2.515586824E0,9.785288945E-3,1.269453298E-2,5.299251527E-3,1.688150213E-2
2.518031095E0,8.563559502E-3,1.574885845E-2,5.910116248E-3,1.887566073E-2
2.520476095E0,9.785288945E-3,1.697058603E-2,5.910116248E-3,2.046172388E-2
2.522921928E0,1.039615367E-2,2.002491057E-2,5.910116248E-3,2.332394753E-2
2.525366928E0,9.785288945E-3,2.124663815E-2,5.299251527E-3,2.398444452E-2
2.527811199E0,1.039615367E-2,2.369009703E-2,7.131845690E-3,2.683587024E-2
2.530256199E0,9.174424224E-3,2.491182834E-2,5.299251527E-3,2.707122675E-2
2.532702033E0,9.174424224E-3,2.857701480E-2,7.131845690E-3,3.084929591E-2
2.535147033E0,9.785288945E-3,3.102047741E-2,6.520980969E-3,3.317446445E-2
2.537591303E0,9.174424224E-3,3.346393257E-2,5.910116248E-3,3.519849879E-2
2.540036303E0,1.039615367E-2,3.529652953E-2,5.910116248E-3,3.726733801E-2
2.542482137E0,9.785288945E-3,3.468566388E-2,6.520980969E-3,3.662472322E-2
2.544927137E0,1.039615367E-2,3.407479823E-2,4.688386805E-3,3.593261549E-2
2.547371408E0,1.039615367E-2,3.468566388E-2,6.520980969E-3,3.679264169E-2
2.549816408E0,1.100701839E-2,3.224220127E-2,5.299251527E-3,3.447892201E-2
2.552262241E0,1.161788311E-2,3.040961176E-2,5.299251527E-3,3.298183988E-2
2.554707293E0,1.161788311E-2,2.735528722E-2,4.688386805E-3,3.008767053E-2
2.557151512E0,1.345047727E-2,2.613355592E-2,3.466657363E-3,2.959553678E-2
2.559596512E0,1.406134106E-2,2.613355592E-2,5.299251527E-3,3.014574803E-2
2.562042345E0,1.345047727E-2,2.613355592E-2,5.299251527E-3,2.986570191E-2
2.564487397E0,1.283961255E-2,2.430096269E-2,4.077522084E-3,2.778522313E-2
2.566931616E0,1.467220671E-2,2.491182834E-2,5.299251527E-3,2.939310987E-2
2.569376616E0,1.528307237E-2,2.491182834E-2,4.688386805E-3,2.959987269E-2
2.571822449E0,1.528307237E-2,2.246836945E-2,4.077522084E-3,2.747773850E-2
2.574267501E0,1.528307237E-2,2.124663815E-2,3.466657363E-3,2.640094027E-2
2.576711720E0,1.467220671E-2,2.063577622E-2,2.244927920E-3,2.541945341E-2
2.579156772E0,1.528307237E-2,1.635972038E-2,2.244927920E-3,2.250005452E-2
2.581602553E0,1.528307237E-2,1.147280168E-2,2.244927920E-3,1.924154829E-2
2.584047605E0,1.650479995E-2,7.807615213E-3,1.023198478E-3,1.828699570E-2
2.586491824E0,1.589393616E-2,5.364156328E-3,1.023198478E-3,1.680590119E-2
2.588936876E0,1.711566560E-2,4.772387911E-4,1.023198478E-3,1.715286276E-2
2.591382658E0,1.894825883E-2,-3.187951399E-3,1.634063199E-3,1.928392360E-2
2.593827710E0,2.078085579E-2,-4.409679212E-3,1.023198478E-3,2.126819629E-2
2.596271928E0,2.078085579E-2,-6.853138097E-3,4.123337567E-4,2.188560002E-2
2.598716980E0,2.078085579E-2,-8.074869402E-3,-1.985309646E-4,2.229544567E-2
2.601162762E0,2.261344902E-2,-7.464003749E-3,-1.420259941E-3,2.385574495E-2
2.603607814E0,2.383517660E-2,-7.464003749E-3,-2.031125594E-3,2.505897976E-2
2.606052033E0,2.505690791E-2,-8.074869402E-3,-2.641989384E-3,2.645812272E-2
2.608497085E0,2.688950114E-2,-9.907462634E-3,-3.863718826E-3,2.891593696E-2
2.610942918E0,2.688950114E-2,-1.112919208E-2,-5.696313921E-3,2.965387294E-2
2.613387918E0,2.811123244E-2,-1.296178717E-2,-5.696313921E-3,3.147534445E-2
2.615832137E0,2.811123244E-2,-1.418351475E-2,-8.139772341E-3,3.252182919E-2
2.618277189E0,2.933296002E-2,-1.784870401E-2,-9.972365573E-3,3.575537517E-2
2.620723022E0,3.177642077E-2,-1.723783836E-2,-1.119409502E-2,3.784430937E-2
2.623168022E0,3.483074531E-2,-1.968129724E-2,-1.180496067E-2,4.171200518E-2
2.625612241E0,3.421987966E-2,-1.784870401E-2,-1.241582446E-2,4.054292905E-2
2.628057293E0,3.666333854E-2,-1.540524606E-2,-1.424841955E-2,4.224380971E-2
2.630503126E0,3.788506985E-2,-1.296178717E-2,-1.608101279E-2,4.314957029E-2
2.632948126E0,3.788506985E-2,-8.685733192E-3,-1.791360788E-2,4.279740443E-2
2.635392397E0,3.849593550E-2,-5.020544864E-3,-2.035706677E-2,4.383552313E-2
2.637837397E0,3.788506985E-2,-1.966220094E-3,-2.157879621E-2,4.364388828E-2
2.640283230E0,3.788506985E-2,-7.444925141E-4,-2.402225323E-2,4.486537013E-2
2.642728230E0,3.727420419E-2,-1.355358167E-3,-2.585484646E-2,4.538365763E-2
2.645172449E0,3.971766308E-2,-1.336268615E-4,-2.890917100E-2,4.912484895E-2
2.647617501E0,4.093939066E-2,1.088104444E-3,-3.074176423E-2,5.120814141E-2
2.650063335E0,4.093939066E-2,1.698966371E-3,-3.135263175E-2,5.159367899E-2
2.652508335E0,4.155025631E-2,-1.336268615E-4,-3.318522498E-2,5.317613010E-2
2.654952605E0,4.277198762E-2,-7.444925141E-4,-3.379609063E-2,5.451763876E-2
2.657397605E0,4.521544650E-2,4.772387911E-4,-3.501782194E-2,5.719188939E-2
2.659843439E0,4.704803973E-2,3.531559603E-3,-3.379609063E-2,5.803590008E-2
2.662288439E0,4.888063297E-2,5.364156328E-3,-3.196349740E-2,5.864942982E-2
2.664732710E0,5.010236427E-2,8.418477140E-3,-3.074176423E-2,5.938159421E-2
2.667177710E0,5.193495750E-2,1.086193975E-2,-3.135263175E-2,6.162961191E-2
2.669623543E0,5.560014397E-2,1.758145168E-2,-3.013090231E-2,6.563805852E-2
2.672068595E0,5.804360658E-2,2.552269399E-2,-2.829830535E-2,6.943530989E-2
2.674512814E0,6.170879304E-2,3.040961176E-2,-2.646571212E-2,7.370992840E-2
2.676957814E0,6.842830777E-2,3.651826084E-2,-2.402225323E-2,8.119781604E-2
2.679403647E0,7.392609119E-2,4.384863377E-2,-2.280052565E-2,8.892487623E-2
2.681848699E0,8.125646412E-2,5.056814849E-2,-2.035706677E-2,9.784764060E-2
2.684292918E0,8.858683705E-2,5.606593192E-2,-1.852447167E-2,1.064620706E-1
2.686737918E0,9.774981439E-2,5.973112211E-2,-1.730274409E-2,1.158542969E-1
2.689183751E0,1.056910530E-1,6.156371161E-2,-1.424841955E-2,1.231410034E-1
2.691628803E0,1.166866198E-1,5.973112211E-2,-1.302669011E-2,1.317318065E-1
2.694073022E0,1.252387166E-1,5.545506626E-2,-1.302669011E-2,1.375852287E-1
2.696518022E0,1.337908357E-1,4.751382023E-2,-1.180496067E-2,1.424672171E-1
2.698963855E0,1.453972608E-1,3.529652953E-2,-1.119409502E-2,1.500383824E-1
2.701408908E0,1.570036858E-1,2.185750380E-2,-1.058323123E-2,1.588707419E-1
2.703853126E0,1.686101258E-1,4.753290676E-3,-1.058323123E-2,1.690087958E-1
2.706298178E0,1.796056777E-1,-1.357265096E-2,-1.119409502E-2,1.804652988E-1
2.708743960E0,1.930447072E-1,-3.617464378E-2,-1.363755390E-2,1.968777456E-1
2.711189012E0,2.046511322E-1,-5.572231486E-2,-1.547014900E-2,2.126649661E-1
2.713633230E0,2.168684304E-1,-7.649172097E-2,-1.852447167E-2,2.307077275E-1
2.716078283E0,2.284748554E-1,-1.009263024E-1,-2.157879621E-2,2.507040537E-1
2.718524064E0,2.370269746E-1,-1.229174361E-1,-2.585484646E-2,2.682516651E-1
2.720969116E0,2.461899370E-1,-1.449085623E-1,-2.829830535E-2,2.870692784E-1
2.723413335E0,2.541311681E-1,-1.687322855E-1,-3.318522498E-2,3.068460427E-1
2.725858387E0,2.626832724E-1,-1.913342774E-1,-3.929387406E-2,3.273458657E-1
2.728304168E0,2.681810558E-1,-2.145471424E-1,-4.540251940E-2,3.464288437E-1
2.730749220E0,2.749005556E-1,-2.371491343E-1,-5.273289606E-2,3.668661686E-1
2.733193439E0,2.803983390E-1,-2.560859323E-1,-6.128500402E-2,3.846545008E-1
2.735638491E0,2.834526598E-1,-2.756336033E-1,-6.983711571E-2,4.014928597E-1
2.738084272E0,2.852852643E-1,-2.915160954E-1,-7.716748863E-2,4.151194252E-1
2.740529324E0,2.858961225E-1,-3.049551249E-1,-8.694132417E-2,4.269578608E-1
2.742973543E0,2.871178687E-1,-3.147289455E-1,-9.549342841E-2,4.365890224E-1
2.745418595E0,2.883395851E-1,-3.220593333E-1,-1.016020775E-1,4.440550784E-1
2.747864428E0,2.907830477E-1,-3.251136541E-1,-1.083215922E-1,4.494299014E-1
2.750309428E0,2.932265103E-1,-3.232810497E-1,-1.150410995E-1,4.513611392E-1
2.752753647E0,2.962808311E-1,-3.183941543E-1,-1.193171516E-1,4.509919634E-1
2.755198699E0,3.011677563E-1,-3.110637665E-1,-1.217606142E-1,4.497647512E-1
2.757644533E0,3.078872561E-1,-2.994573414E-1,-1.248149350E-1,4.472672913E-1
2.760089533E0,3.164393604E-1,-2.884617746E-1,-1.242040619E-1,4.458370927E-1
2.762533751E0,3.231588900E-1,-2.725792825E-1,-1.205388829E-1,4.396143261E-1
2.764978803E0,3.341544569E-1,-2.548642159E-1,-1.193171516E-1,4.368655997E-1
2.767424637E0,3.463717401E-1,-2.340948135E-1,-1.138193756E-1,4.332766025E-1
2.769869637E0,3.598107696E-1,-2.157688737E-1,-1.089324579E-1,4.334585068E-1
2.772313855E0,3.732497990E-1,-1.986646652E-1,-1.016020775E-1,4.348632473E-1
2.774758908E0,3.885214031E-1,-1.846147776E-1,-9.427170455E-2,4.403619546E-1
2.777204741E0,4.050147533E-1,-1.742300689E-1,-8.633045852E-2,4.492727628E-1
2.779649741E0,4.202863574E-1,-1.668996960E-1,-8.083267510E-2,4.593800737E-1
2.782094012E0,4.392231703E-1,-1.662888229E-1,-7.350230217E-2,4.753646541E-1
2.784539012E0,4.581599832E-1,-1.705648899E-1,-6.800451875E-2,4.935864326E-1
2.786984845E0,4.777076542E-1,-1.760626733E-1,-6.372846663E-2,5.130925699E-1
2.789429845E0,4.978662133E-1,-1.827821732E-1,-5.945241451E-2,5.336803152E-1
2.791874116E0,5.192464590E-1,-1.925560087E-1,-5.884154886E-2,5.569174351E-1
2.794319116E0,5.406267047E-1,-2.041624486E-1,-5.517635494E-2,5.805204298E-1
2.796764949E0,5.620070100E-1,-2.176014632E-1,-5.761981755E-2,6.054108683E-1
2.799209949E0,5.827763677E-1,-2.322622240E-1,-5.823068321E-2,6.300514644E-1
2.801654220E0,6.041566730E-1,-2.432577908E-1,-6.067413837E-2,6.541108387E-1
2.804099220E0,6.249260306E-1,-2.566967905E-1,-6.495019794E-2,6.787078268E-1
2.806545053E0,6.469171643E-1,-2.683032453E-1,-6.861538440E-2,7.037020107E-1
2.808990105E0,6.695191860E-1,-2.780770659E-1,-7.472403347E-2,7.288116878E-1
2.811434324E0,6.902886033E-1,-2.878509164E-1,-8.083267510E-2,7.522568892E-1
2.813879324E0,7.122796774E-1,-2.988464832E-1,-8.633045852E-2,7.772416017E-1
2.816325158E0,7.354925871E-1,-3.122855127E-1,-9.304997325E-2,8.044438356E-1
2.818770210E0,7.568728328E-1,-3.269462585E-1,-1.022129431E-1,8.307814554E-1
2.821214428E0,7.794748545E-1,-3.403852880E-1,-1.113759130E-1,8.578157069E-1
2.823659428E0,8.008551002E-1,-3.544351757E-1,-1.205388829E-1,8.840377862E-1
2.826105262E0,8.210136294E-1,-3.672633171E-1,-1.321453005E-1,9.090699116E-1
2.828550314E0,8.405612707E-1,-3.758154213E-1,-1.437517256E-1,9.319039861E-1
2.830994533E0,8.613306880E-1,-3.825349510E-1,-1.553581655E-1,9.551752208E-1
2.833439533E0,8.802675009E-1,-3.855892718E-1,-1.675754488E-1,9.755160125E-1
2.835885366E0,8.979825974E-1,-3.886435926E-1,-1.791818887E-1,9.947475742E-1
2.838330418E0,9.144759178E-1,-3.916979134E-1,-1.907883137E-1,1.012962803E0
2.840774637E0,9.328018427E-1,-3.941413760E-1,-2.023947388E-1,1.032681138E0
2.843219689E0,9.492952228E-1,-3.984174132E-1,-2.121685743E-1,1.051148590E0
2.845665470E0,9.676211476E-1,-4.033043385E-1,-2.237750143E-1,1.071923659E0
2.848110522E0,9.871688485E-1,-4.118564427E-1,-2.329379767E-1,1.094709170E0
2.850554741E0,1.008549213E0,-4.204085469E-1,-2.408792228E-1,1.118900202E0
2.852999793E0,1.029318571E0,-4.271280766E-1,-2.475987375E-1,1.141595484E0
2.855445574E0,1.048866272E0,-4.338475764E-1,-2.524856627E-1,1.162795419E0
2.857890626E0,1.066581249E0,-4.369018972E-1,-2.543182373E-1,1.180320547E0
2.860334845E0,1.084907293E0,-4.369018972E-1,-2.549290955E-1,1.197036318E0
2.862779897E0,1.102622271E0,-4.338475764E-1,-2.555399835E-1,1.212146969E0
2.865225730E0,1.120948315E0,-4.252954721E-1,-2.530965209E-1,1.225340447E0
2.867670730E0,1.138052464E0,-4.173542261E-1,-2.518747747E-1,1.238058505E0
2.870114949E0,1.155156732E0,-4.063586593E-1,-2.475987375E-1,1.249327647E0
2.872560001E0,1.173482656E0,-3.959739804E-1,-2.427118123E-1,1.262048320E0
2.875005835E0,1.191808581E0,-3.862001300E-1,-2.366031706E-1,1.274966390E0
2.877450835E0,1.211356282E0,-3.788697422E-1,-2.317162454E-1,1.290201047E0
2.879895053E0,1.230903864E0,-3.752045631E-1,-2.292727828E-1,1.307084081E0
2.882340105E0,1.250451565E0,-3.739828467E-1,-2.262184620E-1,1.324638471E0
2.884785939E0,1.270610094E0,-3.770371675E-1,-2.231641412E-1,1.344027258E0
2.887230939E0,1.290157795E0,-3.825349510E-1,-2.207206786E-1,1.363656021E0
2.889675158E0,1.309705496E0,-3.910870552E-1,-2.194989622E-1,1.384361718E0
2.892120210E0,1.331085682E0,-4.020826221E-1,-2.194989622E-1,1.407707115E0
2.894566043E0,1.349411726E0,-4.155216217E-1,-2.225532830E-1,1.429370557E0
2.897011043E0,1.370181084E0,-4.295715392E-1,-2.219424099E-1,1.452992203E0
2.899455262E0,1.388507009E0,-4.460648596E-1,-2.237750143E-1,1.475466309E0
2.901900314E0,1.408665538E0,-4.637799561E-1,-2.256076038E-1,1.500109741E0
2.904346147E0,1.426991463E0,-4.814950228E-1,-2.280510664E-1,1.523203657E0
2.906791147E0,1.446539164E0,-4.979883730E-1,-2.311053872E-1,1.547216104E0
2.909235366E0,1.469752073E0,-5.144817233E-1,-2.341597080E-1,1.574704216E0
2.911680418E0,1.489299655E0,-5.321967602E-1,-2.372140288E-1,1.599223983E0
2.914126251E0,1.508847356E0,-5.468575358E-1,-2.408792228E-1,1.622866694E0
2.916571251E0,1.529616714E0,-5.657943487E-1,-2.457661331E-1,1.649318504E0
2.919015522E0,1.547942758E0,-5.835094452E-1,-2.500422001E-1,1.673060416E0
2.921460522E0,1.569933891E0,-6.036679745E-1,-2.537073791E-1,1.701021717E0
2.923906355E0,1.587648869E0,-6.281025410E-1,-2.592051625E-1,1.726942109E0
2.926351355E0,1.604142308E0,-6.580349207E-1,-2.628703415E-1,1.753677085E0
2.928795626E0,1.623689890E0,-6.916325092E-1,-2.683681250E-1,1.785145887E0
2.931240626E0,1.642015815E0,-7.282843590E-1,-2.744767666E-1,1.817127276E0
2.933686460E0,1.659730911E0,-7.649362683E-1,-2.811962962E-1,1.849028272E0
2.936131512E0,1.679278612E0,-8.070859313E-1,-2.866940796E-1,1.885088288E0
2.938575730E0,1.697604537E0,-8.443486691E-1,-2.921918631E-1,1.918374813E0
2.941020730E0,1.718374014E0,-8.822222948E-1,-2.970787883E-1,1.954323728E0
2.943466564E0,1.738532543E0,-9.176524282E-1,-3.031874299E-1,1.989096277E0
2.945911616E0,1.759301901E0,-9.524717331E-1,-3.092960715E-1,2.024354129E0
2.948355835E0,1.777627826E0,-9.854584336E-1,-3.135721087E-1,2.056554516E0
2.950800835E0,1.795953751E0,-1.017223358E0,-3.202916384E-1,2.088726877E0
2.953246668E0,1.813668847E0,-1.045323133E0,-3.288437426E-1,2.119017071E0
2.955691720E0,1.832605720E0,-1.074644685E0,-3.361741304E-1,2.150887716E0
2.958135939E0,1.850320697E0,-1.099690080E0,-3.453370929E-1,2.179968500E0
2.960580991E0,1.868035793E0,-1.121681213E0,-3.569435179E-1,2.207970821E0
2.963026772E0,1.887583494E0,-1.143672347E0,-3.673282266E-1,2.237384167E0
2.965471824E0,1.906520247E0,-1.165052652E0,-3.801563680E-1,2.266425821E0
2.967916043E0,1.923013687E0,-1.185211182E0,-3.948171437E-1,2.293161085E0
2.970361043E0,1.941950440E0,-1.205369711E0,-4.070344269E-1,2.321586672E0
2.972806876E0,1.959665537E0,-1.229193449E0,-4.241386354E-1,2.351828891E0
2.975251928E0,1.976769686E0,-1.255460620E0,-4.430754483E-1,2.383299312E0
2.977696147E0,1.993263125E0,-1.284171224E0,-4.620122612E-1,2.415708788E0
2.980141199E0,2.012810469E0,-1.314103603E0,-4.809490442E-1,2.451445746E0
2.982586980E0,2.031136513E0,-1.348922968E0,-5.017184615E-1,2.489343311E0
2.985032033E0,2.050073385E0,-1.385574818E0,-5.230987072E-1,2.529081003E0
2.987476251E0,2.069620848E0,-1.424059272E0,-5.450898409E-1,2.570680493E0
2.989921303E0,2.086114168E0,-1.465598106E0,-5.683026910E-1,2.612052465E0
2.992367085E0,2.102607727E0,-1.507747769E0,-5.927373171E-1,2.654354934E0
2.994812137E0,2.117268324E0,-1.552340865E0,-6.183936000E-1,2.697220414E0
2.997256355E0,2.132539988E0,-1.597544909E0,-6.428282261E-1,2.741004316E0
2.999701408E0,2.148422480E0,-1.643970609E0,-6.684845090E-1,2.786616237E0
3.002147241E0,2.165526628E0,-1.687952876E0,-6.959734559E-1,2.832502346E0
3.004592241E0,2.186907053E0,-1.723382950E0,-7.222406268E-1,2.876498353E0
3.007036460E0,2.210119724E0,-1.749039292E0,-7.485077977E-1,2.916167273E0
3.009481512E0,2.231500149E0,-1.763089180E0,-7.759967446E-1,2.947922543E0
3.011927345E0,2.252269506E0,-1.766143560E0,-8.028747439E-1,2.972640049E0
3.014372345E0,2.268762827E0,-1.763089180E0,-8.297528028E-1,2.990695226E0
3.016816564E0,2.281590939E0,-1.750871897E0,-8.572417498E-1,3.001012001E0
3.019261616E0,2.293808222E0,-1.738043785E0,-8.835089207E-1,3.010471785E0
3.021707449E0,2.301749468E0,-1.723382950E0,-9.128304124E-1,3.016845831E0
3.024152449E0,2.309079885E0,-1.706889629E0,-9.403192997E-1,3.021509972E0
3.026596668E0,2.314577579E0,-1.689174533E0,-9.684190750E-1,3.024634768E0
3.029041720E0,2.319464684E0,-1.673292041E0,-9.946863055E-1,3.028072575E0
3.031487553E0,2.325573206E0,-1.655577064E0,-1.020953536E0,3.031760590E0
3.033932553E0,2.331681967E0,-1.636029363E0,-1.045388222E0,3.034167003E0
3.036376772E0,2.340234041E0,-1.617092490E0,-1.070433617E0,3.039327494E0
3.038821824E0,2.350618601E0,-1.594490528E0,-1.091202974E0,3.042783558E0
3.041267658E0,2.359781742E0,-1.572499394E0,-1.110750675E0,3.045503452E0
3.043712658E0,2.368333817E0,-1.551119208E0,-1.129076600E0,3.047915654E0
3.046156928E0,2.376275063E0,-1.531571507E0,-1.146791697E0,3.050823766E0
3.048601928E0,2.380551100E0,-1.515078187E0,-1.163285017E0,3.052166031E0
3.051047762E0,2.387881517E0,-1.502249956E0,-1.177334905E0,3.056934829E0
3.053492762E0,2.391546726E0,-1.493087053E0,-1.191995740E0,3.060989797E0
3.055937033E0,2.398876905E0,-1.485756636E0,-1.204213023E0,3.067932886E0
3.058382033E0,2.404985666E0,-1.479647994E0,-1.215208530E0,3.074092714E0
3.060827866E0,2.412926912E0,-1.474761009E0,-1.224982381E0,3.081836815E0
3.063272866E0,2.420868158E0,-1.472317576E0,-1.233534455E0,3.090295931E0
3.065717137E0,2.430031061E0,-1.469263315E0,-1.242697477E0,3.099690737E0
3.068162137E0,2.438583136E0,-1.464987278E0,-1.250638723E0,3.107566999E0
3.070607970E0,2.449578762E0,-1.458878636E0,-1.256747365E0,3.115794750E0
3.073052970E0,2.461796045E0,-1.448493838E0,-1.265910387E0,3.124276440E0
3.075497241E0,2.477678537E0,-1.428946257E0,-1.273851633E0,3.131050354E0
3.077942241E0,2.492950201E0,-1.398402929E0,-1.282403708E0,3.132872600E0
3.080388074E0,2.508832693E0,-1.353809834E0,-1.292788386E0,3.130230720E0
3.082833126E0,2.524104357E0,-1.296388507E0,-1.306227446E0,3.123772736E0
3.085277345E0,2.536321640E0,-1.232858658E0,-1.319055557E0,3.113322260E0
3.087722345E0,2.546095371E0,-1.163220048E0,-1.334327221E0,3.100985594E0
3.090168178E0,2.552204132E0,-1.095414042E0,-1.355707407E0,3.090569596E0
3.092613230E0,2.554647446E0,-1.030051589E0,-1.375255108E0,3.078726435E0
3.095057449E0,2.552204132E0,-9.695759416E-1,-1.397857070E0,3.067218255E0
3.097502449E0,2.549760580E0,-9.152089953E-1,-1.422902584E0,3.059989916E0
3.099948283E0,2.547317266E0,-8.693941236E-1,-1.449169755E0,3.056920734E0
3.102393335E0,2.545484543E0,-8.254118562E-1,-1.476047754E0,3.056061724E0
3.104837553E0,2.545484543E0,-7.869274020E-1,-1.501704097E0,3.058408326E0
3.107282605E0,2.544873714E0,-7.502754927E-1,-1.529193044E0,3.062307447E0
3.109728387E0,2.544262886E0,-7.166779637E-1,-1.552405953E0,3.065430668E0
3.112173439E0,2.539376020E0,-6.830803752E-1,-1.575007915E0,3.065237235E0
3.114617658E0,2.533267260E0,-6.549805999E-1,-1.596388102E0,3.065109715E0
3.117062710E0,2.528991222E0,-6.262699366E-1,-1.613492370E0,3.064533939E0
3.119508491E0,2.521660805E0,-5.987810493E-1,-1.628764033E0,3.061075666E0
3.121953543E0,2.514941216E0,-5.731247067E-1,-1.640981317E0,3.057158964E0
3.124397762E0,2.505778313E0,-5.486901402E-1,-1.650755167E0,3.050406275E0
3.126842814E0,2.497226238E0,-5.273098946E-1,-1.658085465E0,3.043590317E0
3.129288595E0,2.488063335E0,-5.065404773E-1,-1.663583279E0,3.035548013E0
3.131733647E0,2.478900194E0,-4.876036644E-1,-1.667859316E0,3.027285616E0
3.134177866E0,2.471570015E0,-4.741646647E-1,-1.668470144E0,3.019483911E0
3.136622918E0,2.464239597E0,-4.625582099E-1,-1.669081092E0,3.012020681E0
3.139068699E0,2.456909180E0,-4.564495683E-1,-1.667248487E0,3.004074973E0
3.141513751E0,2.448357105E0,-4.582821727E-1,-1.665415883E0,2.996345295E0
3.143957970E0,2.439194202E0,-4.668342769E-1,-1.661750674E0,2.988146232E0
3.146403022E0,2.429420233E0,-4.851602018E-1,-1.659307241E0,2.981738354E0
3.148848855E0,2.417813778E0,-5.108165145E-1,-1.656863809E0,2.975223463E0
3.151293855E0,2.407429218E0,-5.462467074E-1,-1.653198600E0,2.971054782E0
3.153738074E0,2.397044420E0,-5.865637660E-1,-1.650144219E0,2.968645305E0
3.156183126E0,2.389714003E0,-6.311568618E-1,-1.646479011E0,2.969845978E0
3.158628960E0,2.380551100E0,-6.800260544E-1,-1.645257354E0,2.972596631E0
3.161073960E0,2.373220682E0,-7.288952470E-1,-1.644035578E0,2.977636255E0
3.163518178E0,2.368944645E0,-7.771535516E-1,-1.644035578E0,2.986422501E0
3.165963230E0,2.363446951E0,-8.241901398E-1,-1.647089958E0,2.996343806E0
3.168409064E0,2.356727362E0,-8.681724072E-1,-1.648311615E0,3.004133547E0
3.170854064E0,2.346342564E0,-9.078785777E-1,-1.655031204E0,3.011427440E0
3.173298283E0,2.334736109E0,-9.445304871E-1,-1.662972450E0,3.018047036E0
3.175743335E0,2.322518826E0,-9.799606204E-1,-1.672746301E0,3.025309356E0
3.178189168E0,2.309079885E0,-1.012947321E0,-1.686185241E0,3.033336918E0
3.180634168E0,2.294419050E0,-1.044101477E0,-1.702067733E0,3.041634633E0
3.183078439E0,2.280369282E0,-1.072201252E0,-1.719172001E0,3.050451107E0
3.185523439E0,2.268762827E0,-1.098468423E0,-1.738719583E0,3.062199116E0
3.187969272E0,2.258378029E0,-1.122902989E0,-1.758878231E0,3.074871554E0
3.190414272E0,2.250436783E0,-1.141228914E0,-1.779647589E0,3.087719982E0
3.192858543E0,2.238830566E0,-1.155278802E0,-1.800416946E0,3.096535580E0
3.195303543E0,2.231500149E0,-1.161998272E0,-1.822408080E0,3.106606526E0
3.197749376E0,2.222337008E0,-1.168107033E0,-1.841344953E0,3.113487923E0
3.200194376E0,2.208898067E0,-1.168717861E0,-1.860892534E0,3.115774885E0
3.202638647E0,2.194237232E0,-1.167496085E0,-1.880440235E0,3.116693700E0
3.205083647E0,2.180187464E0,-1.165052652E0,-1.897544503E0,3.116286284E0
3.207529480E0,2.164304972E0,-1.161998272E0,-1.913426995E0,3.113785295E0
3.209974533E0,2.149033308E0,-1.160776615E0,-1.926255107E0,3.110659937E0
3.212418751E0,2.132539988E0,-1.158944011E0,-1.939083219E0,3.106593270E0
3.214863751E0,2.116046667E0,-1.156500578E0,-1.949468017E0,3.100898681E0
3.217309585E0,2.099553347E0,-1.155278802E0,-1.959241748E0,3.095387147E0
3.219754585E0,2.084281683E0,-1.151002765E0,-1.969015598E0,3.089669873E0
3.222198855E0,2.066566706E0,-1.146115899E0,-1.975124240E0,3.079836906E0
3.224643855E0,2.050073385E0,-1.139396310E0,-1.981232882E0,3.070229400E0
3.227089689E0,2.031747341E0,-1.135120273E0,-1.986119866E0,3.059602493E0
3.229534741E0,2.011588812E0,-1.132066011E0,-1.989785075E0,3.047508433E0
3.231978960E0,1.990819573E0,-1.132676840E0,-1.991617680E0,3.035269408E0
3.234423960E0,1.970661044E0,-1.135120273E0,-1.991006732E0,3.022600005E0
3.236869793E0,1.949280858E0,-1.143672347E0,-1.991006732E0,3.011941252E0
3.239314845E0,1.934009194E0,-1.154057026E0,-1.989785075E0,3.005242724E0
3.241759064E0,1.916294098E0,-1.166274428E0,-1.987341523E0,2.996982723E0
3.244204064E0,1.895524740E0,-1.180935144E0,-1.983065486E0,2.986665461E0
3.246649897E0,1.883307457E0,-1.191319823E0,-1.979400277E0,2.980623317E0
3.249094949E0,1.863148928E0,-1.205980539E0,-1.972069979E0,2.968968337E0
3.251539168E0,1.851542473E0,-1.216365337E0,-1.967182994E0,2.962695242E0
3.253984220E0,1.832605720E0,-1.227971673E0,-1.962296128E0,2.952450550E0
3.256430001E0,1.817334056E0,-1.233469486E0,-1.958630919E0,2.942853228E0
3.258875053E0,1.800229788E0,-1.238356471E0,-1.954354882E0,2.931528107E0
3.261319272E0,1.781293035E0,-1.237745523E0,-1.948857069E0,2.916001154E0
3.263764324E0,1.766021371E0,-1.236523867E0,-1.946413636E0,2.904539344E0
3.266210105E0,1.744641185E0,-1.232247710E0,-1.945191860E0,2.888940750E0
3.268655158E0,1.729980350E0,-1.224306583E0,-1.943359375E0,2.875483312E0
3.271099376E0,1.707989216E0,-1.219419599E0,-1.942137599E0,2.859389755E0
3.273544428E0,1.692717671E0,-1.209645748E0,-1.943970203E0,2.847377057E0
3.275990210E0,1.671948195E0,-1.202315450E0,-1.946413636E0,2.833637106E0
3.278435262E0,1.656065702E0,-1.189487219E0,-1.949468017E0,2.820967742E0
3.280879480E0,1.635907173E0,-1.178491712E0,-1.953133106E0,2.807091720E0
3.283324533E0,1.615137815E0,-1.168107033E0,-1.956798315E0,2.793242533E0
3.285770366E0,1.598644495E0,-1.154667974E0,-1.962296128E0,2.782000799E0
3.288215366E0,1.576653361E0,-1.146726727E0,-1.967793941E0,2.770023647E0
3.290659585E0,1.560770869E0,-1.135731101E0,-1.972680807E0,2.759956595E0
3.293104637E0,1.536336303E0,-1.129011631E0,-1.976346016E0,2.746077215E0
3.295550470E0,1.521675467E0,-1.113129139E0,-1.980622053E0,2.734486501E0
3.297995470E0,1.501516938E0,-1.100911856E0,-1.983676434E0,2.720575715E0
3.300439689E0,1.488077998E0,-1.083196759E0,-1.984898090E0,2.706937712E0
3.302884741E0,1.471584558E0,-1.067314267E0,-1.987341523E0,2.693370971E0
3.305330574E0,1.455702186E0,-1.049599171E0,-1.986730695E0,2.677279613E0
3.307775574E0,1.442873955E0,-1.033716798E0,-1.987341523E0,2.664579141E0
3.310219793E0,1.423937201E0,-1.022110343E0,-1.986730695E0,2.649416079E0
3.312664845E0,1.414774179E0,-1.011725664E0,-1.985509038E0,2.639587267E0
3.315110678E0,1.397059083E0,-1.006838679E0,-1.984287262E0,2.627335941E0
3.317555678E0,1.390339613E0,-1.004395247E0,-1.980622053E0,2.620060642E0
3.319999949E0,1.376289725E0,-1.009893060E0,-1.976346016E0,2.611513158E0
3.322444949E0,1.368959308E0,-1.014779925E0,-1.970848203E0,2.605392585E0
3.324890783E0,1.358574629E0,-1.022721171E0,-1.964128733E0,2.597977154E0
3.327335783E0,1.348800778E0,-1.026997209E0,-1.956798315E0,2.589024228E0
3.329780053E0,1.343302965E0,-1.031884193E0,-1.948857069E0,2.582109936E0
3.332225053E0,1.332918286E0,-1.033716798E0,-1.942137599E0,2.572380226E0
3.334670887E0,1.327420592E0,-1.028829813E0,-1.931752920E0,2.559727633E0
3.337115887E0,1.319479346E0,-1.023332119E0,-1.922589898E0,2.546485085E0
3.339560158E0,1.309705496E0,-1.014779925E0,-1.915870428E0,2.532916556E0
3.342005158E0,1.297488213E0,-1.006227851E0,-1.907318354E0,2.516710840E0
3.344450991E0,1.283438325E0,-9.982866049E-1,-1.901820540E0,2.502141372E0
3.346895991E0,1.268166661E0,-9.921779633E-1,-1.896933556E0,2.488176181E0
3.349340262E0,1.251673341E0,-9.866801500E-1,-1.892046690E0,2.473876421E0
3.351785262E0,1.235790849E0,-9.799606204E-1,-1.890214086E0,2.461790228E0
3.354231095E0,1.214410543E0,-9.787389040E-1,-1.889603257E0,2.450168011E0
3.356676147E0,1.193030357E0,-9.799606204E-1,-1.888992310E0,2.439659033E0
3.359120366E0,1.171650052E0,-9.811823964E-1,-1.890214086E0,2.430718418E0
3.361565366E0,1.148437142E0,-9.854584336E-1,-1.890824914E0,2.421828865E0
3.364011199E0,1.125224352E0,-9.940105081E-1,-1.893268466E0,2.416330320E0
3.366456251E0,1.103844047E0,-1.002562642E0,-1.894490123E0,2.410953412E0
3.368900470E0,1.082463741E0,-1.012336493E0,-1.896322727E0,2.406780591E0
3.371345470E0,1.062916160E0,-1.023942947E0,-1.896933556E0,2.403457267E0
3.373791303E0,1.042757630E0,-1.037992835E0,-1.895711899E0,2.399686689E0
3.376236355E0,1.025042534E0,-1.053264380E0,-1.893879294E0,2.397260276E0
3.378680574E0,1.010381699E0,-1.069757700E0,-1.892657518E0,2.397374646E0
3.381125574E0,9.932774901E-1,-1.085640192E0,-1.888992310E0,2.394474210E0
3.383571408E0,9.761732817E-1,-1.103966236E0,-1.885938048E0,2.393411383E0
3.386016460E0,9.602907896E-1,-1.119848609E0,-1.882272840E0,2.391478695E0
3.388460678E0,9.437974095E-1,-1.135120273E0,-1.877996802E0,2.388749374E0
3.390905678E0,9.260823727E-1,-1.148559332E0,-1.873109818E0,2.384398769E0
3.393351512E0,9.089781642E-1,-1.163830876E0,-1.867612123E0,2.380907108E0
3.395796564E0,8.900413513E-1,-1.174826503E0,-1.861503482E0,2.374360152E0
3.398240783E0,8.729371428E-1,-1.187654614E0,-1.856005669E0,2.370084340E0
3.400685835E0,8.558329344E-1,-1.199871898E0,-1.849897027E0,2.365219143E0
3.403131616E0,8.393395543E-1,-1.209645748E0,-1.845010042E0,2.360465162E0
3.405576668E0,8.222353458E-1,-1.216976166E0,-1.836457968E0,2.351527125E0
3.408020887E0,8.057420254E-1,-1.220641375E0,-1.830349326E0,2.342939229E0
3.410465939E0,7.898595333E-1,-1.221252203E0,-1.823018909E0,2.332109124E0
3.412911720E0,7.727553248E-1,-1.220641375E0,-1.815688610E0,2.320310601E0
3.415356772E0,7.580945492E-1,-1.221252203E0,-1.806525588E0,2.308614084E0
3.417800991E0,7.422120571E-1,-1.221252203E0,-1.800416946E0,2.298659797E0
3.420246043E0,7.275513411E-1,-1.227360845E0,-1.794308305E0,2.292441469E0
3.422691824E0,7.153340578E-1,-1.232247710E0,-1.786978006E0,2.285481925E0
3.425136876E0,7.031167150E-1,-1.237745523E0,-1.780258417E0,2.279409381E0
3.427581095E0,6.921211481E-1,-1.242021561E0,-1.773538947E0,2.273123322E0
3.430026147E0,6.805147529E-1,-1.244465113E0,-1.768651962E0,2.267139940E0
3.432471928E0,6.695191860E-1,-1.244465113E0,-1.763765097E0,2.260047936E0
3.434916980E0,6.591344476E-1,-1.237134695E0,-1.758267283E0,2.248658336E0
3.437361199E0,6.475280523E-1,-1.228582621E0,-1.753380418E0,2.236750036E0
3.439806251E0,6.365324855E-1,-1.216976166E0,-1.750326037E0,2.224824899E0
3.442252085E0,6.237043142E-1,-1.204758883E0,-1.746660829E0,2.211622727E0
3.444697085E0,6.084327102E-1,-1.193152428E0,-1.745439172E0,2.200082040E0
3.447141303E0,5.913285017E-1,-1.182767749E0,-1.746050000E0,2.190273852E0
3.449586355E0,5.754460096E-1,-1.177880764E0,-1.746050000E0,2.183399141E0
3.452032137E0,5.583418012E-1,-1.177269936E0,-1.746050000E0,2.178623573E0
3.454477189E0,5.400158763E-1,-1.181545973E0,-1.747882605E0,2.177788243E0
3.456921408E0,5.235224962E-1,-1.191930652E0,-1.749715209E0,2.180889221E0
3.459366460E0,5.051965714E-1,-1.206591487E0,-1.752158642E0,2.186583293E0
3.461812293E0,4.868706167E-1,-1.223695636E0,-1.752158642E0,2.191924705E0
3.464257293E0,4.715990126E-1,-1.241410732E0,-1.753991246E0,2.199998074E0
3.466701512E0,4.538839161E-1,-1.259125829E0,-1.753380418E0,2.205844816E0
3.469146564E0,4.373905957E-1,-1.275619149E0,-1.750936985E0,2.210044134E0
3.471592397E0,4.239515662E-1,-1.290890813E0,-1.748493433E0,2.214353925E0
3.474037397E0,4.092907906E-1,-1.305551529E0,-1.744217396E0,2.216817103E0
3.476481668E0,3.952409029E-1,-1.323266625E0,-1.739330530E0,2.220927875E0
3.478926668E0,3.799692988E-1,-1.342814326E0,-1.733221889E0,2.225215742E0
3.481372501E0,3.653085530E-1,-1.359918475E0,-1.727724075E0,2.228869462E0
3.483817501E0,3.494260609E-1,-1.377633572E0,-1.722226262E0,2.232943378E0
3.486261772E0,3.335435688E-1,-1.392905235E0,-1.715506792E0,2.234815397E0
3.488706772E0,3.158285022E-1,-1.405122519E0,-1.711230755E0,2.236610746E0
3.491152605E0,2.981134355E-1,-1.413674593E0,-1.703900337E0,2.233970419E0
3.493597605E0,2.797874808E-1,-1.416728973E0,-1.700235128E0,2.230740126E0
3.496041876E0,2.626832724E-1,-1.416728973E0,-1.696569920E0,2.225864546E0
3.498486876E0,2.455790788E-1,-1.411841989E0,-1.692904830E0,2.218002175E0
3.500932710E0,2.296965867E-1,-1.402068138E0,-1.689850450E0,2.207747750E0
3.503377710E0,2.150358409E-1,-1.389240026E0,-1.688017845E0,2.196732234E0
3.505821980E0,2.003750801E-1,-1.366638064E0,-1.688017845E0,2.181113023E0
3.508266980E0,1.857143342E-1,-1.343425155E0,-1.689239621E0,2.166289791E0
3.510712814E0,1.728861779E-1,-1.314714551E0,-1.691683054E0,2.149454707E0
3.513157814E0,1.606688797E-1,-1.284171224E0,-1.695348263E0,2.132865667E0
3.515602085E0,1.508950442E-1,-1.253628016E0,-1.700235128E0,2.117817747E0
3.518047085E0,1.405103356E-1,-1.223695636E0,-1.707565546E0,2.105458206E0
3.520492918E0,1.301256418E-1,-1.196206808E0,-1.714285016E0,2.094425106E0
3.522937970E0,1.221844032E-1,-1.170550466E0,-1.724669695E0,2.087966230E0
3.525382189E0,1.136322916E-1,-1.151002765E0,-1.735054493E0,2.085217916E0
3.527827189E0,1.075236499E-1,-1.134509444E0,-1.742384791E0,2.081964883E0
3.530273022E0,1.001932696E-1,-1.118016124E0,-1.752158642E0,2.080879297E0
3.532718074E0,9.530635178E-2,-1.100301027E0,-1.757656455E0,2.075837630E0
3.535162293E0,9.041943401E-2,-1.078920722E0,-1.762543321E0,2.068527146E0
3.537607293E0,8.369992673E-2,-1.055707812E0,-1.762543321E0,2.056230439E0
3.540053126E0,8.247819543E-2,-1.030051589E0,-1.761932492E0,2.042600068E0
3.542498178E0,8.125646412E-2,-1.000119209E0,-1.756434679E0,2.022845478E0
3.544942397E0,8.003473282E-2,-9.683542252E-1,-1.752158642E0,2.003540708E0
3.547387397E0,8.186732978E-2,-9.365892410E-1,-1.742384791E0,1.979850102E0
3.549833230E0,8.308906108E-2,-9.054351449E-1,-1.732610941E0,1.956695497E0
3.552278283E0,8.553251624E-2,-8.767244816E-1,-1.723448038E0,1.935519250E0
3.554722501E0,8.797597885E-2,-8.565659523E-1,-1.713063359E0,1.917297858E0
3.557167553E0,8.980856836E-2,-8.412943482E-1,-1.702678561E0,1.901303774E0
3.559613335E0,9.286289662E-2,-8.315204978E-1,-1.693515658E0,1.888926981E0
3.562058387E0,9.469548613E-2,-8.302987814E-1,-1.681909204E0,1.878079304E0
3.564502605E0,9.469548613E-2,-8.339639902E-1,-1.670302749E0,1.869324596E0
3.566947658E0,9.652808309E-2,-8.425160646E-1,-1.659307241E0,1.863451505E0
3.569393439E0,9.530635178E-2,-8.583985567E-1,-1.648311615E0,1.860876826E0
3.571838491E0,9.652808309E-2,-8.761136532E-1,-1.637316108E0,1.859488328E0
3.574282710E0,9.652808309E-2,-8.981047869E-1,-1.625098825E0,1.859262238E0
3.576727762E0,9.652808309E-2,-9.249827862E-1,-1.613492370E0,1.862328771E0
3.579173543E0,9.591721743E-2,-9.506391287E-1,-1.600053310E0,1.863621598E0
3.581618595E0,9.591721743E-2,-9.762954712E-1,-1.587225199E0,1.865914465E0
3.584062814E0,9.530635178E-2,-1.001340985E0,-1.573786139E0,1.867771368E0
3.586507866E0,9.530635178E-2,-1.021499515E0,-1.559736252E0,1.866901640E0
3.588953647E0,9.347376227E-2,-1.033105850E0,-1.545075536E0,1.860995286E0
3.591398699E0,9.103029966E-2,-1.041657925E0,-1.531025648E0,1.854016527E0
3.593842918E0,8.675424755E-2,-1.042268872E0,-1.519419193E0,1.844582713E0
3.596287970E0,8.308906108E-2,-1.034327626E0,-1.507201910E0,1.829862024E0
3.598733751E0,7.820214331E-2,-1.018445134E0,-1.495595455E0,1.811118945E0
3.601178803E0,7.331522554E-2,-9.952322841E-1,-1.485821605E0,1.789840290E0
3.603623022E0,6.781744212E-2,-9.616346955E-1,-1.477880359E0,1.764503003E0
3.606068074E0,6.293052435E-2,-9.249827862E-1,-1.471771717E0,1.739443990E0
3.608513855E0,5.865446851E-2,-8.791679740E-1,-1.468106508E0,1.712224691E0
3.610958908E0,5.682187527E-2,-8.284661770E-1,-1.464441419E0,1.683500401E0
3.613403126E0,5.498928204E-2,-7.753209472E-1,-1.465052247E0,1.658470524E0
3.615848178E0,5.498928204E-2,-7.166779637E-1,-1.468106508E0,1.634621621E0
3.618293960E0,5.498928204E-2,-6.574240923E-1,-1.469939113E0,1.611195597E0
3.620739012E0,5.743274093E-2,-5.963376164E-1,-1.474215269E0,1.591297500E0
3.623183230E0,5.987619981E-2,-5.364728570E-1,-1.478491306E0,1.573951978E0
3.625628283E0,6.109792739E-2,-4.796624184E-1,-1.485210776E0,1.561941114E0
3.628074116E0,6.109792739E-2,-4.210194051E-1,-1.491930246E0,1.551401352E0
3.630519116E0,6.293052435E-2,-3.684850633E-1,-1.498649836E0,1.544568814E0
3.632963335E0,5.926533416E-2,-3.220593333E-1,-1.504147530E0,1.539381169E0
3.635408387E0,5.498928204E-2,-2.768553495E-1,-1.509034514E0,1.535206133E0
3.637854220E0,5.071322620E-2,-2.402034551E-1,-1.510256171E0,1.530079486E0
3.640299220E0,4.582630843E-2,-2.114928216E-1,-1.513310552E0,1.528704710E0
3.642743439E0,4.032852873E-2,-1.925560087E-1,-1.515143156E0,1.527862229E0
3.645188491E0,3.238728642E-2,-1.840039045E-1,-1.513921380E0,1.525406280E0
3.647634324E0,2.444604225E-2,-1.803387254E-1,-1.509034514E0,1.519968694E0
3.650079324E0,1.711566560E-2,-1.888908297E-1,-1.505369306E0,1.517270390E0
3.652523543E0,8.563559502E-3,-2.004972547E-1,-1.499260664E0,1.512631820E0
3.654968595E0,-5.994110834E-4,-2.200449258E-1,-1.490097642E0,1.506257319E0
3.657414428E0,-1.037324686E-2,-2.432577908E-1,-1.480323911E0,1.500213597E0
3.659859428E0,-1.831448637E-2,-2.695249617E-1,-1.468106508E0,1.492754449E0
3.662303647E0,-2.808832191E-2,-2.982355952E-1,-1.454056621E0,1.484592227E0
3.664748699E0,-3.908388689E-2,-3.300005794E-1,-1.442450285E0,1.480233346E0
3.667194533E0,-5.069031566E-2,-3.617655337E-1,-1.430233002E0,1.476147096E0
3.669639533E0,-6.107501686E-2,-3.916979134E-1,-1.418626547E0,1.472976134E0
3.672083803E0,-7.329230756E-2,-4.234628677E-1,-1.407020092E0,1.471189349E0
3.674528803E0,-8.489874005E-2,-4.515626431E-1,-1.396024585E0,1.469694274E0
3.676974637E0,-9.406170994E-2,-4.802733064E-1,-1.386861563E0,1.470678431E0
3.679419637E0,-1.050572768E-1,-5.053187609E-1,-1.376476884E0,1.470058738E0
3.681863908E0,-1.136093810E-1,-5.254772902E-1,-1.367924690E0,1.469779382E0
3.684308908E0,-1.233832240E-1,-5.456358194E-1,-1.359372616E0,1.469978155E0
3.686754741E0,-1.313244551E-1,-5.627400279E-1,-1.350820541E0,1.469230610E0
3.689199741E0,-1.380439699E-1,-5.761790872E-1,-1.341657519E0,1.466657212E0
3.691644012E0,-1.472069472E-1,-5.871745944E-1,-1.335548878E0,1.466333760E0
3.694089012E0,-1.539264470E-1,-5.975593328E-1,-1.329440236E0,1.465667714E0
3.696534845E0,-1.612568349E-1,-6.073331833E-1,-1.323942542E0,1.465496918E0
3.698979845E0,-1.710306704E-1,-6.146635413E-1,-1.320277333E0,1.466354321E0
3.701424116E0,-1.789719015E-1,-6.232156157E-1,-1.319055557E0,1.469808222E0
3.703869116E0,-1.875240058E-1,-6.317677498E-1,-1.317833900E0,1.473425238E0
3.706314949E0,-1.954652518E-1,-6.390981078E-1,-1.318444729E0,1.478157488E0
3.708759949E0,-2.040173560E-1,-6.439850330E-1,-1.321498990E0,1.484149381E0
3.711204220E0,-2.150129229E-1,-6.464285254E-1,-1.323942542E0,1.488933931E0
3.713649220E0,-2.260084897E-1,-6.470393538E-1,-1.327607632E0,1.494082256E0
3.716095053E0,-2.370040566E-1,-6.439850330E-1,-1.330662012E0,1.497180362E0
3.718540105E0,-2.467778921E-1,-6.378763914E-1,-1.333105445E0,1.498317639E0
3.720984324E0,-2.571626008E-1,-6.287134290E-1,-1.333716273E0,1.496733870E0
3.723429324E0,-2.644929886E-1,-6.164961457E-1,-1.334327221E0,1.493470178E0
3.725875158E0,-2.736559510E-1,-6.055005789E-1,-1.333105445E0,1.489526320E0
3.728320210E0,-2.815971971E-1,-5.920615196E-1,-1.329440236E0,1.482310752E0
3.730764428E0,-2.883166969E-1,-5.774008036E-1,-1.325164199E0,1.473966879E0
3.733209428E0,-2.944253683E-1,-5.602965951E-1,-1.318444729E0,1.462503017E0
3.735655262E0,-2.980905473E-1,-5.450249314E-1,-1.310503483E0,1.450286016E0
3.738100314E0,-3.017557263E-1,-5.266990066E-1,-1.299507856E0,1.434290428E0
3.740544533E0,-3.048100471E-1,-5.089839101E-1,-1.286679745E0,1.416869278E0
3.742989585E0,-3.054209054E-1,-4.918797314E-1,-1.273240685E0,1.398702771E0
3.745435366E0,-3.072535098E-1,-4.741646647E-1,-1.258579969E0,1.379587035E0
3.747880418E0,-3.060317934E-1,-4.564495683E-1,-1.242697477E0,1.358785740E0
3.750324637E0,-3.035883307E-1,-4.399562180E-1,-1.226204157E0,1.337648677E0
3.752769637E0,-3.017557263E-1,-4.259063303E-1,-1.207267284E0,1.315274502E0
3.755215470E0,-3.023665845E-1,-4.100238681E-1,-1.189552307E0,1.294055569E0
3.757660522E0,-2.999231219E-1,-3.971956968E-1,-1.168172002E0,1.269781133E0
3.760104741E0,-2.987014055E-1,-3.868109882E-1,-1.146791697E0,1.246585924E0
3.762549793E0,-2.974796891E-1,-3.788697422E-1,-1.122967958E0,1.221922044E0
3.764995574E0,-2.974796891E-1,-3.715393841E-1,-1.100365996E0,1.198891574E0
3.767440626E0,-2.944253683E-1,-3.654307425E-1,-1.077153087E0,1.174940295E0
3.769884845E0,-2.944253683E-1,-3.623763919E-1,-1.054551125E0,1.153291386E0
3.772329897E0,-2.950362265E-1,-3.599329591E-1,-1.031949162E0,1.132041158E0
3.774775678E0,-2.956470847E-1,-3.605438173E-1,-1.009958029E0,1.112391236E0
3.777220730E0,-2.956470847E-1,-3.611546755E-1,-9.861341715E-1,1.091008938E0
3.779664949E0,-2.968688011E-1,-3.629872799E-1,-9.641430378E-1,1.072129958E0
3.782110001E0,-2.962579429E-1,-3.654307425E-1,-9.445953965E-1,1.055257722E0
3.784555783E0,-2.968688011E-1,-3.715393841E-1,-9.268803000E-1,1.041767579E0
3.787000835E0,-2.980905473E-1,-3.752045631E-1,-9.122195244E-1,1.030427532E0
3.789445053E0,-3.011448681E-1,-3.819240630E-1,-8.981696367E-1,1.021402427E0
3.791890105E0,-3.035883307E-1,-3.880327344E-1,-8.871740699E-1,1.014797077E0
3.794335939E0,-3.060317934E-1,-3.959739804E-1,-8.774002790E-1,1.010090145E0
3.796780939E0,-3.109186888E-1,-4.014717340E-1,-8.682373166E-1,1.005826040E0
3.799225158E0,-3.151947558E-1,-4.051369429E-1,-8.602960706E-1,1.001794892E0
3.801670210E0,-3.194708228E-1,-4.094129801E-1,-8.523548245E-1,9.980928523E-1
3.804115991E0,-3.225251436E-1,-4.142999053E-1,-8.450244069E-1,9.948533199E-1
3.806561043E0,-3.268011808E-1,-4.167433679E-1,-8.370831609E-1,9.905464475E-1
3.809005262E0,-3.292446434E-1,-4.185759723E-1,-8.279201984E-1,9.844083171E-1
3.811450314E0,-3.329098225E-1,-4.222411513E-1,-8.199789524E-1,9.805518967E-1
3.813896147E0,-3.365750313E-1,-4.252954721E-1,-8.114268780E-1,9.759982421E-1
3.816341147E0,-3.396293521E-1,-4.307932556E-1,-8.028747439E-1,9.723881840E-1
3.818785366E0,-3.439053893E-1,-4.369018972E-1,-7.918791771E-1,9.675881436E-1
3.821230418E0,-3.481814563E-1,-4.430105388E-1,-7.833271027E-1,9.649300564E-1
3.823676251E0,-3.542900980E-1,-4.515626431E-1,-7.723315358E-1,9.622506406E-1
3.826121251E0,-3.585661650E-1,-4.588930309E-1,-7.607250810E-1,9.580475757E-1
3.828565470E0,-3.634530604E-1,-4.656125307E-1,-7.509512901E-1,9.554166609E-1
3.831010522E0,-3.701725900E-1,-4.723320603E-1,-7.393448353E-1,9.522374216E-1
3.833456355E0,-3.775029480E-1,-4.778298438E-1,-7.265166640E-1,9.479748406E-1
3.835901355E0,-3.830007315E-1,-4.796624184E-1,-7.130776644E-1,9.408747798E-1
3.838345574E0,-3.891093731E-1,-4.808841646E-1,-6.996386051E-1,9.338896411E-1
3.840790626E0,-3.939962983E-1,-4.796624184E-1,-6.855887175E-1,9.248464782E-1
3.843236460E0,-3.970506191E-1,-4.759972394E-1,-6.690953970E-1,9.120916710E-1
3.845681460E0,-4.013266861E-1,-4.692777395E-1,-6.519911885E-1,8.979850866E-1
3.848125678E0,-4.001049399E-1,-4.650016725E-1,-6.361086965E-1,8.837108080E-1
3.850570730E0,-4.013266861E-1,-4.601147473E-1,-6.196153760E-1,8.698803963E-1
3.853016564E0,-4.007158279E-1,-4.521735311E-1,-6.025111079E-1,8.532606355E-1
3.855461564E0,-3.994940817E-1,-4.436214268E-1,-5.854068995E-1,8.361200450E-1
3.857905783E0,-3.976615071E-1,-4.344584346E-1,-5.689135790E-1,8.188720694E-1
3.860350835E0,-3.958289027E-1,-4.252954721E-1,-5.536419749E-1,8.025435784E-1
3.862796668E0,-3.952180445E-1,-4.179650843E-1,-5.389811993E-1,7.882847503E-1
3.865241668E0,-3.939962983E-1,-4.088021219E-1,-5.249313116E-1,7.732432605E-1
3.867685887E0,-3.946071565E-1,-3.996391594E-1,-5.121031404E-1,7.600499274E-1
3.870130939E0,-3.933854401E-1,-3.929196298E-1,-5.004967451E-1,7.480875162E-1
3.872576772E0,-3.921637237E-1,-3.874218464E-1,-4.876685739E-1,7.360086353E-1
3.875021772E0,-3.915528357E-1,-3.837566674E-1,-4.772838652E-1,7.268993678E-1
3.877466043E0,-3.891093731E-1,-3.794806302E-1,-4.675100446E-1,7.169220981E-1
3.879911043E0,-3.878876567E-1,-3.764262795E-1,-4.577361941E-1,7.082909018E-1
3.882356876E0,-3.854441941E-1,-3.752045631E-1,-4.473514855E-1,6.996206419E-1
3.884801876E0,-3.842224777E-1,-3.709285259E-1,-4.406319857E-1,6.923665434E-1
3.887246147E0,-3.817790151E-1,-3.690959215E-1,-4.320798814E-1,6.846021031E-1
3.889691147E0,-3.799464107E-1,-3.660416007E-1,-4.235277772E-1,6.765511854E-1
3.892136980E0,-3.805572689E-1,-3.623763919E-1,-4.174191356E-1,6.711029869E-1
3.894581980E0,-3.805572689E-1,-3.593220711E-1,-4.113104641E-1,6.656669464E-1
3.897026251E0,-3.799464107E-1,-3.562677503E-1,-4.058126807E-1,6.602801804E-1
3.899471251E0,-3.781138062E-1,-3.513808548E-1,-4.009257853E-1,6.535901169E-1
3.901917085E0,-3.756703734E-1,-3.471047878E-1,-3.960388601E-1,6.468823246E-1
3.904362085E0,-3.707834482E-1,-3.422178626E-1,-3.911519349E-1,6.384303150E-1
3.906806355E0,-3.671182692E-1,-3.367200792E-1,-3.856541514E-1,6.299883807E-1
3.909251355E0,-3.622313440E-1,-3.324440420E-1,-3.807672262E-1,6.218635447E-1
3.911697189E0,-3.579552770E-1,-3.263354003E-1,-3.722151220E-1,6.108771324E-1
3.914142189E0,-3.524574935E-1,-3.196158707E-1,-3.691608012E-1,6.022128251E-1
3.916586460E0,-3.475705981E-1,-3.141180873E-1,-3.624413013E-1,5.923167990E-1
3.919031460E0,-3.408510685E-1,-3.086203039E-1,-3.551109135E-1,5.809730663E-1
3.921477293E0,-3.347424269E-1,-3.049551249E-1,-3.490022719E-1,5.717103343E-1
3.923922345E0,-3.316881061E-1,-3.031225204E-1,-3.398393095E-1,5.633746696E-1
3.926366564E0,-3.280229270E-1,-3.025116622E-1,-3.349523842E-1,5.579475299E-1
3.928811564E0,-3.249685764E-1,-3.043442667E-1,-3.276219964E-1,5.527804092E-1
3.931257397E0,-3.225251436E-1,-3.092311621E-1,-3.202916384E-1,5.497573224E-1
3.933702449E0,-3.200816810E-1,-3.177832961E-1,-3.123503923E-1,5.486358295E-1
3.936146668E0,-3.182490766E-1,-3.269462585E-1,-3.074634671E-1,5.501909799E-1
3.938591668E0,-3.164164722E-1,-3.373309374E-1,-3.013548255E-1,5.520201772E-1
3.941037501E0,-3.139730394E-1,-3.495482504E-1,-2.970787883E-1,5.558946441E-1
3.943482553E0,-3.127512932E-1,-3.635981381E-1,-2.915810049E-1,5.612810881E-1
3.945926772E0,-3.109186888E-1,-3.770371675E-1,-2.873049378E-1,5.668964491E-1
3.948371772E0,-3.072535098E-1,-3.904761970E-1,-2.830289006E-1,5.718231705E-1
3.950817605E0,-3.041991889E-1,-4.033043385E-1,-2.793636918E-1,5.772656306E-1
3.953262658E0,-3.017557263E-1,-4.179650843E-1,-2.744767666E-1,5.840281033E-1
3.955706876E0,-2.993122637E-1,-4.314041138E-1,-2.720333338E-1,5.913539340E-1
3.958151876E0,-2.925927639E-1,-4.466757476E-1,-2.671464086E-1,5.970736576E-1
3.960597710E0,-2.883166969E-1,-4.619473517E-1,-2.628703415E-1,6.046674209E-1
3.963042762E0,-2.852623761E-1,-4.766080976E-1,-2.610377669E-1,6.137349734E-1
3.965486980E0,-2.828189135E-1,-4.888254106E-1,-2.579834461E-1,6.208802448E-1
3.967931980E0,-2.797645926E-1,-5.034861565E-1,-2.567616999E-1,6.306291363E-1
3.970377814E0,-2.791537344E-1,-5.150925517E-1,-2.567616999E-1,6.396668780E-1
3.972822866E0,-2.779320180E-1,-5.285316110E-1,-2.561508417E-1,6.497731328E-1
3.975267085E0,-2.760994136E-1,-5.364728570E-1,-2.579834461E-1,6.561931659E-1
3.977712137E0,-2.724342346E-1,-5.444141030E-1,-2.592051625E-1,6.616603691E-1
3.980157918E0,-2.699907720E-1,-5.523553491E-1,-2.610377669E-1,6.679312572E-1
3.982602970E0,-2.687690258E-1,-5.590748191E-1,-2.634811997E-1,6.739612639E-1
3.985047189E0,-2.651038468E-1,-5.633509159E-1,-2.659246624E-1,6.770230647E-1
3.987492241E0,-2.596060634E-1,-5.688486695E-1,-2.689789832E-1,6.806862789E-1
3.989938022E0,-2.583843470E-1,-5.743464828E-1,-2.726441920E-1,6.862734210E-1
3.992383074E0,-2.547191381E-1,-5.798442364E-1,-2.750876546E-1,6.904885195E-1
