"Time (s)","Gyroscope x (rad/s)","Gyroscope y (rad/s)","Gyroscope z (rad/s)","Absolute (rad/s)"
9.878069200E-2,4.155025631E-2,-3.189859167E-2,-1.985309646E-4,5.238304463E-2
1.012265260E-1,4.460458085E-2,-3.617464378E-2,-1.420259941E-3,5.744728561E-2
1.036715260E-1,4.582630843E-2,-4.045069590E-2,-8.093961515E-4,6.113071622E-2
1.061157450E-1,4.765890539E-2,-4.411588609E-2,-2.031125594E-3,6.497467306E-2
1.085607970E-1,4.765890539E-2,-4.839193821E-2,-1.420259941E-3,6.793502841E-2
1.110066300E-1,4.888063297E-2,-5.388972163E-2,-1.985309646E-4,7.275615294E-2
1.134516300E-1,4.949149862E-2,-5.755491182E-2,-8.093961515E-4,7.591199795E-2
1.158959010E-1,5.071322620E-2,-6.122009829E-2,1.634063199E-3,7.951353286E-2
1.183409010E-1,5.132409185E-2,-6.488528848E-2,1.023198478E-3,8.273638861E-2
1.207867340E-1,5.254582316E-2,-7.038307190E-2,1.023198478E-3,8.784012339E-2
1.232317860E-1,5.254582316E-2,-7.404825836E-2,4.123337567E-4,9.079855790E-2
1.256760050E-1,5.193495750E-2,-7.710257918E-2,4.123337567E-4,9.296352804E-2
1.281210050E-1,5.132409185E-2,-8.015690744E-2,-1.985309646E-4,9.518052127E-2
1.305668380E-1,5.254582316E-2,-8.137863874E-2,-1.985309646E-4,9.686891034E-2
1.330118900E-1,5.132409185E-2,-8.137863874E-2,1.634063199E-3,9.622533664E-2
1.354561090E-1,5.132409185E-2,-8.076777309E-2,-1.985309646E-4,9.569553275E-2
1.379011610E-1,5.071322620E-2,-7.832431048E-2,-8.093961515E-4,9.331229311E-2
1.403469420E-1,5.071322620E-2,-7.526998967E-2,-1.420259941E-3,9.077124982E-2
1.427919950E-1,5.071322620E-2,-7.038307190E-2,-1.420259941E-3,8.676188829E-2
1.452362130E-1,4.826977104E-2,-6.855047494E-2,-3.252855036E-3,8.390303616E-2
1.476812650E-1,4.704803973E-2,-6.549615413E-2,-3.863718826E-3,8.073532419E-2
1.501270990E-1,4.704803973E-2,-6.305269152E-2,-5.085448269E-3,7.883540914E-2
1.525720990E-1,4.582630843E-2,-5.938750505E-2,-6.307177711E-3,7.527753178E-2
1.550163170E-1,4.582630843E-2,-5.450058728E-2,-8.139772341E-3,7.167022012E-2
1.574613700E-1,4.338285327E-2,-5.144626275E-2,-1.119409502E-2,6.822094746E-2
1.599072030E-1,4.155025631E-2,-4.961366951E-2,-1.180496067E-2,6.578219439E-2
1.623522030E-1,3.971766308E-2,-4.778107628E-2,-1.302669011E-2,6.348400323E-2
1.647964740E-1,3.727420419E-2,-4.045069590E-2,-1.424841955E-2,5.682114533E-2
1.672414740E-1,3.483074531E-2,-3.434205055E-2,-1.669187844E-2,5.168342153E-2
1.696873070E-1,3.177642077E-2,-2.823340334E-2,-1.669187844E-2,4.566710837E-2
1.721323590E-1,3.055469133E-2,-2.273562178E-2,-1.852447167E-2,4.235154909E-2
1.745765780E-1,2.688950114E-2,-1.540524606E-2,-1.913533732E-2,3.642153226E-2
1.770215780E-1,2.383517660E-2,-4.409679212E-3,-2.096793056E-2,3.205019542E-2
1.794674110E-1,2.261344902E-2,2.920697676E-3,-2.218966186E-2,3.181634242E-2
1.819124630E-1,2.016999014E-2,9.029342793E-3,-2.157879621E-2,3.088692246E-2
1.843566820E-1,1.894825883E-2,1.635972038E-2,-2.218966186E-2,3.345232514E-2
1.868017340E-1,1.528307237E-2,2.369009703E-2,-2.157879621E-2,3.550263996E-2
1.892475150E-1,1.345047727E-2,3.040961176E-2,-2.157879621E-2,3.963968052E-2
1.916925670E-1,1.161788311E-2,3.590739518E-2,-2.157879621E-2,4.347367804E-2
1.941367860E-1,7.952694781E-3,4.262690246E-2,-2.096793056E-2,4.816588294E-2
1.965818380E-1,6.120100617E-3,4.568123072E-2,-2.096793056E-2,5.063481593E-2
1.990276720E-1,4.287506454E-3,5.056814849E-2,-1.974620298E-2,5.445578836E-2
2.014726720E-1,1.844047802E-3,5.606593192E-2,-1.913533732E-2,5.927014736E-2
2.039168900E-1,6.223183591E-4,6.034198031E-2,-1.669187844E-2,6.261118649E-2
2.063619420E-1,-1.821140526E-3,6.522890180E-2,-1.547014900E-2,6.706304268E-2
2.088077760E-1,-4.264599644E-3,6.889408082E-2,-1.424841955E-2,7.048119353E-2
2.112527760E-1,-6.708058529E-3,7.317013294E-2,-1.363755390E-2,7.473184916E-2
2.136970470E-1,-7.318923250E-3,7.683532685E-2,-1.058323123E-2,7.790531993E-2
2.161420470E-1,-9.151517414E-3,7.744618505E-2,-9.972365573E-3,7.862003514E-2
2.185878800E-1,-1.037324686E-2,8.111137897E-2,-9.972365573E-3,8.237783757E-2
2.210329320E-1,-1.037324686E-2,8.111137897E-2,-8.139772341E-3,8.217612757E-2
2.234771510E-1,-1.526016463E-2,8.172223717E-2,-5.696313921E-3,8.332973458E-2
2.259221510E-1,-1.220584102E-2,8.538743109E-2,-6.307177711E-3,8.648570074E-2
2.283679840E-1,-1.770362258E-2,8.355484158E-2,-6.307177711E-3,8.564233938E-2
2.308130360E-1,-1.342756953E-2,8.355484158E-2,-5.085448269E-3,8.477955508E-2
2.332572550E-1,-1.770362258E-2,7.988964766E-2,-5.696313921E-3,8.202574016E-2
2.357023070E-1,-1.587102748E-2,8.050050586E-2,-5.085448269E-3,8.220755891E-2
2.381480880E-1,-1.892535202E-2,7.683532685E-2,-3.863718826E-3,7.922603565E-2
2.405931400E-1,-1.892535202E-2,7.439186424E-2,-4.474584479E-3,7.689174416E-2
2.430373590E-1,-1.892535202E-2,7.072667032E-2,-4.474584479E-3,7.335156952E-2
2.454824110E-1,-2.259054221E-2,6.583976001E-2,-5.085448269E-3,6.979303962E-2
2.479282450E-1,-1.831448637E-2,6.156371161E-2,-5.085448269E-3,6.443114761E-2
2.503732450E-1,-2.259054221E-2,5.606593192E-2,-4.474584479E-3,6.061141168E-2
2.528174630E-1,-1.953621767E-2,5.178987235E-2,-3.863718826E-3,5.548678223E-2
2.552625150E-1,-2.381226979E-2,4.384863377E-2,-3.863718826E-3,5.004653034E-2
2.577083490E-1,-2.197967656E-2,4.018344730E-2,-2.641989384E-3,4.587805278E-2
2.601533490E-1,-2.381226979E-2,3.285306692E-2,-3.863718826E-3,4.075876006E-2
2.625976200E-1,-2.259054221E-2,2.796614915E-2,-3.863718826E-3,3.615752230E-2
2.650426200E-1,-2.259054221E-2,2.185750380E-2,-3.252855036E-3,3.160164767E-2
2.674884530E-1,-2.320140414E-2,1.452712622E-2,-2.031125594E-3,2.744937197E-2
2.699334530E-1,-2.197967656E-2,1.086193975E-2,-8.093961515E-4,2.453045126E-2
2.723777240E-1,-2.442313544E-2,4.753290676E-3,-2.031125594E-3,2.496415006E-2
2.748227240E-1,-1.892535202E-2,3.531559603E-3,-1.420259941E-3,1.930435186E-2
2.772685570E-1,-2.320140414E-2,-3.187951399E-3,4.123337567E-4,2.342302729E-2
2.797136090E-1,-2.014708333E-2,-4.409679212E-3,4.123337567E-4,2.062814234E-2
2.821578280E-1,-1.953621767E-2,-9.296596982E-3,2.244927920E-3,2.175155668E-2
2.846028800E-1,-1.831448637E-2,-9.907462634E-3,2.855792642E-3,2.101746365E-2
2.870486610E-1,-1.953621767E-2,-1.296178717E-2,2.855792642E-3,2.361836741E-2
2.894937130E-1,-2.197967656E-2,-1.479438040E-2,4.077522084E-3,2.680682860E-2
2.919379320E-1,-1.892535202E-2,-1.540524606E-2,4.688386805E-3,2.484897435E-2
2.943829840E-1,-2.259054221E-2,-1.784870401E-2,5.299251527E-3,2.927440689E-2
2.968288170E-1,-1.953621767E-2,-1.784870401E-2,5.299251527E-3,2.698744342E-2
2.992738170E-1,-2.259054221E-2,-1.968129724E-2,4.688386805E-3,3.032601242E-2
3.017180360E-1,-1.831448637E-2,-1.907043159E-2,2.244927920E-3,2.653566418E-2
3.041630880E-1,-2.014708333E-2,-2.151389048E-2,2.244927920E-3,2.955997550E-2
3.066089220E-1,-1.831448637E-2,-2.029216290E-2,4.123337567E-4,2.733792796E-2
3.090539220E-1,-1.770362258E-2,-2.151389048E-2,4.123337567E-4,2.786459680E-2
3.114981920E-1,-1.892535202E-2,-2.151389048E-2,-2.031125594E-3,2.872528335E-2
3.139431920E-1,-1.770362258E-2,-1.845956780E-2,-5.085448269E-3,2.607749374E-2
3.163890260E-1,-2.136881091E-2,-1.907043159E-2,-5.696313921E-3,2.920197652E-2
3.188340260E-1,-1.526016463E-2,-1.784870401E-2,-6.307177711E-3,2.431520820E-2
3.212782970E-1,-1.953621767E-2,-1.662697271E-2,-6.918043364E-3,2.657027185E-2
3.237232970E-1,-1.587102748E-2,-1.357265096E-2,-8.139772341E-3,2.241343930E-2
3.261691300E-1,-1.892535202E-2,-1.296178717E-2,-7.528907154E-3,2.414252097E-2
3.286141820E-1,-1.587102748E-2,-8.074869402E-3,-6.918043364E-3,1.910372616E-2
3.310584010E-1,-1.464930084E-2,-5.631410517E-3,-7.528907154E-3,1.740687342E-2
3.335034010E-1,-1.587102748E-2,-7.444925141E-4,-6.918043364E-3,1.732925580E-2
3.359492340E-1,-1.220584102E-2,4.142425023E-3,-6.307177711E-3,1.435000804E-2
3.383942860E-1,-1.526016463E-2,8.418477140E-3,-6.307177711E-3,1.853439701E-2
3.408385050E-1,-9.762382135E-3,1.269453298E-2,-5.696313921E-3,1.699715461E-2
3.432835570E-1,-1.342756953E-2,1.391626056E-2,-5.085448269E-3,1.999559241E-2
3.457293380E-1,-9.151517414E-3,1.819231361E-2,-5.085448269E-3,2.098981490E-2
3.481743900E-1,-1.159497630E-2,1.880317926E-2,-5.696313921E-3,2.281339558E-2
3.506186090E-1,-1.098411158E-2,2.063577622E-2,-5.085448269E-3,2.392379049E-2
3.530636610E-1,-9.762382135E-3,2.124663815E-2,-5.085448269E-3,2.392875930E-2
3.555094950E-1,-9.151517414E-3,2.002491057E-2,-5.696313921E-3,2.274192838E-2
3.579544950E-1,-6.097193807E-3,2.124663815E-2,-5.085448269E-3,2.268164873E-2
3.603987650E-1,-9.151517414E-3,1.880317926E-2,-5.696313921E-3,2.167389706E-2
3.628437650E-1,-4.264599644E-3,1.941404492E-2,-6.307177711E-3,2.085359539E-2
3.652895990E-1,-6.708058529E-3,1.574885845E-2,-6.918043364E-3,1.846304189E-2
3.677345990E-1,-3.042869968E-3,1.513799187E-2,-6.307177711E-3,1.667927894E-2
3.701788700E-1,-6.097193807E-3,9.640208445E-3,-6.918043364E-3,1.334049156E-2
3.726238700E-1,-4.875464365E-3,9.640208445E-3,-6.307177711E-3,1.250936698E-2
3.750697030E-1,-4.264599644E-3,6.585883908E-3,-6.918043364E-3,1.046040157E-2
3.775147550E-1,-5.486329086E-3,3.531559603E-3,-7.528907154E-3,9.962738730E-3
3.799589740E-1,-2.432005247E-3,2.920697676E-3,-6.918043364E-3,7.893316693E-3
3.824040260E-1,-6.708058529E-3,-1.336268615E-4,-6.918043364E-3,9.637179533E-3
3.848498070E-1,-2.432005247E-3,-1.355358167E-3,-6.307177711E-3,6.894355370E-3
3.872948590E-1,-6.097193807E-3,-3.187951399E-3,-5.696313921E-3,8.932345646E-3
3.897390780E-1,-1.821140526E-3,-2.577085746E-3,-5.085448269E-3,5.984956796E-3
3.921841300E-1,-4.875464365E-3,-3.187951399E-3,-4.474584479E-3,7.345413069E-3
3.946299110E-1,-3.653734690E-3,-1.355358167E-3,-4.474584479E-3,5.933690184E-3
3.970749630E-1,-4.264599644E-3,-1.336268615E-4,-2.641989384E-3,5.018443400E-3
3.995191820E-1,-4.875464365E-3,1.698966371E-3,-3.252855036E-3,6.102270511E-3
4.019642340E-1,-3.042869968E-3,2.309832023E-3,-1.420259941E-3,4.075723239E-3
4.044100670E-1,-7.318923250E-3,4.142425023E-3,-1.985309646E-4,8.412237345E-3
4.068550670E-1,-3.042869968E-3,9.640208445E-3,2.244927920E-3,1.035530675E-2
4.092992860E-1,-9.762382135E-3,9.640208445E-3,1.634063199E-3,1.381694200E-2
4.117443380E-1,-5.486329086E-3,1.574885845E-2,4.077522084E-3,1.716835856E-2
4.141901720E-1,-7.929787971E-3,1.635972038E-2,3.466657363E-3,1.850782811E-2
4.166351720E-1,-6.708058529E-3,2.307923138E-2,4.688386805E-3,2.448734247E-2
4.190794420E-1,-6.708058529E-3,2.369009703E-2,5.299251527E-3,2.518532933E-2
4.215244420E-1,-8.540652692E-3,2.552269399E-2,6.520980969E-3,2.769248724E-2
4.239702760E-1,-6.708058529E-3,2.674442157E-2,6.520980969E-3,2.833346656E-2
4.264153280E-1,-9.762382135E-3,2.735528722E-2,7.131845690E-3,2.990784290E-2
4.288595470E-1,-6.708058529E-3,3.102047741E-2,7.131845690E-3,3.252893007E-2
4.313045470E-1,-9.762382135E-3,2.918788046E-2,8.353575133E-3,3.189073044E-2
4.337503800E-1,-4.875464365E-3,2.979874611E-2,1.018616930E-2,3.186680824E-2
4.361954320E-1,-7.929787971E-3,2.552269399E-2,1.140789874E-2,2.905907086E-2
4.386396510E-1,-6.097193807E-3,2.979874611E-2,1.262962818E-2,3.293400295E-2
4.410847030E-1,-6.708058529E-3,3.285306692E-2,1.324049290E-2,3.605041897E-2
4.435304840E-1,-5.486329086E-3,3.346393257E-2,1.507308707E-2,3.710973651E-2
4.459755360E-1,-3.042869968E-3,3.712911904E-2,1.690568030E-2,4.091005457E-2
4.484197550E-1,-6.708058529E-3,4.018344730E-2,1.751654595E-2,4.434565219E-2
4.508648070E-1,-1.821140526E-3,4.323776811E-2,1.873827539E-2,4.715871191E-2
4.533106400E-1,-4.875464365E-3,4.384863377E-2,1.873827539E-2,4.793324317E-2
4.557556400E-1,-1.210275805E-3,4.629209638E-2,1.873827539E-2,4.995543934E-2
4.581998590E-1,-2.432005247E-3,4.445949942E-2,1.873827539E-2,4.830822604E-2
4.606449110E-1,1.145363785E-5,4.690295458E-2,1.873827539E-2,5.050752661E-2
4.630907450E-1,1.145363785E-5,4.445949942E-2,2.057087049E-2,4.898783453E-2
4.655357450E-1,-5.994110834E-4,4.262690246E-2,2.057087049E-2,4.733468939E-2
4.679800150E-1,3.065777244E-3,4.079431295E-2,1.996000484E-2,4.551897135E-2
4.704250150E-1,1.233183080E-3,3.835085034E-2,1.873827539E-2,4.270165603E-2
4.728708490E-1,6.120100617E-3,3.590739518E-2,1.934913918E-2,4.124543426E-2
4.753158490E-1,2.454912523E-3,3.040961176E-2,1.873827539E-2,3.580354798E-2
4.777601200E-1,7.341830060E-3,2.979874611E-2,1.934913918E-2,3.628025531E-2
4.802051200E-1,6.120100617E-3,2.491182834E-2,1.751654595E-2,3.106258529E-2
4.826509530E-1,8.563559502E-3,2.246836945E-2,1.690568030E-2,2.939326800E-2
4.850960050E-1,9.785288945E-3,1.880317926E-2,1.751654595E-2,2.749801470E-2
4.875402240E-1,1.039615367E-2,1.697058603E-2,1.812741160E-2,2.691995269E-2
4.899852240E-1,1.283961255E-2,1.269453298E-2,1.751654595E-2,2.515623581E-2
4.924310570E-1,9.785288945E-3,1.147280168E-2,1.629481651E-2,2.220130859E-2
4.948761090E-1,1.589393616E-2,9.029342793E-3,1.751654595E-2,2.531749632E-2
4.973203280E-1,1.283961255E-2,5.975021981E-3,1.629481651E-2,2.158883006E-2
4.997653800E-1,1.772653125E-2,5.975021981E-3,1.751654595E-2,2.562733267E-2
5.022111610E-1,1.650479995E-2,2.309832023E-3,1.629481651E-2,2.330804132E-2
5.046562130E-1,2.016999014E-2,4.772387911E-4,1.812741160E-2,2.712304021E-2
5.071004320E-1,1.894825883E-2,-2.577085746E-3,1.690568030E-2,2.552410449E-2
5.095454840E-1,1.894825883E-2,-4.409679212E-3,1.629481651E-2,2.537721081E-2
5.119913170E-1,2.322431467E-2,-6.242274307E-3,1.873827539E-2,3.048700945E-2
5.144363170E-1,2.078085579E-2,-9.296596982E-3,1.751654595E-2,2.872455509E-2
5.168805880E-1,2.566777356E-2,-8.074869402E-3,1.934913918E-2,3.314253012E-2
5.193255880E-1,2.261344902E-2,-1.174005587E-2,1.751654595E-2,3.091967611E-2
5.217714220E-1,2.750036679E-2,-1.051832829E-2,1.873827539E-2,3.490026316E-2
5.242164740E-1,2.383517660E-2,-1.418351475E-2,1.934913918E-2,3.381829271E-2
5.266606920E-1,2.627863549E-2,-1.662697271E-2,2.057087049E-2,3.728516618E-2
5.291056920E-1,2.505690791E-2,-2.029216290E-2,2.057087049E-2,3.824632298E-2
5.315515260E-1,2.688950114E-2,-2.456821501E-2,1.996000484E-2,4.153365206E-2
5.339965780E-1,2.872209437E-2,-2.640080824E-2,2.179259807E-2,4.468644886E-2
5.364407970E-1,2.627863549E-2,-3.128772601E-2,2.179259807E-2,4.630772951E-2
5.388857970E-1,2.933296002E-2,-3.189859167E-2,2.179259807E-2,4.850628851E-2
5.413316300E-1,2.444604225E-2,-3.678550944E-2,2.240346372E-2,4.952471982E-2
5.437766820E-1,2.933296002E-2,-3.678550944E-2,2.362519316E-2,5.264737411E-2
5.462209010E-1,2.383517660E-2,-3.922896832E-2,2.301432937E-2,5.134868018E-2
5.486659530E-1,2.505690791E-2,-3.617464378E-2,2.484692261E-2,5.053536435E-2
5.511117860E-1,2.383517660E-2,-3.739637509E-2,2.484692261E-2,5.083280512E-2
5.535567860E-1,2.261344902E-2,-3.678550944E-2,2.423605695E-2,4.951694900E-2
5.560010050E-1,2.505690791E-2,-3.617464378E-2,2.484692261E-2,5.053536435E-2
5.584460570E-1,2.078085579E-2,-3.495291620E-2,2.423605695E-2,4.733853373E-2
5.608918900E-1,2.505690791E-2,-3.434205055E-2,2.362519316E-2,4.863511923E-2
5.633368900E-1,1.955912448E-2,-3.189859167E-2,2.240346372E-2,4.361186407E-2
5.657811610E-1,2.383517660E-2,-2.762253955E-2,2.240346372E-2,4.281396410E-2
5.682261610E-1,1.833739504E-2,-2.762253955E-2,1.996000484E-2,3.869969691E-2
5.706719950E-1,2.078085579E-2,-2.578994446E-2,1.934913918E-2,3.835823757E-2
5.731170470E-1,1.955912448E-2,-2.517908067E-2,1.934913918E-2,3.729523617E-2
5.755612650E-1,1.772653125E-2,-2.212475613E-2,1.751654595E-2,3.332512755E-2
5.780062650E-1,1.833739504E-2,-1.845956780E-2,1.812741160E-2,3.171149242E-2
5.804520990E-1,1.345047727E-2,-1.418351475E-2,1.568395272E-2,2.506140065E-2
5.828971510E-1,1.589393616E-2,-8.074869402E-3,1.568395272E-2,2.374462245E-2
5.853413700E-1,1.039615367E-2,-6.242274307E-3,1.446222235E-2,1.887331118E-2
5.877863700E-1,1.467220671E-2,1.698966371E-3,1.385135762E-2,2.024895663E-2
5.902322030E-1,8.563559502E-3,5.364156328E-3,1.262962818E-2,1.617455509E-2
5.926772550E-1,8.563559502E-3,1.147280168E-2,1.140789874E-2,1.830573362E-2
5.951214740E-1,6.730965339E-3,1.452712622E-2,1.079703402E-2,1.931111685E-2
5.975665260E-1,5.509235896E-3,1.697058603E-2,9.575304575E-3,2.024941797E-2
6.000123070E-1,4.287506454E-3,1.941404492E-2,1.079703402E-2,2.262440707E-2
6.024573590E-1,1.145363785E-5,2.246836945E-2,9.575304575E-3,2.442364049E-2
6.049015780E-1,1.844047802E-3,2.613355592E-2,9.575304575E-3,2.789354253E-2
6.073466300E-1,-4.875464365E-3,2.674442157E-2,8.964439854E-3,2.862508375E-2
6.097924630E-1,1.145363785E-5,3.102047741E-2,1.079703402E-2,3.284579263E-2
6.122374630E-1,-4.264599644E-3,2.979874611E-2,1.079703402E-2,3.198011919E-2
6.146817340E-1,-4.264599644E-3,3.346393257E-2,1.262962818E-2,3.602123126E-2
6.171267340E-1,-6.097193807E-3,3.285306692E-2,1.324049290E-2,3.594176444E-2
6.195725670E-1,-9.151517414E-3,3.651826084E-2,1.507308707E-2,4.055282480E-2
6.220175670E-1,-8.540652692E-3,3.712911904E-2,1.446222235E-2,4.075132027E-2
6.244618380E-1,-1.159497630E-2,3.957258165E-2,1.446222235E-2,4.369883945E-2
6.269068380E-1,-7.929787971E-3,4.140517116E-2,1.751654595E-2,4.565193444E-2
6.293526720E-1,-1.403843518E-2,4.079431295E-2,1.751654595E-2,4.656267834E-2
6.317977240E-1,-1.098411158E-2,4.323776811E-2,1.934913918E-2,4.862658209E-2
6.342419420E-1,-1.403843518E-2,4.201603681E-2,1.934913918E-2,4.834060611E-2
6.366869420E-1,-1.159497630E-2,4.629209638E-2,2.057087049E-2,5.196693540E-2
6.391327760E-1,-1.342756953E-2,4.507036507E-2,2.179259807E-2,5.183198589E-2
6.415778280E-1,-1.403843518E-2,4.812468588E-2,2.240346372E-2,5.490881751E-2
6.440220470E-1,-1.037324686E-2,4.568123072E-2,2.179259807E-2,5.166523417E-2
6.464670990E-1,-1.342756953E-2,4.629209638E-2,2.240346372E-2,5.315235646E-2
6.489128800E-1,-9.151517414E-3,4.568123072E-2,2.301432937E-2,5.196329924E-2
6.513579320E-1,-1.281670574E-2,4.201603681E-2,2.423605695E-2,5.016972944E-2
6.538021510E-1,-7.929787971E-3,4.079431295E-2,2.606865205E-2,4.905743701E-2
6.562472030E-1,-1.159497630E-2,3.590739518E-2,2.545778826E-2,4.551794687E-2
6.586930360E-1,-5.486329086E-3,3.468566388E-2,2.667951584E-2,4.410205949E-2
6.611380360E-1,-7.929787971E-3,2.857701480E-2,2.606865205E-2,3.948546482E-2
6.635822550E-1,-7.318923250E-3,2.552269399E-2,2.729038149E-2,3.807544442E-2
6.660273070E-1,-4.875464365E-3,2.246836945E-2,2.667951584E-2,3.521923259E-2
6.684731400E-1,-6.097193807E-3,1.697058603E-2,2.545778826E-2,3.119736440E-2
6.709181400E-1,-1.821140526E-3,1.330539491E-2,2.729038149E-2,3.041570332E-2
6.733624110E-1,-5.486329086E-3,5.975021981E-3,2.790124714E-2,2.905650163E-2
6.758074110E-1,-1.210275805E-3,2.920697676E-3,2.667951584E-2,2.686618335E-2
6.782532450E-1,-3.042869968E-3,-3.187951399E-3,2.667951584E-2,2.704105503E-2
6.806982970E-1,1.844047802E-3,-5.020544864E-3,2.545778826E-2,2.601356120E-2
6.831425150E-1,6.223183591E-4,-1.051832829E-2,2.545778826E-2,2.755215950E-2
6.855875150E-1,1.233183080E-3,-1.296178717E-2,2.423605695E-2,2.751209050E-2
6.880333490E-1,1.233183080E-3,-1.723783836E-2,2.362519316E-2,2.927137789E-2
6.904784010E-1,-5.994110834E-4,-2.029216290E-2,2.240346372E-2,3.023319955E-2
6.929226200E-1,4.287506454E-3,-2.151389048E-2,2.057087049E-2,3.007309275E-2
6.953676720E-1,1.145363785E-5,-2.578994446E-2,2.118173428E-2,3.337345102E-2
6.978134530E-1,3.676641965E-3,-2.334648557E-2,1.873827539E-2,3.016121764E-2
7.002585050E-1,-5.994110834E-4,-2.517908067E-2,1.690568030E-2,3.033393188E-2
7.027027240E-1,3.676641965E-3,-2.395734936E-2,1.568395272E-2,2.886968405E-2
7.051477760E-1,6.223183591E-4,-2.456821501E-2,1.324049290E-2,2.791585788E-2
7.075936090E-1,1.844047802E-3,-2.517908067E-2,1.079703402E-2,2.745837867E-2
7.100386090E-1,1.233183080E-3,-2.334648557E-2,1.018616930E-2,2.550170924E-2
7.124828280E-1,1.145363785E-5,-2.273562178E-2,8.964439854E-3,2.443910413E-2
7.149278800E-1,1.145363785E-5,-1.845956780E-2,6.520980969E-3,1.957751178E-2
7.173737130E-1,-5.994110834E-4,-1.601610892E-2,5.910116248E-3,1.708228651E-2
7.198187130E-1,1.145363785E-5,-1.479438040E-2,5.299251527E-3,1.571483024E-2
7.222629840E-1,1.145363785E-5,-1.296178717E-2,4.688386805E-3,1.378365078E-2
7.247079840E-1,1.145363785E-5,-1.051832829E-2,4.688386805E-3,1.151591646E-2
7.271538170E-1,6.223183591E-4,-8.685733192E-3,4.077522084E-3,9.615374541E-3
7.295988170E-1,1.233183080E-3,-6.853138097E-3,5.299251527E-3,8.750331938E-3
7.320430880E-1,6.223183591E-4,-5.631410517E-3,4.077522084E-3,6.980419106E-3
7.344880880E-1,1.233183080E-3,-3.798815189E-3,4.077522084E-3,5.707707394E-3
7.369339220E-1,1.233183080E-3,-1.966220094E-3,4.077522084E-3,4.691795852E-3
7.393789740E-1,1.145363785E-5,-1.966220094E-3,4.688386805E-3,5.084006637E-3
7.418231920E-1,6.223183591E-4,-7.444925141E-4,5.299251527E-3,5.387357050E-3
7.442682450E-1,6.223183591E-4,1.698966371E-3,4.688386805E-3,5.025409208E-3
7.467140260E-1,6.223183591E-4,2.309832023E-3,5.910116248E-3,6.375898225E-3
7.491590780E-1,1.233183080E-3,2.309832023E-3,5.299251527E-3,5.910848605E-3
7.516032970E-1,1.233183080E-3,4.753290676E-3,5.299251527E-3,7.224720029E-3
7.540483490E-1,2.454912523E-3,4.142425023E-3,4.688386805E-3,6.720658554E-3
7.564941300E-1,2.454912523E-3,5.364156328E-3,4.077522084E-3,7.171258952E-3
7.589391820E-1,1.844047802E-3,7.196749561E-3,4.688386805E-3,8.784912485E-3
7.613834010E-1,2.454912523E-3,5.364156328E-3,4.688386805E-3,7.535365913E-3
7.638284530E-1,3.065777244E-3,5.975021981E-3,3.466657363E-3,7.557618081E-3
7.662742860E-1,3.676641965E-3,4.142425023E-3,2.855792642E-3,6.231607563E-3
7.687192860E-1,4.287506454E-3,4.753290676E-3,2.855792642E-3,7.009424759E-3
7.711635570E-1,3.065777244E-3,4.142425023E-3,2.244927920E-3,5.621243328E-3
7.736085570E-1,1.233183080E-3,5.364156328E-3,4.123337567E-4,5.519504756E-3
7.760543900E-1,1.145363785E-5,9.640208445E-3,1.634063199E-3,9.777725328E-3
7.784993900E-1,1.233183080E-3,1.208366733E-2,1.023198478E-3,1.218945002E-2
7.809436610E-1,1.233183080E-3,1.391626056E-2,-8.093961515E-4,1.399421919E-2
7.833886610E-1,1.145363785E-5,1.697058603E-2,-2.031125594E-3,1.709170537E-2
7.858344950E-1,-5.994110834E-4,2.002491057E-2,-2.641989384E-3,2.020733641E-2
7.882795470E-1,-1.210275805E-3,2.307923138E-2,-2.641989384E-3,2.326146592E-2
7.907237650E-1,1.145363785E-5,2.552269399E-2,-3.252855036E-3,2.572914895E-2
7.931687650E-1,-5.994110834E-4,2.735528722E-2,-2.641989384E-3,2.748910949E-2
7.956145990E-1,1.145363785E-5,2.796614915E-2,-2.031125594E-3,2.803981278E-2
7.980596510E-1,-1.210275805E-3,3.040961176E-2,-8.093961515E-4,3.044444739E-2
8.005038700E-1,-1.210275805E-3,3.163133562E-2,-1.420259941E-3,3.168632668E-2
8.029489220E-1,-1.821140526E-3,3.529652953E-2,-1.985309646E-4,3.534403718E-2
8.053947030E-1,-3.042869968E-3,3.468566388E-2,2.244927920E-3,3.489117421E-2
8.078397550E-1,-1.821140526E-3,3.651826084E-2,2.855792642E-3,3.667499801E-2
8.102839740E-1,-3.042869968E-3,3.835085034E-2,2.244927920E-3,3.853681981E-2
8.127290260E-1,-3.042869968E-3,4.079431295E-2,2.855792642E-3,4.100720155E-2
8.151748590E-1,-6.097193807E-3,4.079431295E-2,4.688386805E-3,4.151304268E-2
8.176198590E-1,-4.875464365E-3,4.079431295E-2,5.910116248E-3,4.150753662E-2
8.200640780E-1,-3.653734690E-3,4.140517116E-2,5.910116248E-3,4.198413331E-2
8.225091300E-1,-6.097193807E-3,4.445949942E-2,6.520980969E-3,4.534695198E-2
8.249549630E-1,-6.708058529E-3,4.629209638E-2,7.131845690E-3,4.731616488E-2
8.273999630E-1,-5.486329086E-3,4.629209638E-2,7.742710412E-3,4.725470938E-2
8.298442340E-1,-6.097193807E-3,4.629209638E-2,7.131845690E-3,4.723343289E-2
8.322892340E-1,-5.486329086E-3,4.568123072E-2,7.742710412E-3,4.665644877E-2
8.347350670E-1,-6.097193807E-3,4.507036507E-2,7.742710412E-3,4.613527007E-2
8.371801200E-1,-6.097193807E-3,4.690295458E-2,8.964439854E-3,4.813963131E-2
8.396243380E-1,-5.486329086E-3,4.568123072E-2,8.353575133E-3,4.676170297E-2
8.420693380E-1,-7.318923250E-3,4.445949942E-2,9.575304575E-3,4.606408779E-2
8.445151720E-1,-6.097193807E-3,4.323776811E-2,9.575304575E-3,4.470309633E-2
8.469602240E-1,-5.486329086E-3,4.201603681E-2,9.575304575E-3,4.344115115E-2
8.494044420E-1,-7.318923250E-3,4.079431295E-2,8.964439854E-3,4.240405392E-2
8.518494950E-1,-4.875464365E-3,3.835085034E-2,8.964439854E-3,3.968524986E-2
8.542952760E-1,-5.486329086E-3,3.712911904E-2,9.575304575E-3,3.873445166E-2
8.567403280E-1,-4.875464365E-3,3.224220127E-2,8.964439854E-3,3.381849904E-2
8.591845470E-1,-2.432005247E-3,2.979874611E-2,1.018616930E-2,3.158540746E-2
8.616295990E-1,-3.042869968E-3,2.796614915E-2,1.140789874E-2,3.035629605E-2
8.640754320E-1,-2.432005247E-3,2.491182834E-2,1.140789874E-2,2.750734437E-2
8.665204320E-1,-5.994110834E-4,2.124663815E-2,1.201876346E-2,2.441781320E-2
8.689646510E-1,-1.210275805E-3,1.758145168E-2,1.385135762E-2,2.241500209E-2
8.714097030E-1,-5.994110834E-4,1.391626056E-2,1.507308707E-2,2.052363407E-2
8.738555360E-1,6.223183591E-4,1.025107410E-2,1.568395272E-2,1.874721775E-2
8.763005360E-1,4.287506454E-3,7.196749561E-3,1.629481651E-2,1.832203485E-2
8.787448070E-1,4.287506454E-3,2.920697676E-3,1.690568030E-2,1.768375562E-2
8.811898070E-1,4.898371175E-3,-1.336268615E-4,1.690568030E-2,1.760153183E-2
8.836356400E-1,6.120100617E-3,-3.798815189E-3,1.751654595E-2,1.893979964E-2
8.860806920E-1,7.952694781E-3,-6.242274307E-3,1.629481651E-2,1.917634970E-2
8.885249110E-1,9.174424224E-3,-8.685733192E-3,1.568395272E-2,2.013947352E-2
8.909699110E-1,1.100701839E-2,-1.051832829E-2,1.446222235E-2,2.099870374E-2
8.934157450E-1,1.283961255E-2,-1.174005587E-2,1.446222235E-2,2.262389085E-2
8.958607970E-1,1.161788311E-2,-1.418351475E-2,1.446222235E-2,2.335172743E-2
8.983050150E-1,1.406134106E-2,-1.540524606E-2,1.201876346E-2,2.407267317E-2
9.007500670E-1,1.528307237E-2,-1.540524606E-2,1.201876346E-2,2.480614001E-2
9.031958490E-1,1.772653125E-2,-1.540524606E-2,9.575304575E-3,2.536213662E-2
9.056409010E-1,1.955912448E-2,-1.723783836E-2,8.353575133E-3,2.737671710E-2
9.080851200E-1,1.894825883E-2,-1.723783836E-2,7.131845690E-3,2.659027655E-2
9.105301720E-1,1.833739504E-2,-1.662697271E-2,5.910116248E-3,2.544888509E-2
9.129760050E-1,2.016999014E-2,-1.601610892E-2,4.077522084E-3,2.607624270E-2
9.154210050E-1,2.078085579E-2,-1.601610892E-2,2.244927920E-3,2.633247830E-2
9.178652240E-1,2.139171772E-2,-1.662697271E-2,-1.985309646E-4,2.709430240E-2
9.203102760E-1,2.322431467E-2,-1.357265096E-2,-8.093961515E-4,2.691172177E-2
9.227561090E-1,2.444604225E-2,-1.418351475E-2,-2.641989384E-3,2.838593279E-2
9.252011090E-1,2.322431467E-2,-1.418351475E-2,-2.031125594E-3,2.728857552E-2
9.276453800E-1,2.444604225E-2,-1.662697271E-2,-2.031125594E-3,2.963428208E-2
9.300903800E-1,2.566777356E-2,-1.784870401E-2,-2.641989384E-3,3.137500506E-2
9.325362130E-1,2.505690791E-2,-1.907043159E-2,-4.474584479E-3,3.180490373E-2
9.349812130E-1,2.566777356E-2,-2.090302669E-2,-3.252855036E-3,3.326187292E-2
9.374254840E-1,2.444604225E-2,-2.212475613E-2,-4.474584479E-3,3.327364906E-2
9.398704840E-1,2.566777356E-2,-2.334648557E-2,-5.085448269E-3,3.506785953E-2
9.423163170E-1,2.627863549E-2,-2.395734936E-2,-3.863718826E-3,3.576939466E-2
9.447613700E-1,2.627863549E-2,-2.456821501E-2,-3.863718826E-3,3.618137912E-2
9.472055880E-1,2.566777356E-2,-2.578994446E-2,-2.641989384E-3,3.648199477E-2
9.496505880E-1,2.627863549E-2,-2.884426713E-2,-3.252855036E-3,3.915532525E-2
9.520964220E-1,2.505690791E-2,-2.823340334E-2,-3.863718826E-3,3.794604092E-2
9.545414740E-1,2.444604225E-2,-2.823340334E-2,-2.031125594E-3,3.740133042E-2
9.569856920E-1,2.383517660E-2,-2.640080824E-2,-2.641989384E-3,3.566648886E-2
9.594307450E-1,2.322431467E-2,-2.578994446E-2,-2.031125594E-3,3.476514775E-2
9.618765260E-1,2.322431467E-2,-2.456821501E-2,-1.420259941E-3,3.383759920E-2
9.643215780E-1,2.261344902E-2,-2.456821501E-2,-3.252855036E-3,3.354916290E-2
9.667657970E-1,2.261344902E-2,-2.517908067E-2,-3.252855036E-3,3.399904772E-2
9.692108490E-1,2.261344902E-2,-2.395734936E-2,-3.252855036E-3,3.310443673E-2
9.716566820E-1,2.200258337E-2,-2.273562178E-2,-3.252855036E-3,3.180571079E-2
9.741016820E-1,2.200258337E-2,-2.212475613E-2,-2.031125594E-3,3.126889796E-2
9.765459010E-1,2.322431467E-2,-1.968129724E-2,-1.420259941E-3,3.047522587E-2
9.789909530E-1,2.139171772E-2,-1.907043159E-2,-1.985309646E-4,2.865879206E-2
9.814367860E-1,2.016999014E-2,-1.601610892E-2,4.123337567E-4,2.575877066E-2
9.838817860E-1,1.955912448E-2,-1.418351475E-2,4.123337567E-4,2.416405306E-2
9.863260570E-1,1.955912448E-2,-1.235092152E-2,2.855792642E-3,2.330794209E-2
9.887710570E-1,2.016999014E-2,-1.051832829E-2,1.634063199E-3,2.280644415E-2
9.912168900E-1,1.833739504E-2,-9.296596982E-3,4.688386805E-3,2.108714640E-2
9.936619420E-1,1.711566560E-2,-6.242274307E-3,3.466657363E-3,1.854534202E-2
9.961061610E-1,1.650479995E-2,-6.242274307E-3,3.466657363E-3,1.798310660E-2
9.985511610E-1,1.589393616E-2,-3.798815189E-3,3.466657363E-3,1.670526614E-2
1.000996995E0,1.589393616E-2,-1.966220094E-3,3.466657363E-3,1.638599833E-2
1.003442047E0,1.528307237E-2,-1.355358167E-3,2.855792642E-3,1.560656427E-2
1.005886265E0,1.467220671E-2,2.920697676E-3,2.244927920E-3,1.512758494E-2
1.008331317E0,1.345047727E-2,5.364156328E-3,2.244927920E-3,1.465364164E-2
1.010777099E0,1.222874783E-2,9.029342793E-3,2.855792642E-3,1.546696015E-2
1.013222151E0,1.283961255E-2,1.086193975E-2,1.634063199E-3,1.689696861E-2
1.015666370E0,1.283961255E-2,1.513799187E-2,1.634063199E-3,1.991694281E-2
1.018111422E0,1.161788311E-2,1.697058603E-2,-1.985309646E-4,2.056733849E-2
1.020557255E0,1.100701839E-2,2.002491057E-2,-2.031125594E-3,2.294072728E-2
1.023002255E0,9.174424224E-3,2.063577622E-2,-2.031125594E-3,2.267445239E-2
1.025446474E0,8.563559502E-3,2.124663815E-2,-2.031125594E-3,2.299738366E-2
1.027891526E0,7.341830060E-3,2.063577622E-2,-3.863718826E-3,2.224108927E-2
1.030337359E0,7.341830060E-3,2.185750380E-2,-4.474584479E-3,2.348775952E-2
1.032782359E0,6.730965339E-3,2.063577622E-2,-6.307177711E-3,2.260357594E-2
1.035226630E0,6.730965339E-3,2.063577622E-2,-6.307177711E-3,2.260357594E-2
1.037671630E0,5.509235896E-3,2.124663815E-2,-7.528907154E-3,2.320464944E-2
1.040117463E0,3.676641965E-3,1.758145168E-2,-6.918043364E-3,1.924797297E-2
1.042562515E0,3.676641965E-3,1.880317926E-2,-5.696313921E-3,1.998812745E-2
1.045006734E0,1.233183080E-3,1.635972038E-2,-6.918043364E-3,1.780506993E-2
1.047451734E0,1.233183080E-3,1.452712622E-2,-6.918043364E-3,1.613745521E-2
1.049897567E0,1.145363785E-5,1.147280168E-2,-6.307177711E-3,1.309220379E-2
1.052342620E0,-5.994110834E-4,7.807615213E-3,-5.696313921E-3,9.683291860E-3
1.054786838E0,-1.210275805E-3,4.142425023E-3,-6.307177711E-3,7.642312692E-3
1.057231890E0,-1.210275805E-3,2.920697676E-3,-4.474584479E-3,5.478790806E-3
1.059677672E0,-2.432005247E-3,-1.355358167E-3,-3.863718826E-3,4.762349048E-3
1.062122724E0,-3.042869968E-3,-1.966220094E-3,-5.085448269E-3,6.243946124E-3
1.064566942E0,-1.821140526E-3,-3.798815189E-3,-3.252855036E-3,5.322463296E-3
1.067011995E0,-1.821140526E-3,-3.798815189E-3,-2.641989384E-3,4.972691179E-3
1.069457828E0,-3.042869968E-3,-4.409679212E-3,-2.641989384E-3,5.973645143E-3
1.071902828E0,-3.653734690E-3,-7.444925141E-4,-3.252855036E-3,4.948243342E-3
1.074347099E0,-5.486329086E-3,-1.336268615E-4,-3.252855036E-3,6.379555538E-3
1.076792099E0,-6.708058529E-3,2.309832023E-3,-1.420259941E-3,7.235365333E-3
1.079237932E0,-5.486329086E-3,4.142425023E-3,-2.031125594E-3,7.168330565E-3
1.081682932E0,-6.097193807E-3,5.975021981E-3,-8.093961515E-4,8.575067471E-3
1.084127203E0,-5.486329086E-3,7.196749561E-3,-8.093961515E-4,9.085600322E-3
1.086572203E0,-8.540652692E-3,6.585883908E-3,-8.093961515E-4,1.081534731E-2
1.089018036E0,-1.037324686E-2,5.975021981E-3,-1.985309646E-4,1.197265854E-2
1.091463088E0,-9.151517414E-3,4.753290676E-3,-1.985309646E-4,1.031423568E-2
1.093907307E0,-9.151517414E-3,2.309832023E-3,-8.093961515E-4,9.473157714E-3
1.096352307E0,-9.762382135E-3,2.309832023E-3,-1.985309646E-4,1.003388476E-2
1.098798140E0,-9.762382135E-3,1.698966371E-3,4.123337567E-4,9.917691808E-3
1.101243192E0,-9.151517414E-3,1.088104444E-3,1.023198478E-3,9.272603592E-3
1.103687411E0,-1.037324686E-2,-1.355358167E-3,2.855792642E-3,1.084420572E-2
1.106132463E0,-1.098411158E-2,-3.187951399E-3,2.855792642E-3,1.178852378E-2
1.108578245E0,-9.151517414E-3,-3.798815189E-3,4.688386805E-3,1.096185380E-2
1.111023297E0,-1.037324686E-2,-5.631410517E-3,5.910116248E-3,1.320024654E-2
1.113467515E0,-1.098411158E-2,-7.464003749E-3,6.520980969E-3,1.479477110E-2
1.115912567E0,-1.159497630E-2,-8.074869402E-3,7.742710412E-3,1.611200036E-2
1.118358401E0,-1.037324686E-2,-1.051832829E-2,8.964439854E-3,1.728006546E-2
1.120803401E0,-1.037324686E-2,-1.235092152E-2,1.079703402E-2,1.940941669E-2
1.123247620E0,-1.098411158E-2,-1.479438040E-2,1.262962818E-2,2.233902206E-2
1.125692672E0,-9.762382135E-3,-1.662697271E-2,1.262962818E-2,2.304924802E-2
1.128138505E0,-9.151517414E-3,-1.540524606E-2,1.324049290E-2,2.227964383E-2
1.130583505E0,-8.540652692E-3,-1.784870401E-2,1.385135762E-2,2.415324184E-2
1.133027776E0,-8.540652692E-3,-2.090302669E-2,1.629481651E-2,2.784601081E-2
1.135472776E0,-7.929787971E-3,-2.090302669E-2,1.690568030E-2,2.802891522E-2
1.137918609E0,-7.318923250E-3,-2.212475613E-2,1.751654595E-2,2.915305907E-2
1.140363609E0,-6.708058529E-3,-2.517908067E-2,1.690568030E-2,3.106100737E-2
1.142807880E0,-5.486329086E-3,-2.701167390E-2,1.812741160E-2,3.298989823E-2
1.145252880E0,-4.875464365E-3,-2.945513278E-2,1.568395272E-2,3.372478870E-2
1.147698713E0,-6.097193807E-3,-3.189859167E-2,1.629481651E-2,3.633479005E-2
1.150143765E0,-4.264599644E-3,-3.495291620E-2,1.812741160E-2,3.960424488E-2
1.152587984E0,-2.432005247E-3,-3.678550944E-2,1.690568030E-2,4.055724819E-2
1.155033036E0,-1.821140526E-3,-3.861810267E-2,1.629481651E-2,4.195468331E-2
1.157478817E0,-5.994110834E-4,-3.922896832E-2,1.690568030E-2,4.272087634E-2
1.159923870E0,1.145363785E-5,-3.861810267E-2,1.568395272E-2,4.168146300E-2
1.162368088E0,1.233183080E-3,-3.861810267E-2,1.568395272E-2,4.169969985E-2
1.164813140E0,1.844047802E-3,-3.739637509E-2,1.568395272E-2,4.059403595E-2
1.167258922E0,3.065777244E-3,-3.434205055E-2,1.446222235E-2,3.738891950E-2
1.169703974E0,4.287506454E-3,-3.434205055E-2,1.507308707E-2,3.774860397E-2
1.172148192E0,4.287506454E-3,-3.373118490E-2,1.385135762E-2,3.671560505E-2
1.174593245E0,4.898371175E-3,-3.617464378E-2,1.385135762E-2,3.904432098E-2
1.177039078E0,4.287506454E-3,-3.800724074E-2,1.262962818E-2,4.027953039E-2
1.179484078E0,9.174424224E-3,-3.495291620E-2,1.262962818E-2,3.828033332E-2
1.181928297E0,4.898371175E-3,-3.922896832E-2,1.201876346E-2,4.132017269E-2
1.184373349E0,8.563559502E-3,-3.739637509E-2,1.201876346E-2,4.020291154E-2
1.186819182E0,9.174424224E-3,-3.922896832E-2,1.262962818E-2,4.222072386E-2
1.189264182E0,8.563559502E-3,-3.800724074E-2,1.324049290E-2,4.114845747E-2
1.191708453E0,8.563559502E-3,-3.800724074E-2,1.324049290E-2,4.114845747E-2
1.194153453E0,7.952694781E-3,-3.434205055E-2,1.262962818E-2,3.744501700E-2
1.196599286E0,1.283961255E-2,-3.556377813E-2,1.324049290E-2,4.006180997E-2
1.199044338E0,7.952694781E-3,-3.434205055E-2,1.385135762E-2,3.787455476E-2
1.201488557E0,1.345047727E-2,-3.250945732E-2,1.324049290E-2,3.759110010E-2
1.203933557E0,9.174424224E-3,-3.250945732E-2,1.324049290E-2,3.628147637E-2
1.206379390E0,1.283961255E-2,-3.067686222E-2,1.446222235E-2,3.626405109E-2
1.208824442E0,1.100701839E-2,-3.128772601E-2,1.507308707E-2,3.643177468E-2
1.211268661E0,1.161788311E-2,-2.762253955E-2,1.507308707E-2,3.354367083E-2
1.213713713E0,1.283961255E-2,-2.456821501E-2,1.690568030E-2,3.246929112E-2
1.216159495E0,1.161788311E-2,-2.151389048E-2,1.690568030E-2,2.972582577E-2
1.218604547E0,1.467220671E-2,-1.540524606E-2,1.751654595E-2,2.755766024E-2
1.221048765E0,1.039615367E-2,-1.418351475E-2,1.812741160E-2,2.525579445E-2
1.223493817E0,1.528307237E-2,-8.685733192E-3,1.812741160E-2,2.525108539E-2
1.225939651E0,1.039615367E-2,-7.464003749E-3,1.629481651E-2,2.071985541E-2
1.228384651E0,1.467220671E-2,-3.798815189E-3,1.629481651E-2,2.225366693E-2
1.230828870E0,1.100701839E-2,-5.020544864E-3,1.751654595E-2,2.128825278E-2
1.233273922E0,1.345047727E-2,-4.409679212E-3,1.568395272E-2,2.112692553E-2
1.235719755E0,1.345047727E-2,-3.187951399E-3,1.507308707E-2,2.045180497E-2
1.238164755E0,1.222874783E-2,-4.409679212E-3,1.568395272E-2,2.037090860E-2
1.240609026E0,1.467220671E-2,-1.966220094E-3,1.568395272E-2,2.156678104E-2
1.243054026E0,1.283961255E-2,-3.798815189E-3,1.690568030E-2,2.156591463E-2
1.245499859E0,1.772653125E-2,-7.444925141E-4,1.568395272E-2,2.368059442E-2
1.247944911E0,1.467220671E-2,-2.577085746E-3,1.324049290E-2,1.993052115E-2
1.250389130E0,1.833739504E-2,-7.444925141E-4,1.385135762E-2,2.299292139E-2
1.252834130E0,1.528307237E-2,-2.577085746E-3,1.324049290E-2,2.038441376E-2
1.255279963E0,1.711566560E-2,-1.355358167E-3,1.446222235E-2,2.244858303E-2
1.257725015E0,1.772653125E-2,-3.187951399E-3,1.507308707E-2,2.348597237E-2
1.260169234E0,1.711566560E-2,-5.631410517E-3,1.446222235E-2,2.310442963E-2
1.262614286E0,2.139171772E-2,-6.242274307E-3,1.385135762E-2,2.623798170E-2
1.265060067E0,1.833739504E-2,-1.112919208E-2,1.385135762E-2,2.553388105E-2
1.267505120E0,2.322431467E-2,-1.296178717E-2,1.324049290E-2,2.971005505E-2
1.269949338E0,2.016999014E-2,-1.418351475E-2,1.385135762E-2,2.828180866E-2
1.272394390E0,2.078085579E-2,-1.723783836E-2,1.385135762E-2,3.034546336E-2
1.274840224E0,2.261344902E-2,-2.090302669E-2,1.324049290E-2,3.352037073E-2
1.277285224E0,2.261344902E-2,-2.273562178E-2,1.446222235E-2,3.517715807E-2
1.279729442E0,2.383517660E-2,-2.456821501E-2,1.446222235E-2,3.716004182E-2
1.282174495E0,2.322431467E-2,-2.701167390E-2,1.324049290E-2,3.800407835E-2
1.284620328E0,2.261344902E-2,-2.762253955E-2,1.385135762E-2,3.829142040E-2
1.287065328E0,2.383517660E-2,-2.701167390E-2,1.324049290E-2,3.838042239E-2
1.289509599E0,2.261344902E-2,-2.884426713E-2,1.446222235E-2,3.940197581E-2
1.291954599E0,2.261344902E-2,-3.128772601E-2,1.385135762E-2,4.101402180E-2
1.294400432E0,2.383517660E-2,-3.189859167E-2,1.262962818E-2,4.177491235E-2
1.296845484E0,2.261344902E-2,-3.312032297E-2,1.262962818E-2,4.204558691E-2
1.299289703E0,2.322431467E-2,-3.250945732E-2,1.324049290E-2,4.208971679E-2
1.301734703E0,2.261344902E-2,-3.189859167E-2,1.324049290E-2,4.128194374E-2
1.304180536E0,2.322431467E-2,-3.128772601E-2,1.262962818E-2,4.096093382E-2
1.306625588E0,2.444604225E-2,-3.067686222E-2,1.324049290E-2,4.140035640E-2
1.309069807E0,2.566777356E-2,-3.006599844E-2,1.385135762E-2,4.188864965E-2
1.311514859E0,2.444604225E-2,-3.067686222E-2,1.446222235E-2,4.180711343E-2
1.313960640E0,2.505690791E-2,-2.884426713E-2,1.507308707E-2,4.107357221E-2
1.316405692E0,2.505690791E-2,-2.884426713E-2,1.385135762E-2,4.064111820E-2
1.318849911E0,2.566777356E-2,-2.884426713E-2,1.507308707E-2,4.144905668E-2
1.321294963E0,2.383517660E-2,-2.762253955E-2,1.446222235E-2,3.924635282E-2
1.323740797E0,2.383517660E-2,-2.701167390E-2,1.385135762E-2,3.859541784E-2
1.326185797E0,2.505690791E-2,-2.640080824E-2,1.262962818E-2,3.852737751E-2
1.328630015E0,2.444604225E-2,-2.395734936E-2,1.446222235E-2,3.715803339E-2
1.331075067E0,2.444604225E-2,-2.212475613E-2,1.385135762E-2,3.576274491E-2
1.333520901E0,2.261344902E-2,-2.395734936E-2,1.324049290E-2,3.550539843E-2
1.335965901E0,2.261344902E-2,-2.456821501E-2,1.262962818E-2,3.569975873E-2
1.338410172E0,2.200258337E-2,-2.517908067E-2,1.324049290E-2,3.596401577E-2
1.340855172E0,2.139171772E-2,-2.640080824E-2,1.324049290E-2,3.646805335E-2
1.343301005E0,2.200258337E-2,-2.762253955E-2,1.262962818E-2,3.750501132E-2
1.345746005E0,2.078085579E-2,-3.006599844E-2,1.262962818E-2,3.866931260E-2
1.348190276E0,1.955912448E-2,-3.067686222E-2,1.079703402E-2,3.795003518E-2
1.350635276E0,2.200258337E-2,-3.434205055E-2,1.079703402E-2,4.219082903E-2
1.353081109E0,2.139171772E-2,-3.739637509E-2,1.018616930E-2,4.427022139E-2
1.355526161E0,2.139171772E-2,-3.983983397E-2,1.018616930E-2,4.635273458E-2
1.357970380E0,1.955912448E-2,-4.045069590E-2,1.018616930E-2,4.607142492E-2
1.360415380E0,1.955912448E-2,-4.167242721E-2,1.018616930E-2,4.714773149E-2
1.362861213E0,1.955912448E-2,-4.289415851E-2,1.018616930E-2,4.823096754E-2
1.365306265E0,1.894825883E-2,-4.350502044E-2,1.018616930E-2,4.853330157E-2
1.367750484E0,1.955912448E-2,-4.411588609E-2,9.575304575E-3,4.919814238E-2
1.370195536E0,1.955912448E-2,-4.350502044E-2,8.353575133E-3,4.842549299E-2
1.372641370E0,1.955912448E-2,-4.533761367E-2,8.353575133E-3,5.007834643E-2
1.375086370E0,1.894825883E-2,-4.350502044E-2,8.964439854E-3,4.829166075E-2
1.377530588E0,1.772653125E-2,-4.228329286E-2,7.131845690E-3,4.640010763E-2
1.379975640E0,1.711566560E-2,-4.106156155E-2,6.520980969E-3,4.496132826E-2
1.382421474E0,1.650479995E-2,-3.983983397E-2,5.299251527E-3,4.344770258E-2
1.384866474E0,1.772653125E-2,-3.800724074E-2,4.077522084E-3,4.213557221E-2
1.387310692E0,1.589393616E-2,-3.556377813E-2,2.244927920E-3,3.901844721E-2
1.389755745E0,1.467220671E-2,-3.617464378E-2,1.634063199E-3,3.907107198E-2
1.392201578E0,1.406134106E-2,-3.495291620E-2,4.123337567E-4,3.767754879E-2
1.394646578E0,1.406134106E-2,-3.312032297E-2,-1.985309646E-4,3.598216948E-2
1.397090849E0,1.406134106E-2,-3.128772601E-2,-1.420259941E-3,3.433162172E-2
1.399535849E0,1.406134106E-2,-2.945513278E-2,-3.863718826E-3,3.286722506E-2
1.401981682E0,1.406134106E-2,-2.640080824E-2,-2.641989384E-3,3.002838817E-2
1.404426734E0,1.222874783E-2,-2.212475613E-2,-2.641989384E-3,2.541706543E-2
1.406870953E0,1.100701839E-2,-1.784870401E-2,-3.863718826E-3,2.132273462E-2
1.409315953E0,1.100701839E-2,-1.357265096E-2,-5.085448269E-3,1.819981022E-2
1.411761786E0,9.785288945E-3,-1.051832829E-2,-6.307177711E-3,1.568972914E-2
1.414206838E0,9.174424224E-3,-7.464003749E-3,-6.307177711E-3,1.340380179E-2
1.416651057E0,7.952694781E-3,-3.798815189E-3,-8.139772341E-3,1.199717654E-2
1.419096109E0,7.341830060E-3,-2.577085746E-3,-8.139772341E-3,1.126053877E-2
1.421541890E0,7.341830060E-3,-7.444925141E-4,-6.918043364E-3,1.011514022E-2
1.423986942E0,5.509235896E-3,-2.577085746E-3,-8.139772341E-3,1.016114880E-2
1.426431161E0,4.898371175E-3,-1.966220094E-3,-8.750636131E-3,1.021928052E-2
1.428876213E0,5.509235896E-3,-1.966220094E-3,-1.058323123E-2,1.209224896E-2
1.431322047E0,4.287506454E-3,-2.577085746E-3,-1.058323123E-2,1.170593293E-2
1.433767047E0,3.676641965E-3,-3.798815189E-3,-1.058323123E-2,1.183019341E-2
1.436211265E0,2.454912523E-3,-3.187951399E-3,-9.972365573E-3,1.075349733E-2
1.438656317E0,-5.994110834E-4,-2.577085746E-3,-9.972365573E-3,1.031739985E-2
1.441102151E0,1.145363785E-5,-1.355358167E-3,-7.528907154E-3,7.649939207E-3
1.443547151E0,-1.210275805E-3,-1.355358167E-3,-8.139772341E-3,8.340123323E-3
1.445991422E0,-1.210275805E-3,1.698966371E-3,-7.528907154E-3,7.812534620E-3
1.448436422E0,-1.821140526E-3,4.772387911E-4,-4.474584479E-3,4.854504706E-3
1.450882255E0,-4.875464365E-3,4.772387911E-4,-6.307177711E-3,7.986138010E-3
1.453327307E0,-2.432005247E-3,1.088104444E-3,-5.085448269E-3,5.741115301E-3
1.455771526E0,-3.653734690E-3,4.772387911E-4,-5.085448269E-3,6.280073100E-3
1.458216526E0,-5.486329086E-3,-1.336268615E-4,-3.863718826E-3,6.711630662E-3
1.460662359E0,-4.264599644E-3,-1.355358167E-3,-3.863718826E-3,5.912032565E-3
1.463107411E0,-6.097193807E-3,-1.355358167E-3,-5.085448269E-3,8.054474047E-3
1.465551630E0,-7.318923250E-3,-3.187951399E-3,-4.474584479E-3,9.151588819E-3
1.467996682E0,-7.318923250E-3,-7.444925141E-4,-3.252855036E-3,8.043753634E-3
1.470442463E0,-7.318923250E-3,-1.355358167E-3,-2.641989384E-3,7.898337876E-3
1.472887515E0,-9.762382135E-3,-1.966220094E-3,-2.641989384E-3,1.030292358E-2
1.475331734E0,-9.762382135E-3,-1.966220094E-3,-2.641989384E-3,1.030292358E-2
1.477776786E0,-1.037324686E-2,-3.187951399E-3,-2.031125594E-3,1.104050523E-2
1.480222620E0,-1.037324686E-2,-4.409679212E-3,-8.093961515E-4,1.130064791E-2
1.482667620E0,-1.220584102E-2,-5.631410517E-3,-1.985309646E-4,1.344376264E-2
1.485111838E0,-1.281670574E-2,-8.074869402E-3,1.023198478E-3,1.518283231E-2
1.487556890E0,-1.281670574E-2,-1.051832829E-2,1.023198478E-3,1.661174618E-2
1.490002724E0,-1.220584102E-2,-1.174005587E-2,4.123337567E-4,1.694052791E-2
1.492447724E0,-1.342756953E-2,-1.418351475E-2,2.244927920E-3,1.965989358E-2
1.494891995E0,-1.464930084E-2,-1.540524606E-2,3.466657363E-3,2.153929744E-2
1.497336995E0,-1.403843518E-2,-1.723783836E-2,3.466657363E-3,2.249974326E-2
1.499782828E0,-1.464930084E-2,-1.723783836E-2,3.466657363E-3,2.288586462E-2
1.502227828E0,-1.526016463E-2,-1.907043159E-2,4.077522084E-3,2.476247507E-2
1.504672099E0,-1.403843518E-2,-2.090302669E-2,4.077522084E-3,2.550765323E-2
1.507117099E0,-1.526016463E-2,-1.968129724E-2,4.688386805E-3,2.534180452E-2
1.509562932E0,-1.526016463E-2,-1.968129724E-2,5.299251527E-3,2.546189609E-2
1.512007984E0,-1.526016463E-2,-1.907043159E-2,5.299251527E-3,2.499271998E-2
1.514452203E0,-1.464930084E-2,-1.784870401E-2,4.688386805E-3,2.356181701E-2
1.516897255E0,-1.526016463E-2,-1.968129724E-2,4.688386805E-3,2.534180452E-2
1.519343036E0,-1.526016463E-2,-2.090302669E-2,3.466657363E-3,2.611181461E-2
1.521788088E0,-1.587102748E-2,-2.151389048E-2,4.077522084E-3,2.704372724E-2
1.524232307E0,-1.526016463E-2,-2.334648557E-2,4.077522084E-3,2.818789100E-2
1.526677359E0,-1.403843518E-2,-2.517908067E-2,2.855792642E-3,2.896928230E-2
1.529123140E0,-1.342756953E-2,-2.640080824E-2,2.244927920E-3,2.970424214E-2
1.531568192E0,-1.403843518E-2,-2.884426713E-2,2.244927920E-3,3.215756692E-2
1.534012411E0,-1.342756953E-2,-2.823340334E-2,1.634063199E-3,3.130646659E-2
1.536457463E0,-1.342756953E-2,-2.823340334E-2,4.123337567E-4,3.126651095E-2
1.538903297E0,-1.342756953E-2,-2.945513278E-2,1.023198478E-3,3.238751929E-2
1.541348297E0,-1.220584102E-2,-2.823340334E-2,4.123337567E-4,3.076162607E-2
1.543792567E0,-1.098411158E-2,-3.006599844E-2,-1.985309646E-4,3.201022311E-2
1.546237567E0,-1.098411158E-2,-2.823340334E-2,-8.093961515E-4,3.030562478E-2
1.548683401E0,-1.098411158E-2,-3.006599844E-2,-2.031125594E-3,3.207398385E-2
1.551128401E0,-9.762382135E-3,-3.128772601E-2,-3.252855036E-3,3.293640797E-2
1.553572672E0,-1.037324686E-2,-3.189859167E-2,-3.252855036E-3,3.370022947E-2
1.556017672E0,-1.037324686E-2,-3.434205055E-2,-5.085448269E-3,3.623316810E-2
1.558463505E0,-9.151517414E-3,-3.617464378E-2,-3.863718826E-3,3.751377676E-2
1.560908557E0,-9.762382135E-3,-3.800724074E-2,-4.474584479E-3,3.949527010E-2
1.563352776E0,-9.762382135E-3,-3.739637509E-2,-5.085448269E-3,3.898274950E-2
1.565797828E0,-9.151517414E-3,-3.861810267E-2,-6.307177711E-3,4.018567675E-2
1.568243609E0,-8.540652692E-3,-3.678550944E-2,-8.139772341E-3,3.863123538E-2
1.570688661E0,-7.318923250E-3,-3.556377813E-2,-7.528907154E-3,3.708144274E-2
1.573132880E0,-8.540652692E-3,-3.312032297E-2,-6.918043364E-3,3.489638758E-2
1.575577932E0,-8.540652692E-3,-3.189859167E-2,-6.918043364E-3,3.373903115E-2
1.578023713E0,-6.708058529E-3,-2.884426713E-2,-7.528907154E-3,3.055608349E-2
1.580468765E0,-6.097193807E-3,-2.578994446E-2,-1.058323123E-2,2.853597362E-2
1.582912984E0,-6.708058529E-3,-2.334648557E-2,-1.119409502E-2,2.674629322E-2
1.585358036E0,-7.318923250E-3,-1.907043159E-2,-1.180496067E-2,2.359247963E-2
1.587803870E0,-6.708058529E-3,-1.479438040E-2,-1.302669011E-2,2.082225723E-2
1.590248870E0,-6.097193807E-3,-1.418351475E-2,-1.424841955E-2,2.100869636E-2
1.592693088E0,-4.875464365E-3,-1.296178717E-2,-1.547014900E-2,2.076303421E-2
1.595138140E0,-4.875464365E-3,-9.907462634E-3,-1.608101279E-2,1.950709975E-2
1.597583974E0,-3.653734690E-3,-1.051832829E-2,-1.669187844E-2,2.006498973E-2
1.600028974E0,-4.264599644E-3,-6.242274307E-3,-1.913533732E-2,2.057459436E-2
1.602473245E0,-2.432005247E-3,-3.187951399E-3,-1.913533732E-2,1.955092883E-2
1.604918245E0,-3.042869968E-3,-7.444925141E-4,-1.913533732E-2,1.939006089E-2
1.607364078E0,-3.042869968E-3,1.088104444E-3,-1.974620298E-2,2.000888705E-2
1.609809130E0,-3.042869968E-3,2.920697676E-3,-2.218966186E-2,2.258695699E-2
1.612253349E0,-3.042869968E-3,5.364156328E-3,-2.096793056E-2,2.185605963E-2
1.614698349E0,-5.994110834E-4,6.585883908E-3,-2.218966186E-2,2.315414118E-2
1.617144182E0,-5.994110834E-4,5.975021981E-3,-2.157879621E-2,2.239876396E-2
1.619589234E0,-1.210275805E-3,4.142425023E-3,-2.157879621E-2,2.200611048E-2
1.622033453E0,-1.210275805E-3,1.088104444E-3,-2.096793056E-2,2.103099737E-2
1.624478505E0,6.223183591E-4,-7.444925141E-4,-2.096793056E-2,2.099037067E-2
1.626924286E0,-5.994110834E-4,-3.187951399E-3,-2.096793056E-2,2.121736175E-2
1.629369338E0,1.844047802E-3,-5.631410517E-3,-2.096793056E-2,2.178915805E-2
1.631813557E0,1.233183080E-3,-4.409679212E-3,-1.913533732E-2,1.967554690E-2
1.634258609E0,1.844047802E-3,-3.798815189E-3,-1.730274409E-2,1.781057164E-2
1.636704442E0,6.223183591E-4,-2.577085746E-3,-1.852447167E-2,1.871322264E-2
1.639149442E0,1.233183080E-3,-6.242274307E-3,-1.730274409E-2,1.843560908E-2
1.641593661E0,1.145363785E-5,-8.074869402E-3,-1.547014900E-2,1.745076379E-2
1.644038713E0,-5.994110834E-4,-8.685733192E-3,-1.547014900E-2,1.775181018E-2
1.646484547E0,-5.994110834E-4,-1.357265096E-2,-1.547014900E-2,2.058887218E-2
1.648929547E0,1.145363785E-5,-1.418351475E-2,-1.485928334E-2,2.054192112E-2
1.651373817E0,1.145363785E-5,-1.601610892E-2,-1.547014900E-2,2.226749618E-2
1.653818817E0,1.233183080E-3,-1.784870401E-2,-1.547014900E-2,2.365211376E-2
1.656264651E0,6.223183591E-4,-1.784870401E-2,-1.669187844E-2,2.444549694E-2
1.658709703E0,1.233183080E-3,-2.090302669E-2,-1.485928334E-2,2.567597255E-2
1.661153922E0,6.223183591E-4,-2.029216290E-2,-1.669187844E-2,2.628265513E-2
1.663598922E0,1.145363785E-5,-2.151389048E-2,-1.547014900E-2,2.649854948E-2
1.666044755E0,-5.994110834E-4,-2.090302669E-2,-1.547014900E-2,2.601194587E-2
1.668489807E0,1.145363785E-5,-2.334648557E-2,-1.424841955E-2,2.735097767E-2
1.670934026E0,-1.210275805E-3,-2.517908067E-2,-1.608101279E-2,2.990066626E-2
1.673379078E0,-2.432005247E-3,-2.762253955E-2,-1.608101279E-2,3.205492650E-2
1.675824859E0,-3.042869968E-3,-2.884426713E-2,-1.730274409E-2,3.377329947E-2
1.678269911E0,-1.821140526E-3,-3.128772601E-2,-1.852447167E-2,3.640596658E-2
1.680714130E0,-1.210275805E-3,-3.128772601E-2,-1.974620298E-2,3.701755122E-2
1.683159182E0,1.145363785E-5,-3.067686222E-2,-2.035706677E-2,3.681684634E-2
1.685605015E0,-1.210275805E-3,-3.006599844E-2,-2.035706677E-2,3.632959120E-2
1.688050015E0,-1.210275805E-3,-2.762253955E-2,-2.096793056E-2,3.470048372E-2
1.690494286E0,-1.210275805E-3,-2.640080824E-2,-2.035706677E-2,3.335982031E-2
1.692939286E0,-5.994110834E-4,-2.273562178E-2,-1.913533732E-2,2.972253229E-2
1.695385120E0,-5.994110834E-4,-1.968129724E-2,-1.974620298E-2,2.788593349E-2
1.697830120E0,-1.821140526E-3,-1.784870401E-2,-1.730274409E-2,2.492544364E-2
1.700274390E0,-2.432005247E-3,-1.662697271E-2,-1.730274409E-2,2.411961492E-2
1.702719390E0,-3.042869968E-3,-1.662697271E-2,-1.608101279E-2,2.333054331E-2
1.705165224E0,-3.653734690E-3,-1.479438040E-2,-1.547014900E-2,2.171517853E-2
1.707610224E0,-4.875464365E-3,-1.418351475E-2,-1.424841955E-2,2.068718693E-2
1.710054495E0,-4.264599644E-3,-1.235092152E-2,-1.424841955E-2,1.933260283E-2
1.712499495E0,-3.042869968E-3,-1.235092152E-2,-1.424841955E-2,1.910030837E-2
1.714945328E0,-3.042869968E-3,-1.235092152E-2,-1.302669011E-2,1.820711331E-2
1.717390380E0,-1.821140526E-3,-1.051832829E-2,-1.058323123E-2,1.503185171E-2
1.719834599E0,-3.042869968E-3,-7.464003749E-3,-1.058323123E-2,1.330320235E-2
1.722279651E0,-3.042869968E-3,-5.631410517E-3,-1.058323123E-2,1.236837197E-2
1.724725432E0,-3.042869968E-3,-6.853138097E-3,-1.058323123E-2,1.297032546E-2
1.727170484E0,-3.042869968E-3,-6.242274307E-3,-1.119409502E-2,1.317318524E-2
1.729614703E0,-3.042869968E-3,-5.631410517E-3,-1.180496067E-2,1.342866108E-2
1.732059755E0,-3.042869968E-3,-6.853138097E-3,-1.119409502E-2,1.347339314E-2
1.734505588E0,-1.210275805E-3,-8.074869402E-3,-1.119409502E-2,1.385554209E-2
1.736950588E0,-3.042869968E-3,-9.296596982E-3,-9.972365573E-3,1.396903176E-2
1.739394807E0,-5.486329086E-3,-9.296596982E-3,-1.119409502E-2,1.555102201E-2
1.741839859E0,-4.875464365E-3,-1.174005587E-2,-1.180496067E-2,1.734808810E-2
1.744285692E0,-3.653734690E-3,-1.296178717E-2,-9.972365573E-3,1.675726049E-2
1.746730692E0,-5.486329086E-3,-1.357265096E-2,-1.119409502E-2,1.842890187E-2
1.749174911E0,-3.653734690E-3,-1.479438040E-2,-1.119409502E-2,1.890849629E-2
1.751619963E0,-4.264599644E-3,-1.540524606E-2,-1.119409502E-2,1.951451202E-2
1.754065797E0,-4.875464365E-3,-1.601610892E-2,-9.972365573E-3,1.948676404E-2
1.756510849E0,-6.708058529E-3,-1.601610892E-2,-9.972365573E-3,2.002403229E-2
1.758955067E0,-6.097193807E-3,-1.540524606E-2,-9.972365573E-3,1.933766929E-2
1.761400067E0,-7.929787971E-3,-1.479438040E-2,-1.058323123E-2,1.984338711E-2
1.763845901E0,-9.151517414E-3,-1.479438040E-2,-1.058323123E-2,2.036243467E-2
1.766290953E0,-8.540652692E-3,-1.784870401E-2,-1.119409502E-2,2.273382384E-2
1.768735172E0,-7.929787971E-3,-1.784870401E-2,-1.058323123E-2,2.221401709E-2
1.771180172E0,-9.151517414E-3,-1.845956780E-2,-1.058323123E-2,2.316270057E-2
1.773626005E0,-9.151517414E-3,-1.968129724E-2,-1.119409502E-2,2.442153753E-2
1.776071057E0,-1.037324686E-2,-1.845956780E-2,-1.058323123E-2,2.367202308E-2
1.778515276E0,-1.098411158E-2,-1.968129724E-2,-1.119409502E-2,2.516568957E-2
1.780960328E0,-1.220584102E-2,-1.907043159E-2,-1.180496067E-2,2.553470212E-2
1.783406161E0,-1.342756953E-2,-1.662697271E-2,-1.241582446E-2,2.471656412E-2
1.785851161E0,-1.220584102E-2,-1.662697271E-2,-1.363755390E-2,2.472694184E-2
1.788295380E0,-1.403843518E-2,-1.357265096E-2,-1.363755390E-2,2.381758579E-2
1.790740432E0,-1.464930084E-2,-1.235092152E-2,-1.424841955E-2,2.387812256E-2
1.793186265E0,-1.526016463E-2,-1.051832829E-2,-1.424841955E-2,2.337788087E-2
1.795631265E0,-1.526016463E-2,-8.074869402E-3,-1.363755390E-2,2.200134125E-2
1.798075536E0,-1.709275879E-2,-9.296596982E-3,-1.485928334E-2,2.448239000E-2
1.800520536E0,-1.709275879E-2,-5.631410517E-3,-1.547014900E-2,2.373184985E-2
1.802966370E0,-1.770362258E-2,-3.187951399E-3,-1.608101279E-2,2.412841186E-2
1.805411370E0,-2.075794525E-2,-4.409679212E-3,-1.608101279E-2,2.662586213E-2
1.807855640E0,-2.075794525E-2,-4.409679212E-3,-1.608101279E-2,2.662586213E-2
1.810300640E0,-2.075794525E-2,-5.020544864E-3,-1.608101279E-2,2.673382004E-2
1.812746474E0,-2.197967656E-2,-3.798815189E-3,-1.547014900E-2,2.714521484E-2
1.815191526E0,-2.259054221E-2,-3.187951399E-3,-1.730274409E-2,2.863355697E-2
1.817635745E0,-2.197967656E-2,-1.355358167E-3,-1.669187844E-2,2.763262534E-2
1.820080745E0,-2.259054221E-2,4.772387911E-4,-1.791360788E-2,2.883500826E-2
1.822526578E0,-2.320140414E-2,1.088104444E-3,-1.730274409E-2,2.896332299E-2
1.824971630E0,-2.320140414E-2,5.364156328E-3,-1.669187844E-2,2.908088948E-2
1.827415849E0,-2.381226979E-2,5.975021981E-3,-1.730274409E-2,3.003514663E-2
1.829860901E0,-2.381226979E-2,7.807615213E-3,-1.852447167E-2,3.116310477E-2
1.832306682E0,-2.442313544E-2,1.025107410E-2,-1.913533732E-2,3.267621764E-2
1.834751734E0,-2.625572868E-2,1.086193975E-2,-1.913533732E-2,3.425647615E-2
1.837195953E0,-2.747745998E-2,1.330539491E-2,-1.913533732E-2,3.603061858E-2
1.839641005E0,-2.686659433E-2,1.147280168E-2,-2.035706677E-2,3.560687064E-2
1.842086838E0,-2.686659433E-2,1.086193975E-2,-1.913533732E-2,3.472688815E-2
1.844531838E0,-2.686659433E-2,1.147280168E-2,-2.035706677E-2,3.560687064E-2
1.846976057E0,-2.625572868E-2,7.807615213E-3,-2.035706677E-2,3.412817474E-2
1.849421109E0,-2.503400110E-2,4.753290676E-3,-2.035706677E-2,3.261449295E-2
1.851866942E0,-2.381226979E-2,2.309832023E-3,-1.913533732E-2,3.063528441E-2
1.854311942E0,-2.503400110E-2,4.772387911E-4,-1.913533732E-2,3.151333214E-2
1.856756213E0,-2.381226979E-2,-2.577085746E-3,-1.669187844E-2,2.919390980E-2
1.859201213E0,-2.259054221E-2,-3.798815189E-3,-1.547014900E-2,2.764216171E-2
1.861647047E0,-2.320140414E-2,-6.242274307E-3,-1.302669011E-2,2.733067503E-2
1.864092099E0,-2.320140414E-2,-8.074869402E-3,-1.180496067E-2,2.725556395E-2
1.866536317E0,-2.197967656E-2,-9.296596982E-3,-1.119409502E-2,2.635983043E-2
1.868981317E0,-2.197967656E-2,-9.907462634E-3,-9.972365573E-3,2.609045942E-2
1.871427151E0,-2.075794525E-2,-1.174005587E-2,-8.139772341E-3,2.519875189E-2
1.873872203E0,-1.953621767E-2,-1.296178717E-2,-7.528907154E-3,2.462430041E-2
1.876316422E0,-1.953621767E-2,-1.601610892E-2,-6.918043364E-3,2.619234372E-2
1.878761474E0,-2.075794525E-2,-1.784870401E-2,-6.918043364E-3,2.823699435E-2
1.881207255E0,-1.831448637E-2,-2.029216290E-2,-6.307177711E-3,2.805303507E-2
1.883652307E0,-1.709275879E-2,-2.395734936E-2,-6.918043364E-3,3.023204120E-2
1.886096526E0,-1.648189314E-2,-2.578994446E-2,-7.528907154E-3,3.151917637E-2
1.888541578E0,-1.587102748E-2,-2.762253955E-2,-6.307177711E-3,3.247575550E-2
1.890987411E0,-1.648189314E-2,-2.945513278E-2,-6.307177711E-3,3.433712480E-2
1.893432411E0,-1.587102748E-2,-3.067686222E-2,-7.528907154E-3,3.535030173E-2
1.895876682E0,-1.648189314E-2,-3.128772601E-2,-6.918043364E-3,3.603378865E-2
1.898321682E0,-1.526016463E-2,-3.128772601E-2,-7.528907154E-3,3.561571095E-2
1.900767515E0,-1.464930084E-2,-3.250945732E-2,-9.361501783E-3,3.686603513E-2
1.903212515E0,-1.587102748E-2,-3.312032297E-2,-9.361501783E-3,3.790096335E-2
1.905656786E0,-1.709275879E-2,-3.250945732E-2,-9.972365573E-3,3.805883989E-2
1.908101786E0,-1.709275879E-2,-3.067686222E-2,-9.972365573E-3,3.650589479E-2
1.910547620E0,-1.709275879E-2,-3.128772601E-2,-9.361501783E-3,3.686084532E-2
1.912992672E0,-1.648189314E-2,-3.067686222E-2,-9.972365573E-3,3.622389753E-2
1.915436890E0,-1.587102748E-2,-3.250945732E-2,-9.361501783E-3,3.736832943E-2
1.917881890E0,-1.587102748E-2,-3.128772601E-2,-8.139772341E-3,3.601481926E-2
1.920327724E0,-1.526016463E-2,-3.189859167E-2,-8.139772341E-3,3.628565376E-2
1.922772776E0,-1.403843518E-2,-3.189859167E-2,-8.139772341E-3,3.578901656E-2
1.925216995E0,-1.342756953E-2,-3.189859167E-2,-6.918043364E-3,3.529417938E-2
1.927662047E0,-1.281670574E-2,-3.128772601E-2,-6.307177711E-3,3.439433436E-2
1.930107828E0,-1.159497630E-2,-2.884426713E-2,-5.085448269E-3,3.150074611E-2
1.932552880E0,-1.220584102E-2,-2.640080824E-2,-5.696313921E-3,2.963837417E-2
1.934997099E0,-1.281670574E-2,-2.334648557E-2,-3.863718826E-3,2.691197982E-2
1.937442151E0,-1.220584102E-2,-1.968129724E-2,-5.696313921E-3,2.384919304E-2
1.939887932E0,-1.159497630E-2,-1.784870401E-2,-5.696313921E-3,2.203333163E-2
1.942332984E0,-1.281670574E-2,-1.540524606E-2,-4.474584479E-3,2.053317945E-2
1.944777203E0,-1.159497630E-2,-1.357265096E-2,-4.474584479E-3,1.840332132E-2
1.947222255E0,-1.281670574E-2,-1.112919208E-2,-4.474584479E-3,1.755416670E-2
1.949668088E0,-1.281670574E-2,-1.112919208E-2,-5.085448269E-3,1.771972478E-2
1.952113088E0,-1.464930084E-2,-1.051832829E-2,-3.863718826E-3,1.844357796E-2
1.954557307E0,-1.403843518E-2,-1.112919208E-2,-4.474584479E-3,1.846506120E-2
1.957002359E0,-1.403843518E-2,-1.112919208E-2,-6.918043364E-3,1.920405954E-2
1.959448192E0,-1.464930084E-2,-1.357265096E-2,-5.696313921E-3,2.076696563E-2
1.961893192E0,-1.464930084E-2,-1.540524606E-2,-5.085448269E-3,2.185830289E-2
1.964337463E0,-1.464930084E-2,-1.723783836E-2,-6.307177711E-3,2.348458168E-2
1.966782463E0,-1.587102748E-2,-1.784870401E-2,-6.918043364E-3,2.486614309E-2
1.969228297E0,-1.526016463E-2,-1.907043159E-2,-6.918043364E-3,2.538529711E-2
1.971673349E0,-1.526016463E-2,-1.907043159E-2,-7.528907154E-3,2.555852946E-2
1.974117567E0,-1.464930084E-2,-2.090302669E-2,-7.528907154E-3,2.661245916E-2
1.976562567E0,-1.709275879E-2,-2.212475613E-2,-7.528907154E-3,2.895430330E-2
1.979008401E0,-1.770362258E-2,-2.395734936E-2,-8.750636131E-3,3.104748739E-2
1.981453453E0,-1.709275879E-2,-2.517908067E-2,-8.750636131E-3,3.166578815E-2
1.983897672E0,-1.709275879E-2,-2.640080824E-2,-8.750636131E-3,3.264565380E-2
1.986342724E0,-1.770362258E-2,-2.945513278E-2,-9.972365573E-3,3.578367190E-2
1.988788505E0,-1.648189314E-2,-3.312032297E-2,-9.972365573E-3,3.831522766E-2
1.991233557E0,-1.648189314E-2,-3.556377813E-2,-9.361501783E-3,4.029978700E-2
1.993677776E0,-1.526016463E-2,-3.800724074E-2,-9.361501783E-3,4.201262535E-2
1.996122828E0,-1.587102748E-2,-4.289415851E-2,-8.750636131E-3,4.656578122E-2
1.998568661E0,-1.464930084E-2,-4.594847932E-2,-8.139772341E-3,4.890931058E-2
2.001013661E0,-1.403843518E-2,-4.839193821E-2,-9.361501783E-3,5.124934206E-2
2.003457932E0,-1.342756953E-2,-5.083539709E-2,-1.180496067E-2,5.388779377E-2
2.005902932E0,-1.281670574E-2,-5.327885598E-2,-9.972365573E-3,5.569876584E-2
2.008348765E0,-1.159497630E-2,-5.511144921E-2,-8.750636131E-3,5.699376231E-2
2.010793765E0,-1.098411158E-2,-5.755491182E-2,-8.139772341E-3,5.915635617E-2
2.013238036E0,-8.540652692E-3,-5.877663940E-2,-8.750636131E-3,6.003507075E-2
2.015683036E0,-7.929787971E-3,-6.060923263E-2,-8.750636131E-3,6.174896153E-2
2.018128870E0,-6.097193807E-3,-6.305269152E-2,-7.528907154E-3,6.379264944E-2
2.020573922E0,-5.486329086E-3,-6.305269152E-2,-6.918043364E-3,6.366789645E-2
2.023018140E0,-5.994110834E-4,-6.305269152E-2,-7.528907154E-3,6.350343018E-2
2.025463140E0,6.223183591E-4,-6.488528848E-2,-9.361501783E-3,6.556009195E-2
2.027908974E0,3.065777244E-3,-6.305269152E-2,-8.750636131E-3,6.373079735E-2
2.030354026E0,6.120100617E-3,-6.488528848E-2,-1.058323123E-2,6.602697233E-2
2.032798245E0,7.952694781E-3,-6.488528848E-2,-1.241582446E-2,6.653945230E-2
2.035243297E0,9.174424224E-3,-6.244182959E-2,-1.180496067E-2,6.420676942E-2
2.037689078E0,1.039615367E-2,-6.366355717E-2,-1.119409502E-2,6.547088121E-2
2.040134130E0,1.222874783E-2,-6.183096394E-2,-1.180496067E-2,6.412462453E-2
2.042578349E0,1.467220671E-2,-5.877663940E-2,-1.241582446E-2,6.183946706E-2
2.045023401E0,1.467220671E-2,-5.633318052E-2,-1.241582446E-2,5.952187475E-2
2.047469234E0,1.528307237E-2,-5.327885598E-2,-9.972365573E-3,5.631746506E-2
2.049914234E0,1.528307237E-2,-5.022453144E-2,-9.361501783E-3,5.332648099E-2
2.052358453E0,1.589393616E-2,-4.839193821E-2,-8.750636131E-3,5.168143306E-2
2.054803505E0,1.528307237E-2,-4.411588609E-2,-7.528907154E-3,4.729131157E-2
2.057249338E0,1.711566560E-2,-4.228329286E-2,-6.918043364E-3,4.613764394E-2
2.059694338E0,1.650479995E-2,-4.045069590E-2,-6.307177711E-3,4.414122462E-2
2.062138609E0,1.833739504E-2,-4.045069590E-2,-5.696313921E-3,4.477685617E-2
2.064583609E0,1.955912448E-2,-3.983983397E-2,-4.474584479E-3,4.460710289E-2
2.067029442E0,2.200258337E-2,-4.106156155E-2,-4.474584479E-3,4.679943823E-2
2.069474442E0,2.261344902E-2,-4.167242721E-2,-4.474584479E-3,4.762332593E-2
2.071918713E0,2.383517660E-2,-4.350502044E-2,-3.863718826E-3,4.975671583E-2
2.074363713E0,2.566777356E-2,-4.350502044E-2,-3.252855036E-3,5.061721514E-2
2.076809547E0,2.688950114E-2,-4.717021063E-2,-3.863718826E-3,5.443346733E-2
2.079254599E0,2.750036679E-2,-4.839193821E-2,-3.252855036E-3,5.575509773E-2
2.081698817E0,2.627863549E-2,-4.900280386E-2,-2.031125594E-3,5.564141390E-2
2.084143870E0,2.811123244E-2,-5.266799405E-2,-2.031125594E-3,5.973511914E-2
2.086589651E0,2.811123244E-2,-5.450058728E-2,-1.985309646E-4,6.132368888E-2
2.089034703E0,2.994382568E-2,-5.511144921E-2,1.023198478E-3,6.272919149E-2
2.091478922E0,2.994382568E-2,-5.388972163E-2,-1.985309646E-4,6.165041937E-2
2.093923974E0,3.177642077E-2,-5.144626275E-2,1.023198478E-3,6.047731643E-2
2.096369755E0,2.994382568E-2,-5.205712840E-2,4.123337567E-4,6.005620145E-2
2.098814807E0,2.811123244E-2,-4.961366951E-2,-1.985309646E-4,5.702452987E-2
2.101259026E0,2.933296002E-2,-4.839193821E-2,1.023198478E-3,5.659725402E-2
2.103704078E0,2.872209437E-2,-4.594847932E-2,-1.985309646E-4,5.418727592E-2
2.106149911E0,2.811123244E-2,-4.411588609E-2,4.123337567E-4,5.231274046E-2
2.108594911E0,2.750036679E-2,-4.289415851E-2,4.123337567E-4,5.095438183E-2
2.111039130E0,2.750036679E-2,-4.289415851E-2,-2.031125594E-3,5.099318071E-2
2.113484182E0,2.811123244E-2,-4.411588609E-2,-1.420259941E-3,5.233039206E-2
2.115930015E0,2.688950114E-2,-4.350502044E-2,-3.863718826E-3,5.128996391E-2
2.118375015E0,2.627863549E-2,-4.472675174E-2,-4.474584479E-3,5.206794514E-2
2.120819286E0,2.566777356E-2,-4.350502044E-2,-6.307177711E-3,5.090483173E-2
2.123264286E0,2.505690791E-2,-4.533761367E-2,-8.139772341E-3,5.243666409E-2
2.125710120E0,2.566777356E-2,-4.655934498E-2,-7.528907154E-3,5.369629081E-2
2.128155172E0,2.444604225E-2,-4.533761367E-2,-7.528907154E-3,5.205566865E-2
2.130599390E0,2.261344902E-2,-4.594847932E-2,-8.750636131E-3,5.195386859E-2
2.133044390E0,2.200258337E-2,-4.411588609E-2,-8.750636131E-3,5.006893961E-2
2.135490224E0,1.955912448E-2,-4.411588609E-2,-8.139772341E-3,4.893900949E-2
2.137935276E0,1.894825883E-2,-4.472675174E-2,-8.139772341E-3,4.925215455E-2
2.140379495E0,1.894825883E-2,-4.411588609E-2,-9.361501783E-3,4.891713027E-2
2.142824547E0,1.833739504E-2,-4.289415851E-2,-8.750636131E-3,4.746306484E-2
2.145270328E0,1.711566560E-2,-4.472675174E-2,-8.139772341E-3,4.857658103E-2
2.147715380E0,1.528307237E-2,-4.533761367E-2,-8.750636131E-3,4.863789826E-2
2.150159599E0,1.528307237E-2,-4.533761367E-2,-7.528907154E-3,4.843300484E-2
2.152604651E0,1.467220671E-2,-4.533761367E-2,-7.528907154E-3,4.824372815E-2
2.155050484E0,1.283961255E-2,-4.717021063E-2,-6.918043364E-3,4.937351259E-2
2.157495484E0,1.161788311E-2,-4.778107628E-2,-6.307177711E-3,4.957607235E-2
2.159939755E0,1.100701839E-2,-4.594847932E-2,-3.863718826E-3,4.740617607E-2
2.162384755E0,9.785288945E-3,-4.839193821E-2,-4.474584479E-3,4.957371753E-2
2.164830588E0,7.952694781E-3,-4.839193821E-2,-5.085448269E-3,4.930402440E-2
2.167275588E0,7.341830060E-3,-5.022453144E-2,-6.918043364E-3,5.122758389E-2
2.169719859E0,4.898371175E-3,-4.961366951E-2,-5.696313921E-3,5.017926101E-2
2.172164859E0,4.898371175E-3,-4.900280386E-2,-3.252855036E-3,4.935433003E-2
2.174610692E0,2.454912523E-3,-4.900280386E-2,-2.031125594E-3,4.910628120E-2
2.177055745E0,6.223183591E-4,-5.022453144E-2,-2.641989384E-3,5.029782248E-2
2.179499963E0,6.120100617E-3,-4.778107628E-2,-2.031125594E-3,4.821423393E-2
2.181944963E0,6.223183591E-4,-4.533761367E-2,-2.031125594E-3,4.538735468E-2
2.184390797E0,1.844047802E-3,-3.983983397E-2,-1.420259941E-3,3.990776894E-2
2.186835849E0,-1.210275805E-3,-4.106156155E-2,-2.641989384E-3,4.116426500E-2
2.189280067E0,-1.821140526E-3,-3.800724074E-2,-2.031125594E-3,3.810501769E-2
2.191725120E0,-1.210275805E-3,-3.861810267E-2,-8.093961515E-4,3.864553976E-2
2.194170901E0,-5.486329086E-3,-3.861810267E-2,-8.093961515E-4,3.901426384E-2
2.196615953E0,-2.432005247E-3,-3.739637509E-2,-1.985309646E-4,3.747589804E-2
2.199060172E0,-7.318923250E-3,-3.739637509E-2,-1.985309646E-4,3.810636327E-2
2.201505224E0,-3.042869968E-3,-3.617464378E-2,-1.985309646E-4,3.630293824E-2
2.203951057E0,-7.929787971E-3,-3.800724074E-2,-8.093961515E-4,3.883409595E-2
2.206396057E0,-5.486329086E-3,-3.678550944E-2,-2.641989384E-3,3.728610491E-2
2.208840276E0,-7.929787971E-3,-3.922896832E-2,-2.031125594E-3,4.007391875E-2
2.211285328E0,-7.318923250E-3,-3.800724074E-2,-3.863718826E-3,3.889788310E-2
2.213731161E0,-9.762382135E-3,-3.861810267E-2,-4.474584479E-3,4.008346124E-2
2.216176161E0,-1.037324686E-2,-3.922896832E-2,-3.863718826E-3,4.076082101E-2
2.218620432E0,-7.318923250E-3,-3.800724074E-2,-4.474584479E-3,3.896330187E-2
2.221065432E0,-1.220584102E-2,-3.983983397E-2,-5.085448269E-3,4.197685922E-2
2.223511265E0,-9.762382135E-3,-3.922896832E-2,-3.863718826E-3,4.060965875E-2
2.225956317E0,-1.342756953E-2,-4.228329286E-2,-5.696313921E-3,4.472834080E-2
2.228400536E0,-1.037324686E-2,-4.106156155E-2,-7.528907154E-3,4.301558474E-2
2.230845536E0,-1.281670574E-2,-4.228329286E-2,-7.528907154E-3,4.481996479E-2
2.233291370E0,-1.037324686E-2,-4.289415851E-2,-8.750636131E-3,4.498985127E-2
2.235736422E0,-1.220584102E-2,-4.411588609E-2,-8.750636131E-3,4.660222734E-2
2.238180640E0,-1.464930084E-2,-4.411588609E-2,-8.139772341E-3,4.719183525E-2
2.240625692E0,-1.159497630E-2,-4.594847932E-2,-8.750636131E-3,4.819003902E-2
2.243071474E0,-1.403843518E-2,-4.900280386E-2,-9.361501783E-3,5.182653919E-2
2.245516526E0,-9.762382135E-3,-4.655934498E-2,-9.361501783E-3,4.848416675E-2
2.247960745E0,-1.220584102E-2,-5.144626275E-2,-8.750636131E-3,5.359360165E-2
2.250405797E0,-8.540652692E-3,-5.083539709E-2,-7.528907154E-3,5.209476739E-2
2.252851630E0,-9.762382135E-3,-5.388972163E-2,-8.750636131E-3,5.546151670E-2
2.255296630E0,-7.929787971E-3,-5.388972163E-2,-1.058323123E-2,5.548863323E-2
2.257740849E0,-8.540652692E-3,-5.572231486E-2,-9.361501783E-3,5.714505086E-2
2.260185901E0,-9.762382135E-3,-5.511144921E-2,-8.750636131E-3,5.664935632E-2
2.262631734E0,-4.875464365E-3,-5.694404617E-2,-7.528907154E-3,5.764615330E-2
2.265076734E0,-8.540652692E-3,-5.755491182E-2,-8.139772341E-3,5.875173629E-2
2.267521005E0,-4.875464365E-3,-5.511144921E-2,-7.528907154E-3,5.583660475E-2
2.269966005E0,-7.929787971E-3,-5.755491182E-2,-8.139772341E-3,5.866604901E-2
2.272411838E0,-4.264599644E-3,-5.877663940E-2,-6.918043364E-3,5.933581948E-2
2.274856890E0,-5.486329086E-3,-5.633318052E-2,-7.528907154E-3,5.709826159E-2
2.277301109E0,-3.042869968E-3,-5.694404617E-2,-7.528907154E-3,5.752015207E-2
2.279746109E0,-4.264599644E-3,-5.694404617E-2,-8.139772341E-3,5.768073420E-2
2.282191942E0,-1.821140526E-3,-5.633318052E-2,-6.918043364E-3,5.678558888E-2
2.284636995E0,-1.821140526E-3,-5.327885598E-2,-6.307177711E-3,5.368178032E-2
2.287081213E0,-1.210275805E-3,-5.388972163E-2,-6.918043364E-3,5.434543393E-2
2.289526265E0,1.145363785E-5,-5.266799405E-2,-7.528907154E-3,5.320340376E-2
2.291972047E0,-5.994110834E-4,-5.083539709E-2,-6.918043364E-3,5.130746744E-2
2.294417099E0,1.145363785E-5,-5.022453144E-2,-8.139772341E-3,5.087985440E-2
2.296861317E0,1.233183080E-3,-4.900280386E-2,-8.139772341E-3,4.968955042E-2
2.299306370E0,3.065777244E-3,-4.900280386E-2,-8.139772341E-3,4.976876199E-2
2.301752151E0,2.454912523E-3,-4.961366951E-2,-7.528907154E-3,5.024168828E-2
2.304197203E0,2.454912523E-3,-5.022453144E-2,-8.750636131E-3,5.104021735E-2
2.306641422E0,4.287506454E-3,-4.961366951E-2,-8.139772341E-3,5.045943725E-2
2.309086474E0,5.509235896E-3,-4.961366951E-2,-7.528907154E-3,5.048318855E-2
2.311532307E0,4.898371175E-3,-4.839193821E-2,-6.918043364E-3,4.912873953E-2
2.313977307E0,6.730965339E-3,-4.900280386E-2,-6.918043364E-3,4.994436910E-2
2.316421578E0,7.952694781E-3,-4.839193821E-2,-7.528907154E-3,4.961561731E-2
2.318866578E0,7.952694781E-3,-4.961366951E-2,-5.085448269E-3,5.050369631E-2
2.321312411E0,9.785288945E-3,-4.839193821E-2,-5.085448269E-3,4.963258353E-2
2.323757411E0,9.785288945E-3,-4.839193821E-2,-5.696313921E-3,4.969888888E-2
2.326201682E0,1.039615367E-2,-5.022453144E-2,-5.085448269E-3,5.154071549E-2
2.328646682E0,1.039615367E-2,-5.022453144E-2,-3.863718826E-3,5.143453988E-2
2.331092515E0,1.039615367E-2,-5.205712840E-2,-3.252855036E-3,5.318463776E-2
2.333537567E0,1.100701839E-2,-5.083539709E-2,-3.252855036E-3,5.211499897E-2
2.335981786E0,1.222874783E-2,-5.205712840E-2,-2.641989384E-3,5.353939670E-2
2.338426786E0,1.406134106E-2,-5.205712840E-2,-2.031125594E-3,5.396101742E-2
2.340872620E0,1.467220671E-2,-4.961366951E-2,-3.252855036E-3,5.183985840E-2
2.343317672E0,1.528307237E-2,-5.022453144E-2,-3.863718826E-3,5.264032848E-2
2.345761890E0,1.528307237E-2,-4.839193821E-2,-2.641989384E-3,5.081665173E-2
2.348206942E0,1.406134106E-2,-4.839193821E-2,-2.641989384E-3,5.046267040E-2
2.350652724E0,1.528307237E-2,-4.900280386E-2,-3.863718826E-3,5.147596925E-2
2.353097776E0,1.528307237E-2,-4.961366951E-2,-1.420259941E-3,5.193366579E-2
2.355541995E0,1.467220671E-2,-4.717021063E-2,-2.641989384E-3,4.947001646E-2
2.357987047E0,1.589393616E-2,-4.900280386E-2,-3.252855036E-3,5.161853406E-2
2.360432880E0,1.589393616E-2,-4.900280386E-2,-3.863718826E-3,5.166062636E-2
2.362877880E0,1.528307237E-2,-5.266799405E-2,-4.474584479E-3,5.502282985E-2
2.365322099E0,1.589393616E-2,-5.022453144E-2,-5.085448269E-3,5.292430962E-2
2.367767151E0,1.711566560E-2,-5.144626275E-2,-6.307177711E-3,5.458428758E-2
2.370212984E0,1.772653125E-2,-5.144626275E-2,-7.528907154E-3,5.493298011E-2
2.372657984E0,1.650479995E-2,-5.083539709E-2,-6.918043364E-3,5.389346290E-2
2.375102255E0,1.650479995E-2,-5.327885598E-2,-6.307177711E-3,5.613221363E-2
2.377547255E0,1.528307237E-2,-5.327885598E-2,-7.528907154E-3,5.593651078E-2
2.379993088E0,1.711566560E-2,-5.450058728E-2,-8.139772341E-3,5.770195765E-2
2.382438140E0,1.650479995E-2,-5.511144921E-2,-8.139772341E-3,5.810280672E-2
2.384882359E0,1.589393616E-2,-5.572231486E-2,-6.918043364E-3,5.835625849E-2
2.387327359E0,1.345047727E-2,-5.572231486E-2,-8.139772341E-3,5.789773404E-2
2.389773192E0,1.100701839E-2,-5.755491182E-2,-7.528907154E-3,5.907966462E-2
2.392218245E0,1.283961255E-2,-5.755491182E-2,-8.139772341E-3,5.952881167E-2
2.394662463E0,1.222874783E-2,-5.694404617E-2,-6.918043364E-3,5.865173477E-2
2.397107515E0,1.283961255E-2,-5.633318052E-2,-8.139772341E-3,5.834842561E-2
2.399553297E0,1.283961255E-2,-5.450058728E-2,-7.528907154E-3,5.649649642E-2
2.401998349E0,1.100701839E-2,-5.327885598E-2,-6.918043364E-3,5.484204840E-2
2.404442567E0,1.100701839E-2,-5.022453144E-2,-7.528907154E-3,5.196481940E-2
2.406887620E0,9.174424224E-3,-4.900280386E-2,-5.696313921E-3,5.017860937E-2
2.409333453E0,7.952694781E-3,-4.655934498E-2,-5.085448269E-3,4.750662841E-2
2.411778453E0,8.563559502E-3,-4.717021063E-2,-5.085448269E-3,4.821021786E-2
2.414222672E0,7.952694781E-3,-4.839193821E-2,-4.474584479E-3,4.924476565E-2
2.416667724E0,6.120100617E-3,-4.839193821E-2,-4.474584479E-3,4.898221332E-2
2.419113557E0,6.730965339E-3,-4.961366951E-2,-3.863718826E-3,5.021703317E-2
2.421558557E0,6.730965339E-3,-5.022453144E-2,-3.863718826E-3,5.082064321E-2
2.424002828E0,5.509235896E-3,-5.144626275E-2,-3.252855036E-3,5.184255681E-2
2.426447828E0,4.898371175E-3,-5.205712840E-2,-2.031125594E-3,5.232651458E-2
2.428893661E0,6.120100617E-3,-5.327885598E-2,-2.641989384E-3,5.369424768E-2
2.431338713E0,4.898371175E-3,-5.388972163E-2,-1.420259941E-3,5.413052074E-2
2.433782932E0,3.676641965E-3,-5.450058728E-2,-1.420259941E-3,5.464292131E-2
2.436227932E0,4.287506454E-3,-5.572231486E-2,-1.985309646E-4,5.588737335E-2
2.438673765E0,4.898371175E-3,-5.511144921E-2,1.023198478E-3,5.533816775E-2
2.441118817E0,3.676641965E-3,-5.572231486E-2,1.023198478E-3,5.585285136E-2
2.443563036E0,3.065777244E-3,-5.633318052E-2,2.244927920E-3,5.646118949E-2
2.446008088E0,3.676641965E-3,-5.694404617E-2,1.634063199E-3,5.708600750E-2
2.448453870E0,3.676641965E-3,-5.877663940E-2,1.634063199E-3,5.891418503E-2
2.450898922E0,1.844047802E-3,-5.694404617E-2,1.023198478E-3,5.698308382E-2
2.453343140E0,3.065777244E-3,-5.938750505E-2,2.244927920E-3,5.950894427E-2
2.455788192E0,4.287506454E-3,-5.816577375E-2,3.466657363E-3,5.842651505E-2
2.458234026E0,3.065777244E-3,-5.816577375E-2,2.855792642E-3,5.831647947E-2
2.460679026E0,4.898371175E-3,-5.755491182E-2,2.855792642E-3,5.783353237E-2
2.463123245E0,4.898371175E-3,-5.755491182E-2,4.123337567E-4,5.776445217E-2
2.465568297E0,6.120100617E-3,-5.511144921E-2,4.123337567E-4,5.545175818E-2
2.468014130E0,4.287506454E-3,-5.327885598E-2,-1.985309646E-4,5.345146042E-2
2.470459130E0,5.509235896E-3,-5.083539709E-2,-1.985309646E-4,5.113344006E-2
2.472903401E0,6.730965339E-3,-4.839193821E-2,-2.031125594E-3,4.890001073E-2
2.475348401E0,7.341830060E-3,-4.533761367E-2,-2.641989384E-3,4.600414970E-2
2.477794234E0,6.120100617E-3,-4.228329286E-2,-3.252855036E-3,4.284756180E-2
2.480239234E0,7.341830060E-3,-3.983983397E-2,-3.863718826E-3,4.069451023E-2
2.482683505E0,6.730965339E-3,-3.861810267E-2,-3.863718826E-3,3.939025351E-2
2.485128505E0,5.509235896E-3,-3.617464378E-2,-5.085448269E-3,3.694344755E-2
2.487574338E0,5.509235896E-3,-3.434205055E-2,-6.918043364E-3,3.546247933E-2
2.490019390E0,6.730965339E-3,-3.434205055E-2,-8.750636131E-3,3.607292563E-2
2.492463609E0,4.898371175E-3,-3.617464378E-2,-9.361501783E-3,3.768602670E-2
2.494908609E0,5.509235896E-3,-4.045069590E-2,-1.058323123E-2,4.217363231E-2
2.497354442E0,5.509235896E-3,-4.045069590E-2,-1.241582446E-2,4.267040164E-2
2.499799495E0,7.341830060E-3,-4.228329286E-2,-1.302669011E-2,4.484945907E-2
2.502243713E0,6.120100617E-3,-4.655934498E-2,-1.363755390E-2,4.890001138E-2
2.504688765E0,5.509235896E-3,-4.961366951E-2,-1.424841955E-2,5.191228508E-2
2.507134547E0,6.730965339E-3,-5.144626275E-2,-1.424841955E-2,5.380558804E-2
2.509579599E0,5.509235896E-3,-5.327885598E-2,-1.424841955E-2,5.542567667E-2
2.512023817E0,6.730965339E-3,-5.633318052E-2,-1.241582446E-2,5.807655137E-2
2.514468870E0,6.730965339E-3,-5.755491182E-2,-1.302669011E-2,5.939333653E-2
2.516914703E0,9.174424224E-3,-6.244182959E-2,-1.180496067E-2,6.420676942E-2
2.519359703E0,7.341830060E-3,-6.488528848E-2,-9.972365573E-3,6.605642440E-2
2.521803922E0,7.952694781E-3,-6.916134804E-2,-7.528907154E-3,7.002300951E-2
2.524248974E0,9.785288945E-3,-7.221566886E-2,-6.918043364E-3,7.320323785E-2
2.526694807E0,9.785288945E-3,-7.465913147E-2,-5.696313921E-3,7.551281867E-2
2.529139807E0,1.039615367E-2,-7.771345228E-2,-3.863718826E-3,7.850088534E-2
2.531584078E0,1.161788311E-2,-8.321123570E-2,-2.641989384E-3,8.405988974E-2
2.534029078E0,1.100701839E-2,-8.870901912E-2,-1.420259941E-3,8.940056860E-2
2.536474911E0,9.174424224E-3,-9.420680255E-2,1.023198478E-3,9.465800886E-2
2.538919963E0,8.563559502E-3,-1.009263024E-1,2.244927920E-3,1.013138330E-1
2.541364182E0,8.563559502E-3,-1.076458171E-1,2.855792642E-3,1.080236643E-1
2.543809182E0,6.730965339E-3,-1.113110110E-1,4.688386805E-3,1.116128489E-1
2.546255015E0,5.509235896E-3,-1.168087944E-1,5.299251527E-3,1.170586528E-1
2.548700067E0,6.120100617E-3,-1.210848466E-1,5.299251527E-3,1.213551720E-1
2.551144286E0,5.509235896E-3,-1.253608912E-1,7.131845690E-3,1.256843982E-1
2.553589338E0,4.287506454E-3,-1.271934807E-1,8.964439854E-3,1.275810544E-1
2.556035120E0,4.287506454E-3,-1.308586746E-1,1.018616930E-2,1.313245350E-1
2.558480172E0,4.287506454E-3,-1.314695328E-1,1.018616930E-2,1.319332362E-1
2.560924390E0,4.287506454E-3,-1.314695328E-1,1.018616930E-2,1.319332362E-1
2.563369442E0,4.287506454E-3,-1.326912642E-1,1.201876346E-2,1.333034319E-1
2.565815276E0,3.065777244E-3,-1.302478015E-1,1.324049290E-2,1.309549520E-1
2.568260276E0,3.065777244E-3,-1.290260851E-1,1.262962818E-2,1.296789773E-1
2.570704495E0,1.844047802E-3,-1.253608912E-1,1.262962818E-2,1.260089722E-1
2.573149547E0,2.454912523E-3,-1.235283092E-1,1.324049290E-2,1.242601320E-1
2.575595380E0,1.233183080E-3,-1.210848466E-1,1.201876346E-2,1.216861187E-1
2.578040380E0,1.233183080E-3,-1.174196526E-1,1.324049290E-2,1.181702425E-1
2.580484651E0,1.145363785E-5,-1.137544736E-1,1.262962818E-2,1.144534312E-1
2.582929651E0,1.233183080E-3,-1.107001379E-1,1.324049290E-2,1.114959727E-1
2.585375484E0,1.145363785E-5,-1.052023694E-1,1.385135762E-2,1.061103141E-1
2.587820484E0,6.223183591E-4,-1.045914963E-1,1.324049290E-2,1.054280751E-1
2.590264755E0,-5.994110834E-4,-9.970458597E-2,1.507308707E-2,1.008392865E-1
2.592709755E0,6.223183591E-4,-9.787198156E-2,1.568395272E-2,9.912264337E-2
2.595155588E0,1.844047802E-3,-9.359592944E-2,1.629481651E-2,9.502167945E-2
2.597600640E0,1.145363785E-5,-9.176333994E-2,1.446222235E-2,9.289599864E-2
2.600044859E0,1.145363785E-5,-8.687641472E-2,1.507308707E-2,8.817431326E-2
2.602489911E0,-1.210275805E-3,-8.382209390E-2,1.629481651E-2,8.539981990E-2
2.604935692E0,-1.821140526E-3,-7.954604179E-2,1.568395272E-2,8.109793887E-2
2.607380745E0,-1.821140526E-3,-7.404825836E-2,1.629481651E-2,7.584182332E-2
2.609824963E0,-5.994110834E-4,-7.099393755E-2,1.324049290E-2,7.222055881E-2
2.612270015E0,6.223183591E-4,-6.488528848E-2,1.446222235E-2,6.648040174E-2
2.614715849E0,1.844047802E-3,-6.305269152E-2,1.446222235E-2,6.471629080E-2
2.617160849E0,1.844047802E-3,-5.877663940E-2,1.507308707E-2,6.070660430E-2
2.619605067E0,1.233183080E-3,-5.511144921E-2,1.446222235E-2,5.699077513E-2
2.622050120E0,3.065777244E-3,-5.205712840E-2,1.629481651E-2,5.463391485E-2
2.624495953E0,1.145363785E-5,-4.839193821E-2,1.568395272E-2,5.087009129E-2
2.626940953E0,-1.210275805E-3,-4.472675174E-2,1.690568030E-2,4.783042040E-2
2.629385224E0,-1.210275805E-3,-4.045069590E-2,1.690568030E-2,4.385801629E-2
2.631830224E0,-1.821140526E-3,-3.678550944E-2,1.934913918E-2,4.160383930E-2
2.634276057E0,-3.042869968E-3,-3.861810267E-2,2.179259807E-2,4.444698237E-2
2.636721109E0,-3.042869968E-3,-3.800724074E-2,2.179259807E-2,4.391727151E-2
2.639165328E0,-3.042869968E-3,-3.861810267E-2,2.301432937E-2,4.505858706E-2
2.641610328E0,-4.875464365E-3,-3.922896832E-2,2.240346372E-2,4.543783990E-2
2.644056161E0,-3.653734690E-3,-4.045069590E-2,2.240346372E-2,4.638452072E-2
2.646501213E0,-5.486329086E-3,-4.228329286E-2,2.179259807E-2,4.788417267E-2
2.648945432E0,-6.708058529E-3,-4.533761367E-2,2.057087049E-2,5.023602269E-2
2.651390432E0,-5.486329086E-3,-5.144626275E-2,2.057087049E-2,5.567745028E-2
2.653836265E0,-7.318923250E-3,-5.205712840E-2,1.873827539E-2,5.580890807E-2
2.656281317E0,-6.708058529E-3,-5.633318052E-2,1.629481651E-2,5.902496354E-2
2.658725536E0,-9.151517414E-3,-5.938750505E-2,1.568395272E-2,6.210162961E-2
2.661170588E0,-8.540652692E-3,-6.183096394E-2,1.446222235E-2,6.407157502E-2
2.663616370E0,-1.037324686E-2,-6.427442282E-2,1.324049290E-2,6.643881646E-2
2.666061422E0,-1.098411158E-2,-6.732874364E-2,1.140789874E-2,6.916610861E-2
2.668505640E0,-1.220584102E-2,-6.916134804E-2,1.018616930E-2,7.096501013E-2
2.670950692E0,-1.159497630E-2,-7.099393755E-2,8.964439854E-3,7.249099135E-2
2.673396526E0,-1.281670574E-2,-6.977220625E-2,8.353575133E-3,7.142976220E-2
2.675841526E0,-1.220584102E-2,-6.977220625E-2,7.131845690E-3,7.118993287E-2
2.678285797E0,-1.403843518E-2,-6.855047494E-2,6.520980969E-3,7.027637206E-2
2.680730797E0,-1.648189314E-2,-6.549615413E-2,5.910116248E-3,6.779622763E-2
2.683176630E0,-1.648189314E-2,-6.305269152E-2,4.077522084E-3,6.529870516E-2
2.685621630E0,-1.526016463E-2,-6.244182959E-2,2.244927920E-3,6.431869408E-2
2.688065901E0,-1.587102748E-2,-6.122009829E-2,1.634063199E-3,6.326499909E-2
2.690510901E0,-1.648189314E-2,-6.060923263E-2,-1.985309646E-4,6.281059860E-2
2.692956734E0,-1.648189314E-2,-6.122009829E-2,-8.093961515E-4,6.340511303E-2
2.695401786E0,-1.709275879E-2,-6.122009829E-2,-8.093961515E-4,6.356664188E-2
2.697846005E0,-1.587102748E-2,-6.122009829E-2,-1.420259941E-3,6.325983786E-2
2.700291057E0,-1.464930084E-2,-6.060923263E-2,-3.252855036E-3,6.243926778E-2
2.702736838E0,-1.464930084E-2,-5.999836698E-2,-1.420259941E-3,6.177720610E-2
2.705181890E0,-1.403843518E-2,-5.511144921E-2,-2.641989384E-3,5.693267607E-2
2.707626109E0,-1.281670574E-2,-5.022453144E-2,-1.420259941E-3,5.185353067E-2
2.710071161E0,-1.281670574E-2,-4.533761367E-2,1.023198478E-3,4.712551426E-2
2.712516942E0,-9.762382135E-3,-3.922896832E-2,-8.093961515E-4,4.043354032E-2
2.714961995E0,-8.540652692E-3,-3.067686222E-2,4.123337567E-4,3.184623437E-2
2.717406213E0,-7.318923250E-3,-2.640080824E-2,-8.093961515E-4,2.740847379E-2
2.719851265E0,-6.708058529E-3,-2.151389048E-2,1.634063199E-3,2.259459438E-2
2.722297099E0,-3.653734690E-3,-1.845956780E-2,1.634063199E-3,1.888850399E-2
2.724742099E0,-3.653734690E-3,-1.357265096E-2,2.855792642E-3,1.434301861E-2
2.727186317E0,-1.210275805E-3,-1.296178717E-2,2.855792642E-3,1.332772471E-2
2.729631370E0,6.223183591E-4,-1.235092152E-2,1.634063199E-3,1.247408133E-2
2.732077203E0,1.844047802E-3,-1.418351475E-2,1.634063199E-3,1.439592878E-2
2.734522203E0,3.676641965E-3,-1.418351475E-2,4.123337567E-4,1.465809694E-2
2.736966474E0,7.341830060E-3,-1.418351475E-2,4.123337567E-4,1.597637564E-2
2.739411474E0,8.563559502E-3,-1.540524606E-2,-1.420259941E-3,1.768257039E-2
2.741857307E0,1.039615367E-2,-1.845956780E-2,-1.420259941E-3,2.123329444E-2
2.744302359E0,1.039615367E-2,-2.090302669E-2,-2.031125594E-3,2.343377918E-2
2.746746578E0,1.345047727E-2,-2.334648557E-2,-2.641989384E-3,2.707312016E-2
2.749191578E0,1.406134106E-2,-2.701167390E-2,-3.252855036E-3,3.062569028E-2
2.751637411E0,1.589393616E-2,-3.006599844E-2,-6.307177711E-3,3.458846570E-2
2.754082463E0,1.711566560E-2,-3.373118490E-2,-6.918043364E-3,3.845254436E-2
2.756526682E0,1.955912448E-2,-3.556377813E-2,-7.528907154E-3,4.127985112E-2
2.758971682E0,2.322431467E-2,-3.922896832E-2,-1.058323123E-2,4.680048644E-2
2.761417567E0,2.444604225E-2,-4.289415851E-2,-1.058323123E-2,5.049279750E-2
2.763862567E0,2.750036679E-2,-4.350502044E-2,-1.180496067E-2,5.280448914E-2
2.766306786E0,2.994382568E-2,-4.778107628E-2,-1.363755390E-2,5.801419502E-2
2.768751838E0,3.177642077E-2,-5.144626275E-2,-1.424841955E-2,6.212468372E-2
2.771197672E0,3.177642077E-2,-5.511144921E-2,-1.363755390E-2,6.506147576E-2
2.773642672E0,3.483074531E-2,-6.060923263E-2,-1.302669011E-2,7.110804845E-2
2.776086942E0,3.727420419E-2,-6.610701978E-2,-1.608101279E-2,7.757643544E-2
2.778531942E0,3.849593550E-2,-7.160480320E-2,-1.669187844E-2,8.299279305E-2
2.780977776E0,4.032852873E-2,-7.465913147E-2,-1.669187844E-2,8.648118262E-2
2.783422776E0,4.277198762E-2,-8.015690744E-2,-1.791360788E-2,9.260383406E-2
2.785867047E0,4.460458085E-2,-8.443296701E-2,-1.852447167E-2,9.727101624E-2
2.788312047E0,4.704803973E-2,-8.748728782E-2,-1.974620298E-2,1.012791000E-1
2.790757880E0,5.071322620E-2,-8.993074298E-2,-2.035706677E-2,1.052320294E-1
2.793202932E0,5.498928204E-2,-9.054160863E-2,-2.035706677E-2,1.078703583E-1
2.795647151E0,5.865446851E-2,-8.931987733E-2,-2.218966186E-2,1.091364662E-1
2.798092151E0,6.354138255E-2,-8.687641472E-2,-2.218966186E-2,1.098972239E-1
2.800537984E0,6.720657647E-2,-8.443296701E-2,-2.218966186E-2,1.101727323E-1
2.802983036E0,7.087176293E-2,-8.321123570E-2,-2.463311888E-2,1.120433268E-1
2.805427255E0,7.392609119E-2,-7.893518358E-2,-2.524398454E-2,1.110544413E-1
2.807872307E0,7.636954635E-2,-7.465913147E-2,-2.524398454E-2,1.097431195E-1
2.810318088E0,8.125646412E-2,-6.793961674E-2,-2.768744342E-2,1.094760202E-1
2.812763140E0,8.492165059E-2,-6.305269152E-2,-2.829830535E-2,1.094902860E-1
2.815207359E0,8.858683705E-2,-5.877663940E-2,-3.013090231E-2,1.104997390E-1
2.817652411E0,9.347376227E-2,-5.327885598E-2,-3.074176423E-2,1.118974387E-1
2.820098245E0,9.591721743E-2,-5.144626275E-2,-3.257435933E-2,1.136130249E-1
2.822543245E0,9.836067259E-2,-4.839193821E-2,-3.562868387E-2,1.152649327E-1
2.824987463E0,1.026367322E-1,-4.961366951E-2,-3.685041517E-2,1.198072122E-1
2.827432515E0,1.038584560E-1,-5.022453144E-2,-3.929387406E-2,1.218732579E-1
2.829878349E0,1.075236499E-1,-5.205712840E-2,-4.234819487E-2,1.267463985E-1
2.832323349E0,1.105779707E-1,-5.511144921E-2,-4.418079183E-2,1.312124301E-1
2.834767620E0,1.136322916E-1,-5.999836698E-2,-4.662425071E-2,1.366964611E-1
2.837212620E0,1.148540229E-1,-6.488528848E-2,-4.906770959E-2,1.407451148E-1
2.839658453E0,1.160757542E-1,-7.404825836E-2,-5.151116848E-2,1.470038290E-1
2.842103505E0,1.203518063E-1,-8.260036260E-2,-5.456549302E-2,1.558357154E-1
2.844547724E0,1.215735376E-1,-8.993074298E-2,-5.700895190E-2,1.616096661E-1
2.846992724E0,1.258495897E-1,-9.848285466E-2,-5.700895190E-2,1.696673583E-1
2.849438557E0,1.289039105E-1,-1.033697650E-1,-5.884154886E-2,1.753962780E-1
2.851883609E0,1.319582313E-1,-1.100892797E-1,-6.189586967E-2,1.826573924E-1
2.854327828E0,1.368451566E-1,-1.125327423E-1,-6.372846663E-2,1.882857733E-1
2.856772828E0,1.380668879E-1,-1.149762049E-1,-6.495019794E-2,1.910510964E-1
2.859218661E0,1.417320669E-1,-1.174196526E-1,-6.617192179E-2,1.955864945E-1
2.861663713E0,1.435646713E-1,-1.186413839E-1,-6.800451875E-2,1.982705409E-1
2.864107932E0,1.466189921E-1,-1.198631153E-1,-7.044798136E-2,2.020574505E-1
2.866552984E0,1.478407234E-1,-1.210848466E-1,-7.228057086E-2,2.043107939E-1
2.868998765E0,1.527276337E-1,-1.229174361E-1,-7.350230217E-2,2.093729080E-1
2.871443817E0,1.582254171E-1,-1.253608912E-1,-7.594575733E-2,2.156812318E-1
2.873888036E0,1.655557901E-1,-1.278043538E-1,-7.838921994E-2,2.233551931E-1
2.876333088E0,1.728861779E-1,-1.314695328E-1,-7.961095124E-2,2.313261164E-1
2.878778922E0,1.832708716E-1,-1.375781894E-1,-8.205440640E-2,2.434109615E-1
2.881223922E0,1.918229759E-1,-1.449085623E-1,-8.633045852E-2,2.554358894E-1
2.883668192E0,2.034294158E-1,-1.565149873E-1,-8.755218983E-2,2.711933894E-1
2.886113192E0,2.156466991E-1,-1.693431586E-1,-8.938478678E-2,2.883925178E-1
2.888559026E0,2.272531390E-1,-1.815604419E-1,-9.243910760E-2,3.052100455E-1
2.891004026E0,2.382486910E-1,-1.943886131E-1,-9.488256276E-2,3.217950782E-1
2.893448297E0,2.504659891E-1,-2.023298442E-1,-9.793689102E-2,3.365445174E-1
2.895893297E0,2.596289515E-1,-2.059950382E-1,-9.854775667E-2,3.457640938E-1
2.898339130E0,2.730679810E-1,-2.084385008E-1,-1.016020775E-1,3.582397423E-1
2.900784182E0,2.834526598E-1,-2.078276277E-1,-1.046563983E-1,3.667297300E-1
2.903228401E0,2.944482267E-1,-2.053841650E-1,-1.058781296E-1,3.742894492E-1
2.905673401E0,3.042220771E-1,-1.998863965E-1,-1.095433235E-1,3.801386372E-1
2.908119234E0,3.146067858E-1,-1.986646652E-1,-1.132085100E-1,3.889231873E-1
2.910564286E0,3.213262856E-1,-1.992755234E-1,-1.162628308E-1,3.955734595E-1
2.913008505E0,3.274349272E-1,-2.004972547E-1,-1.199280098E-1,4.022381238E-1
2.915453557E0,3.323218524E-1,-2.035515755E-1,-1.254257858E-1,4.093930694E-1
2.917899390E0,3.359870315E-1,-2.108819485E-1,-1.284801066E-1,4.169719646E-1
2.920344390E0,3.402630985E-1,-2.182123363E-1,-1.333670318E-1,4.256552185E-1
2.922788609E0,3.463717401E-1,-2.261535674E-1,-1.382539421E-1,4.361570485E-1
2.925233661E0,3.537021279E-1,-2.304296196E-1,-1.419191360E-1,4.453583344E-1
2.927679495E0,3.604216278E-1,-2.359274030E-1,-1.461951882E-1,4.549049596E-1
2.930124495E0,3.708063364E-1,-2.402034551E-1,-1.486386508E-1,4.661421322E-1
2.932568765E0,3.805801570E-1,-2.438686490E-1,-1.504712403E-1,4.763976995E-1
2.935013765E0,3.927974701E-1,-2.469229698E-1,-1.523038298E-1,4.883208598E-1
2.937459599E0,4.050147533E-1,-2.493664324E-1,-1.541364342E-1,4.999786079E-1
2.939904599E0,4.153994620E-1,-2.542533576E-1,-1.535255611E-1,5.106579881E-1
2.942348870E0,4.263950288E-1,-2.585293949E-1,-1.516929716E-1,5.212110189E-1
2.944793870E0,4.404449165E-1,-2.634163201E-1,-1.504712403E-1,5.348097571E-1
2.947239703E0,4.532730579E-1,-2.719684243E-1,-1.480277777E-1,5.489403536E-1
2.949684755E0,4.667120874E-1,-2.805205286E-1,-1.437517256E-1,5.631842488E-1
2.952128974E0,4.807619750E-1,-2.927378416E-1,-1.388648152E-1,5.797507719E-1
2.954573974E0,4.966444671E-1,-3.055659831E-1,-1.333670318E-1,5.981747754E-1
2.957019807E0,5.131378174E-1,-3.214484751E-1,-1.278692484E-1,6.188619284E-1
2.959464859E0,5.290203094E-1,-3.428287208E-1,-1.217606142E-1,6.420433527E-1
2.961909078E0,5.461245179E-1,-3.648198545E-1,-1.156519651E-1,6.668739704E-1
2.964354130E0,5.650613308E-1,-3.941413760E-1,-1.089324579E-1,6.975012632E-1
2.966799911E0,5.864415765E-1,-4.277389348E-1,-1.028238088E-1,7.331078056E-1
2.969244963E0,6.102653146E-1,-4.680559933E-1,-9.732602537E-2,7.752241755E-1
2.971689182E0,6.359215975E-1,-5.077621937E-1,-9.243910760E-2,8.190016557E-1
2.974134234E0,6.615779400E-1,-5.486901402E-1,-8.633045852E-2,8.638282172E-1
2.976580067E0,6.896777153E-1,-5.914506912E-1,-8.144354075E-2,9.121964270E-1
2.979025067E0,7.214426994E-1,-6.336003542E-1,-7.777835429E-2,9.633163809E-1
2.981469338E0,7.532076240E-1,-6.714739799E-1,-7.533489168E-2,1.011866778E0
2.983914338E0,7.874160409E-1,-7.056823969E-1,-7.166970521E-2,1.059786872E0
2.986360172E0,8.210136294E-1,-7.398908138E-1,-7.044798136E-2,1.107458674E0
2.988805172E0,8.552220464E-1,-7.692123055E-1,-6.983711571E-2,1.152375608E0
2.991249442E0,8.906521797E-1,-7.948686481E-1,-7.166970521E-2,1.195915557E0
2.993694442E0,9.242497683E-1,-8.186923265E-1,-7.411316782E-2,1.236926643E0
2.996140276E0,9.560147524E-1,-8.419052362E-1,-7.777835429E-2,1.276251584E0
2.998585328E0,9.871688485E-1,-8.663398027E-1,-8.266527206E-2,1.316009322E0
3.001029547E0,1.018933892E0,-8.871092200E-1,-8.816305548E-2,1.353869185E0
3.003474547E0,1.051309705E0,-9.078785777E-1,-9.427170455E-2,1.392258152E0
3.005920380E0,1.082463741E0,-9.268153906E-1,-1.003803462E-1,1.428562471E0
3.008365432E0,1.114839673E0,-9.451413751E-1,-1.058781296E-1,1.465390697E0
3.010809651E0,1.145382881E0,-9.622455835E-1,-1.119867787E-1,1.500119844E0
3.013254703E0,1.176536918E0,-9.799606204E-1,-1.174845621E-1,1.535696766E0
3.015700484E0,1.205858469E0,-9.976757169E-1,-1.229823455E-1,1.569896857E0
3.018145536E0,1.236401677E0,-1.017223358E0,-1.284801066E-1,1.606219040E0
3.020589755E0,1.268777490E0,-1.034938455E0,-1.339778900E-1,1.642815875E0
3.023034807E0,1.301153302E0,-1.055096984E0,-1.388648152E-1,1.680926232E0
3.025480640E0,1.332918286E0,-1.074644685E0,-1.437517256E-1,1.718195831E0
3.027925640E0,1.365905046E0,-1.094192386E0,-1.486386508E-1,1.756430193E0
3.030369859E0,1.400113463E0,-1.111907363E0,-1.535255611E-1,1.794498758E0
3.032814911E0,1.431878448E0,-1.129622459E0,-1.584124863E-1,1.830687659E0
3.035260745E0,1.463643432E0,-1.147948384E0,-1.632993966E-1,1.867271882E0
3.037705745E0,1.495408297E0,-1.162609220E0,-1.669645905E-1,1.901521324E0
3.040150015E0,1.527784109E0,-1.180935144E0,-1.706297696E-1,1.938516602E0
3.042595015E0,1.557716489E0,-1.201093674E0,-1.730732322E-1,1.974604015E0
3.045040849E0,1.587038040E0,-1.221863031E0,-1.749058366E-1,2.010530045E0
3.047485849E0,1.615137815E0,-1.246297598E0,-1.767384261E-1,2.047721743E0
3.049930120E0,1.642015815E0,-1.271343112E0,-1.779601574E-1,2.084274229E0
3.052375120E0,1.666450500E0,-1.295777678E0,-1.791818887E-1,2.118537989E0
3.054820953E0,1.691495895E0,-1.322655797E0,-1.828470677E-1,2.154996467E0
3.057266005E0,1.715319633E0,-1.348922968E0,-1.852905303E-1,2.190033607E0
3.059710224E0,1.741586804E0,-1.374579191E0,-1.883448511E-1,2.226671582E0
3.062155276E0,1.766632318E0,-1.399624705E0,-1.907883137E-1,2.261932635E0
3.064601057E0,1.789234281E0,-1.421615839E0,-1.950643659E-1,2.293556411E0
3.067046109E0,1.813058019E0,-1.440552592E0,-1.993404180E-1,2.324243480E0
3.069490328E0,1.834438205E0,-1.453380823E0,-2.042273432E-1,2.349295246E0
3.071935380E0,1.853375077E0,-1.461932898E0,-2.085033953E-1,2.369751177E0
3.074381213E0,1.870479226E0,-1.466819763E0,-2.133903056E-1,2.386585045E0
3.076826213E0,1.886972666E0,-1.464987278E0,-2.188880891E-1,2.398909244E0
3.079270432E0,1.904687643E0,-1.461322069E0,-2.256076038E-1,2.411264398E0
3.081715484E0,1.922402740E0,-1.455824256E0,-2.335488498E-1,2.422726073E0
3.084161317E0,1.938896179E0,-1.448493838E0,-2.414900810E-1,2.432235649E0
3.086606317E0,1.955389500E0,-1.439941764E0,-2.494313419E-1,2.441146528E0
3.089050588E0,1.974326253E0,-1.434443951E0,-2.598160207E-1,2.454200066E0
3.091495588E0,1.992041349E0,-1.427724481E0,-2.720333338E-1,2.465892955E0
3.093941422E0,2.007923603E0,-1.424670100E0,-2.836397588E-1,2.478284407E0
3.096386422E0,2.023195267E0,-1.424670100E0,-2.940244377E-1,2.491877676E0
3.098830692E0,2.039688587E0,-1.429557085E0,-3.056308925E-1,2.509456761E0
3.101275692E0,2.053127527E0,-1.441163540E0,-3.172373176E-1,2.528423324E0
3.103721526E0,2.065344810E0,-1.453991652E0,-3.294546008E-1,2.547210483E0
3.106166578E0,2.078783989E0,-1.472317576E0,-3.410610259E-1,2.570094267E0
3.108610797E0,2.092222929E0,-1.493087053E0,-3.490022719E-1,2.593936838E0
3.111055797E0,2.102607727E0,-1.513245583E0,-3.599978387E-1,2.615429198E0
3.113501630E0,2.116046667E0,-1.535236716E0,-3.667173386E-1,2.639902816E0
3.115946682E0,2.128263950E0,-1.554784298E0,-3.746585846E-1,2.662185326E0
3.118390901E0,2.141702890E0,-1.574331999E0,-3.807672262E-1,2.685218091E0
3.120835953E0,2.153309345E0,-1.587771058E0,-3.887084723E-1,2.703488921E0
3.123281786E0,2.166137457E0,-1.599377513E0,-3.954280019E-1,2.721492829E0
3.125726786E0,2.179576635E0,-1.607318759E0,-4.021475017E-1,2.737836831E0
3.128171005E0,2.193015575E0,-1.610983849E0,-4.088670313E-1,2.751682853E0
3.130616057E0,2.204011202E0,-1.609151244E0,-4.180299938E-1,2.760757537E0
3.133061890E0,2.215617657E0,-1.603653550E0,-4.253603518E-1,2.767959129E0
3.135506890E0,2.227224112E0,-1.590825319E0,-4.345233440E-1,2.771292654E0
3.137951161E0,2.238830566E0,-1.571277738E0,-4.455189109E-1,2.771238556E0
3.140396161E0,2.251047850E0,-1.548675656E0,-4.589579105E-1,2.770605543E0
3.142841995E0,2.258989096E0,-1.521186829E0,-4.748404026E-1,2.764509814E0
3.145286995E0,2.266319275E0,-1.494919658E0,-4.919446111E-1,2.759166059E0
3.147731265E0,2.274260521E0,-1.473539352E0,-5.084379911E-1,2.757188483E0
3.150176265E0,2.279758453E0,-1.452769876E0,-5.285965204E-1,2.754496905E0
3.152622099E0,2.284645319E0,-1.434443951E0,-5.481441617E-1,2.752761469E0
3.155067151E0,2.288921356E0,-1.422837615E0,-5.701352954E-1,2.754756270E0
3.157511370E0,2.295030117E0,-1.410009384E0,-5.939590335E-1,2.758274286E0
3.159956370E0,2.300527811E0,-1.397181273E0,-6.171718836E-1,2.761420803E0
3.162402203E0,2.306636333E0,-1.389240026E0,-6.403847337E-1,2.767788220E0
3.164847255E0,2.311523438E0,-1.383131385E0,-6.654301882E-1,2.774705456E0
3.167291474E0,2.317631960E0,-1.380077004E0,-6.910865307E-1,2.784534258E0
3.169736526E0,2.321907997E0,-1.378855348E0,-7.149102688E-1,2.793491634E0
3.172182307E0,2.328016758E0,-1.379466176E0,-7.381231189E-1,2.804891209E0
3.174627359E0,2.332903624E0,-1.382520437E0,-7.619467974E-1,2.816800490E0
3.177071578E0,2.337790489E0,-1.388018250E0,-7.833271027E-1,2.829392229E0
3.179516630E0,2.347564459E0,-1.392905235E0,-8.040965199E-1,2.845666020E0
3.181962463E0,2.346342564E0,-1.402068138E0,-8.260875940E-1,2.855440282E0
3.184407463E0,2.354283810E0,-1.405733347E0,-8.462461829E-1,2.869646512E0
3.186851682E0,2.354894876E0,-1.414285421E0,-8.651829362E-1,2.879978237E0
3.189296734E0,2.357338190E0,-1.414285421E0,-8.841197491E-1,2.887717840E0
3.191742567E0,2.358559847E0,-1.416118026E0,-9.018348455E-1,2.895082193E0
3.194187567E0,2.358559847E0,-1.411841989E0,-9.207716584E-1,2.898952017E0
3.196631838E0,2.362836123E0,-1.407565951E0,-9.372649789E-1,2.905632821E0
3.199076838E0,2.359781742E0,-1.401457310E0,-9.543691874E-1,2.905765477E0
3.201522672E0,2.364057779E0,-1.389850855E0,-9.702516794E-1,2.908924699E0
3.203967724E0,2.357949018E0,-1.380077004E0,-9.873558879E-1,2.905065879E0
3.206411942E0,2.358559847E0,-1.369081497E0,-1.003849387E0,2.906011406E0
3.208856942E0,2.352451324E0,-1.362361908E0,-1.022786140E0,2.904504896E0
3.211302776E0,2.349396944E0,-1.352588177E0,-1.039890409E0,2.903537986E0
3.213747828E0,2.342677355E0,-1.344035983E0,-1.057605505E0,2.900534316E0
3.216192047E0,2.334125280E0,-1.334873080E0,-1.077153087E0,2.896598995E0
3.218637099E0,2.329849243E0,-1.326320887E0,-1.094868183E0,2.895869633E0
3.221082880E0,2.319464684E0,-1.322655797E0,-1.115637660E0,2.893783365E0
3.223527932E0,2.313355923E0,-1.320823193E0,-1.135796189E0,2.895897532E0
3.225972151E0,2.300527811E0,-1.327542663E0,-1.157176375E0,2.897215024E0
3.228417203E0,2.294419050E0,-1.333651304E0,-1.178556681E0,2.903787256E0
3.230863036E0,2.281590939E0,-1.350144625E0,-1.198715210E0,2.909547366E0
3.233308036E0,2.276093245E0,-1.364194512E0,-1.220095515E0,2.920660917E0
3.235752255E0,2.268151999E0,-1.383131385E0,-1.240864873E0,2.932117247E0
3.238197307E0,2.260821581E0,-1.400235534E0,-1.262245178E0,2.943677404E0
3.240643140E0,2.257767200E0,-1.414285421E0,-1.283014536E0,2.956998864E0
3.243088140E0,2.251047850E0,-1.432000518E0,-1.302562237E0,2.968924096E0
3.245532411E0,2.252269506E0,-1.442996144E0,-1.323942542E0,2.984590367E0
3.247977411E0,2.243717432E0,-1.458878636E0,-1.344101071E0,2.994862681E0
3.250423245E0,2.242495537E0,-1.466819763E0,-1.363037825E0,3.006363012E0
3.252868297E0,2.236387014E0,-1.477204561E0,-1.383196354E0,3.016088916E0
3.255312515E0,2.235776186E0,-1.480869770E0,-1.402133226E0,3.026160606E0
3.257757515E0,2.230889320E0,-1.484534860E0,-1.419848204E0,3.032602815E0
3.260203349E0,2.226613283E0,-1.483313203E0,-1.436952472E0,3.036915734E0
3.262648401E0,2.224169731E0,-1.475982785E0,-1.453445792E0,3.039401396E0
3.265092620E0,2.214395761E0,-1.463765502E0,-1.469328284E0,3.033988075E0
3.267537672E0,2.217450142E0,-1.444217801E0,-1.485210776E0,3.034584195E0
3.269983453E0,2.211341619E0,-1.422226667E0,-1.501093268E0,3.027547102E0
3.272428505E0,2.211341619E0,-1.389850855E0,-1.515143156E0,3.019499286E0
3.274872724E0,2.207676411E0,-1.358085871E0,-1.529193044E0,3.009429137E0
3.277317776E0,2.204011202E0,-1.325099230E0,-1.548129797E0,3.001709382E0
3.279763609E0,2.198513508E0,-1.293334246E0,-1.564012289E0,2.992041035E0
3.282208609E0,2.194848299E0,-1.265234470E0,-1.579894781E0,2.985673264E0
3.284652828E0,2.188128710E0,-1.240188956E0,-1.596999049E0,2.979325739E0
3.287097880E0,2.180187464E0,-1.218808770E0,-1.613492370E0,2.973561807E0
3.289543713E0,2.172246218E0,-1.198650241E0,-1.629985690E0,2.968546678E0
3.291988713E0,2.161861420E0,-1.182156920E0,-1.647700787E0,2.964128483E0
3.294432984E0,2.151476860E0,-1.166885257E0,-1.664805055E0,2.960075971E0
3.296877984E0,2.141702890E0,-1.155278802E0,-1.681909204E0,2.958103945E0
3.299323817E0,2.131318331E0,-1.143672347E0,-1.697180867E0,2.954814235E0
3.301768870E0,2.121544361E0,-1.139396310E0,-1.714285016E0,2.956001953E0
3.304213088E0,2.111770630E0,-1.141839743E0,-1.728334904E0,2.958126896E0
3.306658088E0,2.100775003E0,-1.151002765E0,-1.742384791E0,2.962088409E0
3.309103922E0,2.092833757E0,-1.172993898E0,-1.757656455E0,2.974092136E0
3.311548974E0,2.083060026E0,-1.200482845E0,-1.770484567E0,2.985785280E0
3.313993192E0,2.073286057E0,-1.237134695E0,-1.782091022E0,3.000810846E0
3.316438192E0,2.065344810E0,-1.275008321E0,-1.794308305E0,3.018416422E0
3.318884026E0,2.053127527E0,-1.315936208E0,-1.805914760E0,3.034526135E0
3.321329078E0,2.045797110E0,-1.352588177E0,-1.816910267E0,3.052203058E0
3.323773297E0,2.034190893E0,-1.384353042E0,-1.827295065E0,3.064861039E0
3.326218349E0,2.020140886E0,-1.412452817E0,-1.838290572E0,3.074947868E0
3.328664182E0,2.006091118E0,-1.436887503E0,-1.849897027E0,3.084017879E0
3.331109182E0,1.990819573E0,-1.458267689E0,-1.861503482E0,3.091132873E0
3.333553401E0,1.975548029E0,-1.479037166E0,-1.873720765E0,3.098575553E0
3.335998453E0,1.959665537E0,-1.497973919E0,-1.887770653E0,3.106105748E0
3.338444286E0,1.944393873E0,-1.513856411E0,-1.903042197E0,3.113518648E0
3.340889286E0,1.930343986E0,-1.527295470E0,-1.918313861E0,3.120703034E0
3.343333557E0,1.915072441E0,-1.538901806E0,-1.932974577E0,3.126037738E0
3.345778557E0,1.900411606E0,-1.548675656E0,-1.950078845E0,3.132533809E0
3.348224390E0,1.882085681E0,-1.556616902E0,-1.967182994E0,3.136098153E0
3.350669390E0,1.866814137E0,-1.566390753E0,-1.986119866E0,3.143763212E0
3.353113661E0,1.851542473E0,-1.573110342E0,-2.003834963E0,3.149323774E0
3.355558661E0,1.838103414E0,-1.578608036E0,-2.022771835E0,3.156300586E0
3.358004495E0,1.822831869E0,-1.580440640E0,-2.040486813E0,3.159761870E0
3.360449547E0,1.809392810E0,-1.580440640E0,-2.060034513E0,3.164717547E0
3.362893765E0,1.796564698E0,-1.576164603E0,-2.078360319E0,3.167257676E0
3.365338817E0,1.784958243E0,-1.570055962E0,-2.096686363E0,3.169739005E0
3.367784599E0,1.771519184E0,-1.560282111E0,-2.114401340E0,3.169140816E0
3.370229651E0,1.759912729E0,-1.548675656E0,-2.131505728E0,3.168439012E0
3.372673870E0,1.747084618E0,-1.538290977E0,-2.147388220E0,3.167004888E0
3.375118922E0,1.731812954E0,-1.526684523E0,-2.163881540E0,3.164225823E0
3.377564755E0,1.718374014E0,-1.518132448E0,-2.179153204E0,3.163264780E0
3.380009755E0,1.702491522E0,-1.515078187E0,-2.194424629E0,3.163769705E0
3.382453974E0,1.689663291E0,-1.513245583E0,-2.207863808E0,3.165365196E0
3.384899026E0,1.673169971E0,-1.514467239E0,-2.219470263E0,3.165305201E0
3.387344859E0,1.656676650E0,-1.513856411E0,-2.231076717E0,3.164497128E0
3.389789859E0,1.640183330E0,-1.514467239E0,-2.242072105E0,3.163968979E0
3.392234130E0,1.624911666E0,-1.508969545E0,-2.251235247E0,3.159966320E0
3.394679130E0,1.609640002E0,-1.501028299E0,-2.260398149E0,3.154905179E0
3.397124963E0,1.593757510E0,-1.487589240E0,-2.271393776E0,3.148366947E0
3.399569963E0,1.577875018E0,-1.471095920E0,-2.279335022E0,3.138340472E0
3.402014234E0,1.564436078E0,-1.450937390E0,-2.285443544E0,3.126648645E0
3.404459234E0,1.550386190E0,-1.428946257E0,-2.291552305E0,3.113968001E0
3.406905067E0,1.536947131E0,-1.411231160E0,-2.298882484E0,3.104616007E0
3.409350120E0,1.524729848E0,-1.392905235E0,-2.304380417E0,3.094374769E0
3.411794338E0,1.511290789E0,-1.379466176E0,-2.306823730E0,3.083563280E0
3.414239390E0,1.496019244E0,-1.367248893E0,-2.309878111E0,3.072943215E0
3.416685172E0,1.477082372E0,-1.358085871E0,-2.312321663E0,3.061535732E0
3.419130224E0,1.459367275E0,-1.354420662E0,-2.313543320E0,3.052325485E0
3.421574442E0,1.438597918E0,-1.354420662E0,-2.312932491E0,3.041985537E0
3.424019495E0,1.415995955E0,-1.355031610E0,-2.310488939E0,3.029771336E0
3.426465276E0,1.393393874E0,-1.359307647E0,-2.306823730E0,3.018393528E0
3.428910328E0,1.370791912E0,-1.369081497E0,-2.303158522E0,3.009650111E0
3.431354547E0,1.349411726E0,-1.381298780E0,-2.295828342E0,2.999954350E0
3.433799599E0,1.329864025E0,-1.397181273E0,-2.290941238E0,2.994839827E0
3.436245432E0,1.310316324E0,-1.417950630E0,-2.284832716E0,2.991316332E0
3.438690432E0,1.290768623E0,-1.438109159E0,-2.279945850E0,2.988711206E0
3.441134703E0,1.272442698E0,-1.458878636E0,-2.272615433E0,2.985333851E0
3.443579703E0,1.251673341E0,-1.479647994E0,-2.267728567E0,2.983058362E0
3.446025536E0,1.232125640E0,-1.497973919E0,-2.265285015E0,2.982209861E0
3.448470536E0,1.214410543E0,-1.512023807E0,-2.261008978E0,2.978786759E0
3.450914807E0,1.194252014E0,-1.522408485E0,-2.257343769E0,2.973140824E0
3.453359807E0,1.177758694E0,-1.526073694E0,-2.256732941E0,2.967972376E0
3.455805640E0,1.161265373E0,-1.524241090E0,-2.251846075E0,2.956798761E0
3.458250692E0,1.142939448E0,-1.515689015E0,-2.250624180E0,2.944305177E0
3.460694911E0,1.125224352E0,-1.497973919E0,-2.249402523E0,2.927433588E0
3.463139963E0,1.108120084E0,-1.477815390E0,-2.248791695E0,2.910143043E0
3.465585745E0,1.092848539E0,-1.455824256E0,-2.248180866E0,2.892759824E0
3.468030797E0,1.076355100E0,-1.435054898E0,-2.248180866E0,2.876150217E0
3.470475015E0,1.059861779E0,-1.414285421E0,-2.249402523E0,2.860650617E0
3.472920067E0,1.042757630E0,-1.393516064E0,-2.249402523E0,2.844124154E0
3.475365849E0,1.026264191E0,-1.371524930E0,-2.251846075E0,2.829330233E0
3.477810901E0,1.008549213E0,-1.348312020E0,-2.254900217E0,2.814194700E0
3.480255120E0,9.896122813E-1,-1.323266625E0,-2.257954597E0,2.797986060E0
3.482700172E0,9.712863564E-1,-1.298832059E0,-2.260398149E0,2.782042720E0
3.485146005E0,9.523495436E-1,-1.271343112E0,-2.264674187E0,2.766230673E0
3.487591005E0,9.309692979E-1,-1.244465113E0,-2.267728567E0,2.749179897E0
3.490035276E0,9.095889926E-1,-1.219419599E0,-2.272004604E0,2.734289892E0
3.492480276E0,8.869870305E-1,-1.194985032E0,-2.275058746E0,2.718570860E0
3.494926109E0,8.649958968E-1,-1.173604727E0,-2.276280642E0,2.703149925E0
3.497371109E0,8.430047631E-1,-1.156500578E0,-2.278113127E0,2.690343851E0
3.499815380E0,8.191810250E-1,-1.141228914E0,-2.278113127E0,2.676426798E0
3.502260380E0,7.990224957E-1,-1.130233407E0,-2.276280642E0,2.664079215E0
3.504706213E0,7.776422501E-1,-1.118626952E0,-2.274447918E0,2.651257637E0
3.507151265E0,7.580945492E-1,-1.109463930E0,-2.270171881E0,2.638048128E0
3.509595484E0,7.416012287E-1,-1.096024990E0,-2.265285015E0,2.623501355E0
3.512040484E0,7.238861322E-1,-1.077698946E0,-2.259176493E0,2.605633239E0
3.514486317E0,7.067819238E-1,-1.053264380E0,-2.251235247E0,2.583982716E0
3.516931370E0,6.902886033E-1,-1.027608156E0,-2.242072105E0,2.561125574E0
3.519375588E0,6.750169396E-1,-9.946213961E-1,-2.231687546E0,2.534827192E0
3.521820640E0,6.603562236E-1,-9.567477703E-1,-2.222524405E0,2.508196836E0
3.524266422E0,6.481389403E-1,-9.164307117E-1,-2.210917950E0,2.479533729E0
3.526711474E0,6.389759183E-1,-8.718375564E-1,-2.202365875E0,2.453325579E0
3.529155692E0,6.304238439E-1,-8.266335726E-1,-2.190148592E0,2.424357264E0
3.531600745E0,6.237043142E-1,-7.832621932E-1,-2.181596518E0,2.400389573E0
3.534046578E0,6.194282770E-1,-7.423342466E-1,-2.171211958E0,2.376744179E0
3.536491578E0,6.163739562E-1,-7.069041133E-1,-2.161437988E0,2.356150347E0
3.538935849E0,6.133196354E-1,-6.763608456E-1,-2.153496742E0,2.339053909E0
3.541380849E0,6.102653146E-1,-6.519262791E-1,-2.141890287E0,2.320587346E0
3.543826682E0,6.047675014E-1,-6.336003542E-1,-2.130894899E0,2.303889366E0
3.546271682E0,5.968262553E-1,-6.238265038E-1,-2.119288445E0,2.288393453E0
3.548715953E0,5.894958973E-1,-6.183287501E-1,-2.104016781E0,2.270841798E0
3.551160953E0,5.809437633E-1,-6.164961457E-1,-2.090577602E0,2.255676809E0
3.553606786E0,5.705590844E-1,-6.207721829E-1,-2.074695349E0,2.239476850E0
3.556051838E0,5.583418012E-1,-6.250482202E-1,-2.058201790E0,2.222301836E0
3.558496057E0,5.485679507E-1,-6.329894662E-1,-2.042319298E0,2.207412643E0
3.560941057E0,5.351289511E-1,-6.445959210E-1,-2.025215149E0,2.191657659E0
3.563386890E0,5.204681754E-1,-6.568132043E-1,-2.007500172E0,2.175395975E0
3.565831942E0,5.070291758E-1,-6.720848083E-1,-1.991617680E0,2.162248264E0
3.568276161E0,4.929792583E-1,-6.873564124E-1,-1.976956844E0,2.150312943E0
3.570721213E0,4.795402586E-1,-7.032389045E-1,-1.964128733E0,2.140632032E0
3.573166995E0,4.642686248E-1,-7.160670757E-1,-1.951911449E0,2.130318220E0
3.575612047E0,4.471644163E-1,-7.288952470E-1,-1.939083219E0,2.119265917E0
3.578056265E0,4.318928123E-1,-7.392799258E-1,-1.929309487E0,2.110758467E0
3.580501317E0,4.129559994E-1,-7.453885674E-1,-1.918924689E0,2.099621094E0
3.582947151E0,3.946300447E-1,-7.484428883E-1,-1.907318354E0,2.086567260E0
3.585392151E0,3.756932318E-1,-7.502754927E-1,-1.898155332E0,2.075343919E0
3.587836370E0,3.579781651E-1,-7.545515299E-1,-1.888381481E0,2.064819846E0
3.590281422E0,3.390413523E-1,-7.582167387E-1,-1.877996802E0,2.053463818E0
3.592727255E0,3.182719648E-1,-7.655470967E-1,-1.867612123E0,2.043363513E0
3.595172255E0,2.987242937E-1,-7.759318352E-1,-1.855394840E0,2.033173979E0
3.597616526E0,2.803983390E-1,-7.857056856E-1,-1.844399214E0,2.024293732E0
3.600061526E0,2.626832724E-1,-7.979229689E-1,-1.830349326E0,2.013917134E0
3.602507359E0,2.455790788E-1,-8.101402521E-1,-1.816910267E0,2.004444868E0
3.604952411E0,2.321400493E-1,-8.180814981E-1,-1.802249551E0,1.992799484E0
3.607396630E0,2.187010199E-1,-8.217466474E-1,-1.786367059E0,1.978434977E0
3.609841630E0,2.077054679E-1,-8.217466474E-1,-1.769873738E0,1.962361374E0
3.612287463E0,2.003750801E-1,-8.168597817E-1,-1.753380418E0,1.944672971E0
3.614732515E0,1.918229759E-1,-8.064750433E-1,-1.736276150E0,1.924019989E0
3.617176734E0,1.857143342E-1,-7.912034392E-1,-1.722837210E0,1.904904393E0
3.619621786E0,1.814382821E-1,-7.753209472E-1,-1.708787322E0,1.885204640E0
3.622067567E0,1.747187674E-1,-7.557733059E-1,-1.695959091E0,1.864938920E0
3.624512620E0,1.679992527E-1,-7.362256050E-1,-1.685574412E0,1.847001080E0
3.626956838E0,1.594471484E-1,-7.130127549E-1,-1.675189734E0,1.827586174E0
3.629401890E0,1.496733129E-1,-6.885781884E-1,-1.669081092E0,1.811732241E0
3.631847724E0,1.380668879E-1,-6.635327339E-1,-1.659918070E0,1.792949010E0
3.634292724E0,1.289039105E-1,-6.384872794E-1,-1.655642033E0,1.779166312E0
3.636736942E0,1.203518063E-1,-6.116092205E-1,-1.650755167E0,1.764523453E0
3.639181995E0,1.130214334E-1,-5.871745944E-1,-1.647089958E0,1.752270864E0
3.641627828E0,1.105779707E-1,-5.670160651E-1,-1.642813921E0,1.741428231E0
3.644072828E0,1.099671051E-1,-5.499118567E-1,-1.638537765E0,1.731849249E0
3.646517099E0,1.099671051E-1,-5.376945734E-1,-1.633040071E0,1.722796590E0
3.648962099E0,1.130214334E-1,-5.279207230E-1,-1.625098825E0,1.712431115E0
3.651407932E0,1.117997020E-1,-5.218120813E-1,-1.617157578E0,1.702934425E0
3.653852932E0,1.087453738E-1,-5.199794769E-1,-1.608605504E0,1.694053093E0
3.656297203E0,1.038584560E-1,-5.150925517E-1,-1.594555616E0,1.678902775E0
3.658742203E0,9.713894874E-2,-5.120382309E-1,-1.582338214E0,1.665957187E0
3.661188036E0,8.797597885E-2,-5.138708353E-1,-1.567066669E0,1.651514746E0
3.663633088E0,7.575868070E-2,-5.144817233E-1,-1.553627610E0,1.638349649E0
3.666077307E0,6.109792739E-2,-5.181468725E-1,-1.538356066E0,1.624422520E0
3.668522359E0,4.460458085E-2,-5.266990066E-1,-1.521251798E0,1.610468393E0
3.670968140E0,2.811123244E-2,-5.364728570E-1,-1.504147530E0,1.597201665E0
3.673413192E0,1.100701839E-2,-5.486901402E-1,-1.485821605E0,1.583934300E0
3.675857411E0,-5.486329086E-3,-5.657943487E-1,-1.468106508E0,1.573369017E0
3.678302463E0,-2.197967656E-2,-5.828985572E-1,-1.451613188E0,1.564427909E0
3.680748297E0,-3.786215559E-2,-6.048896909E-1,-1.435119867E0,1.557849195E0
3.683193297E0,-5.252290890E-2,-6.250482202E-1,-1.416793942E0,1.549435061E0
3.685637515E0,-6.596193463E-2,-6.433742046E-1,-1.399689674E0,1.541886030E0
3.688082567E0,-7.940095663E-2,-6.580349207E-1,-1.383196354E0,1.533801363E0
3.690528401E0,-9.161825478E-2,-6.678087711E-1,-1.366703033E0,1.523889642E0
3.692973401E0,-1.020029485E-1,-6.763608456E-1,-1.350820541E0,1.514128373E0
3.695417672E0,-1.111659259E-1,-6.781934500E-1,-1.337381482E0,1.503626765E0
3.697862672E0,-1.184962988E-1,-6.763608456E-1,-1.322720766E0,1.490334054E0
3.700308505E0,-1.246049404E-1,-6.671978831E-1,-1.311114311E0,1.476380758E0
3.702753505E0,-1.288809925E-1,-6.549805999E-1,-1.300729632E0,1.462021707E0
3.705197776E0,-1.337679178E-1,-6.384872794E-1,-1.291566610E0,1.446963777E0
3.707642776E0,-1.349896491E-1,-6.171069741E-1,-1.283014536E0,1.430094235E0
3.710088609E0,-1.343787760E-1,-5.963376164E-1,-1.275684118E0,1.414583394E0
3.712533661E0,-1.325461864E-1,-5.706812739E-1,-1.271408081E0,1.399901467E0
3.714977880E0,-1.313244551E-1,-5.450249314E-1,-1.266521215E0,1.385053890E0
3.717422932E0,-1.294918656E-1,-5.187577605E-1,-1.261634231E0,1.370254972E0
3.719868713E0,-1.301027238E-1,-4.906579852E-1,-1.259801745E0,1.358223993E0
3.722313765E0,-1.319353282E-1,-4.613364935E-1,-1.257358193E0,1.345803818E0
3.724757984E0,-1.368222386E-1,-4.344584346E-1,-1.252471328E0,1.332726110E0
3.727203036E0,-1.435417533E-1,-4.142999053E-1,-1.249416947E0,1.324119086E0
3.729648870E0,-1.472069472E-1,-3.947522342E-1,-1.243308306E0,1.312750835E0
3.732093870E0,-1.527047306E-1,-3.813132048E-1,-1.237810612E0,1.304183118E0
3.734538088E0,-1.575916409E-1,-3.715393841E-1,-1.232312799E0,1.296715648E0
3.736983140E0,-1.618676931E-1,-3.617655337E-1,-1.223149776E0,1.285756908E0
3.739428974E0,-1.679763347E-1,-3.562677503E-1,-1.213986874E0,1.276286366E0
3.741873974E0,-1.722524017E-1,-3.507699668E-1,-1.202991247E0,1.264870903E0
3.744318245E0,-1.777501851E-1,-3.446613252E-1,-1.192606568E0,1.254072161E0
3.746763245E0,-1.838588268E-1,-3.373309374E-1,-1.181000113E0,1.241916864E0
3.749209078E0,-1.899674684E-1,-3.293897212E-1,-1.170004606E0,1.230242255E0
3.751654078E0,-1.972978562E-1,-3.190050125E-1,-1.159008980E0,1.218192291E0
3.754098349E0,-2.064608186E-1,-3.086203039E-1,-1.148013473E0,1.206568479E0
3.756543349E0,-2.137911916E-1,-2.970138788E-1,-1.137628794E0,1.195041083E0
3.758989182E0,-2.211215794E-1,-2.890726328E-1,-1.127243996E0,1.184540740E0
3.761434234E0,-2.266193479E-1,-2.792987823E-1,-1.119302750E0,1.175671206E0
3.763878453E0,-2.321171314E-1,-2.713575661E-1,-1.111361623E0,1.167320842E0
3.766323505E0,-2.370040566E-1,-2.652488947E-1,-1.104642034E0,1.160500720E0
3.768769286E0,-2.406692505E-1,-2.597511113E-1,-1.099144220E0,1.154777184E0
3.771214338E0,-2.443344295E-1,-2.524207532E-1,-1.092424750E0,1.147522281E0
3.773658557E0,-2.473887652E-1,-2.481447011E-1,-1.088759542E0,1.143754490E0
3.776103609E0,-2.504431009E-1,-2.420360595E-1,-1.085094333E0,1.139619635E0
3.778549442E0,-2.528865635E-1,-2.359274030E-1,-1.081429243E0,1.135386525E0
3.780994442E0,-2.547191381E-1,-2.285970300E-1,-1.077764034E0,1.130802262E0
3.783438661E0,-2.522756755E-1,-2.194340676E-1,-1.072877049E0,1.123770212E0
3.785883713E0,-2.534974217E-1,-2.114928216E-1,-1.069822788E0,1.119603034E0
3.788329547E0,-2.534974217E-1,-1.998863965E-1,-1.066157579E0,1.113960277E0
3.790774547E0,-2.528865635E-1,-1.888908297E-1,-1.061270714E0,1.107215827E0
3.793218817E0,-2.522756755E-1,-1.791169941E-1,-1.057605505E0,1.101932538E0
3.795663817E0,-2.516648173E-1,-1.705648899E-1,-1.052718520E0,1.095738949E0
3.798109651E0,-2.492213398E-1,-1.620127708E-1,-1.046609879E0,1.088003517E0
3.800554651E0,-2.449453026E-1,-1.552932560E-1,-1.042333841E0,1.081930697E0
3.802998922E0,-2.388366461E-1,-1.516280770E-1,-1.037446976E0,1.075327971E0
3.805443922E0,-2.321171314E-1,-1.449085623E-1,-1.032559991E0,1.068202691E0
3.807889755E0,-2.260084897E-1,-1.418542415E-1,-1.027062178E0,1.061159357E0
3.810334807E0,-2.205107063E-1,-1.357455850E-1,-1.020953536E0,1.053279620E0
3.812779026E0,-2.144020647E-1,-1.326912642E-1,-1.013012290E0,1.043920072E0
3.815224078E0,-2.095151395E-1,-1.290260851E-1,-1.006903648E0,1.036532335E0
3.817669859E0,-2.034064978E-1,-1.271934807E-1,-9.983515143E-1,1.026770730E0
3.820114911E0,-2.003521770E-1,-1.278043538E-1,-9.885776639E-1,1.016740255E0
3.822559130E0,-1.979087144E-1,-1.308586746E-1,-9.806364179E-1,1.008929946E0
3.825004182E0,-1.991304457E-1,-1.357455850E-1,-9.708625674E-1,1.000326908E0
3.827450015E0,-2.009630352E-1,-1.442977041E-1,-9.616996050E-1,9.930126380E-1
3.829895015E0,-2.040173560E-1,-1.565149873E-1,-9.525366426E-1,9.866337103E-1
3.832339234E0,-2.076825500E-1,-1.730083376E-1,-9.421519041E-1,9.801602608E-1
3.834784286E0,-2.082934082E-1,-1.913342774E-1,-9.335998297E-1,9.755017127E-1
3.837230120E0,-2.070716769E-1,-2.151580155E-1,-9.238259792E-1,9.708893299E-1
3.839675120E0,-2.064608186E-1,-2.383708656E-1,-9.152738452E-1,9.680769344E-1
3.842119390E0,-2.052390873E-1,-2.597511113E-1,-9.073326588E-1,9.658396743E-1
3.844564390E0,-2.064608186E-1,-2.799096704E-1,-8.993914127E-1,9.643030678E-1
3.847010224E0,-2.076825500E-1,-2.945704162E-1,-8.914501667E-1,9.615545598E-1
3.849455224E0,-2.101260126E-1,-3.031225204E-1,-8.841197491E-1,9.579686499E-1
3.851899495E0,-2.125694603E-1,-3.110637665E-1,-8.767893910E-1,9.543092153E-1
3.854344495E0,-2.168455273E-1,-3.141180873E-1,-8.719024658E-1,9.517909778E-1
3.856790328E0,-2.217324376E-1,-3.147289455E-1,-8.682373166E-1,9.497660875E-1
3.859235380E0,-2.260084897E-1,-3.141180873E-1,-8.657938242E-1,9.483401058E-1
3.861679599E0,-2.302845418E-1,-3.067877293E-1,-8.657938242E-1,9.469681236E-1
3.864124599E0,-2.345605940E-1,-2.988464832E-1,-8.670155406E-1,9.465959225E-1
3.866570432E0,-2.363931984E-1,-2.890726328E-1,-8.682373166E-1,9.451353179E-1
3.869015484E0,-2.376149148E-1,-2.786879241E-1,-8.725133538E-1,9.462596681E-1
3.871459703E0,-2.363931984E-1,-2.652488947E-1,-8.755676746E-1,9.449113573E-1
3.873904755E0,-2.339497358E-1,-2.524207532E-1,-8.792328835E-1,9.441923421E-1
3.876350588E0,-2.302845418E-1,-2.395925969E-1,-8.828980327E-1,9.433687078E-1
3.878795588E0,-2.247867584E-1,-2.279861718E-1,-8.859523535E-1,9.420288498E-1
3.881239807E0,-2.180672437E-1,-2.145471424E-1,-8.871740699E-1,9.384357353E-1
3.883684859E0,-2.095151395E-1,-2.029407173E-1,-8.853415251E-1,9.321540347E-1
3.886130692E0,-2.027956247E-1,-1.907234192E-1,-8.816763163E-1,9.245834817E-1
3.888575692E0,-1.936326623E-1,-1.785061210E-1,-8.780111074E-1,9.166578140E-1
3.891019963E0,-1.856914163E-1,-1.675105542E-1,-8.706807494E-1,9.058841290E-1
3.893464963E0,-1.765284538E-1,-1.589584500E-1,-8.621286154E-1,8.942571405E-1
3.895910797E0,-1.685872078E-1,-1.565149873E-1,-8.517439365E-1,8.822620480E-1
3.898355797E0,-1.624785662E-1,-1.565149873E-1,-8.395266533E-1,8.693107772E-1
3.900800067E0,-1.563699096E-1,-1.607910544E-1,-8.266984820E-1,8.565837332E-1
3.903245067E0,-1.545373201E-1,-1.699540168E-1,-8.126485944E-1,8.444903132E-1
3.905690901E0,-1.533155888E-1,-1.852256358E-1,-8.004313111E-1,8.357658104E-1
3.908135953E0,-1.533155888E-1,-2.029407173E-1,-7.876031399E-1,8.276528925E-1
3.910580172E0,-1.545373201E-1,-2.261535674E-1,-7.753858566E-1,8.223444814E-1
3.913025172E0,-1.563699096E-1,-2.524207532E-1,-7.643902898E-1,8.200367677E-1
3.915471005E0,-1.594242305E-1,-2.817422450E-1,-7.527838349E-1,8.194377829E-1
3.917916057E0,-1.649220139E-1,-3.116746247E-1,-7.411774397E-1,8.207827602E-1
3.920360276E0,-1.704197973E-1,-3.403852880E-1,-7.332361937E-1,8.261600131E-1
3.922805328E0,-1.753067225E-1,-3.721502423E-1,-7.240732312E-1,8.327726544E-1
3.925251161E0,-1.814153641E-1,-4.020826221E-1,-7.179645896E-1,8.426476851E-1
3.927696161E0,-1.863022894E-1,-4.307932556E-1,-7.100233436E-1,8.511313180E-1
3.930140380E0,-1.924109310E-1,-4.576713145E-1,-7.063581347E-1,8.633810358E-1
3.932585432E0,-1.972978562E-1,-4.827167690E-1,-7.014712095E-1,8.740730982E-1
3.935031265E0,-2.034064978E-1,-5.053187609E-1,-6.965842843E-1,8.842798870E-1
3.937476265E0,-2.089042813E-1,-5.254772902E-1,-6.941408515E-1,8.953205587E-1
3.939920536E0,-2.156237960E-1,-5.407488942E-1,-6.941408515E-1,9.059439882E-1
3.942365536E0,-2.205107063E-1,-5.541879535E-1,-6.935299635E-1,9.147311461E-1
3.944811370E0,-2.266193479E-1,-5.651835203E-1,-6.929191351E-1,9.224563232E-1
3.947256370E0,-2.315062732E-1,-5.767899156E-1,-6.935299635E-1,9.312709442E-1
3.949700640E0,-2.370040566E-1,-5.859528780E-1,-6.929191351E-1,9.378958502E-1
3.952145640E0,-2.425018400E-1,-5.920615196E-1,-6.959734559E-1,9.453692595E-1
3.954591474E0,-2.455561608E-1,-5.951158404E-1,-6.953625679E-1,9.476232334E-1
3.957036526E0,-2.479996234E-1,-5.963376164E-1,-6.978060603E-1,9.508184179E-1
3.959480745E0,-2.528865635E-1,-5.951158404E-1,-6.978060603E-1,9.513399894E-1
3.961925797E0,-2.541082799E-1,-5.914506912E-1,-6.996386051E-1,9.507255734E-1
3.964371578E0,-2.577734590E-1,-5.841202736E-1,-6.990277767E-1,9.467224951E-1
3.966816630E0,-2.608277798E-1,-5.731247067E-1,-6.990277767E-1,9.408203297E-1
3.969260849E0,-2.638821304E-1,-5.572422743E-1,-6.978060603E-1,9.311745426E-1
3.971705901E0,-2.693799138E-1,-5.364728570E-1,-6.971951723E-1,9.200270499E-1
3.974151682E0,-2.706016302E-1,-5.132600069E-1,-6.941408515E-1,9.047058078E-1
