"Time (s)","Gyroscope x (rad/s)","Gyroscope y (rad/s)","Gyroscope z (rad/s)","Absolute (rad/s)"
1.180501080E-1,2.261344902E-2,-2.151389048E-2,4.077522084E-3,3.147763883E-2
1.204959420E-1,2.261344902E-2,-2.151389048E-2,3.466657363E-3,3.140435118E-2
1.229409420E-1,2.261344902E-2,-2.151389048E-2,1.634063199E-3,3.125517113E-2
1.253851600E-1,2.383517660E-2,-1.907043159E-2,2.244927920E-3,3.060778832E-2
1.278302120E-1,2.078085579E-2,-2.090302669E-2,4.123337567E-4,2.947796654E-2
1.302760460E-1,2.200258337E-2,-1.784870401E-2,4.123337567E-4,2.833478302E-2
1.327210460E-1,1.894825883E-2,-1.845956780E-2,1.023198478E-3,2.647336570E-2
1.351653170E-1,1.955912448E-2,-1.540524606E-2,-8.093961515E-4,2.491056159E-2
1.376103170E-1,1.711566560E-2,-1.357265096E-2,-1.420259941E-3,2.189018048E-2
1.400561500E-1,1.467220671E-2,-9.907462634E-3,-1.420259941E-3,1.776087284E-2
1.425012020E-1,1.711566560E-2,-6.853138097E-3,-1.420259941E-3,1.849131280E-2
1.449454210E-1,1.345047727E-2,-4.409679212E-3,-1.420259941E-3,1.422595332E-2
1.473904210E-1,1.650479995E-2,-1.336268615E-4,-2.641989384E-3,1.671545349E-2
1.498362540E-1,1.222874783E-2,1.698966371E-3,-3.252855036E-3,1.276753015E-2
1.522813060E-1,1.345047727E-2,5.975021981E-3,-2.031125594E-3,1.485737856E-2
1.547255250E-1,9.174424224E-3,9.640208445E-3,-3.252855036E-3,1.369980820E-2
1.571705770E-1,8.563559502E-3,1.208366733E-2,-2.641989384E-3,1.504425722E-2
1.596164100E-1,7.952694781E-3,1.391626056E-2,-8.093961515E-4,1.604876271E-2
1.620614100E-1,6.730965339E-3,1.697058603E-2,1.023198478E-3,1.828533893E-2
1.645056290E-1,7.952694781E-3,1.758145168E-2,4.123337567E-4,1.930085016E-2
1.669506810E-1,5.509235896E-3,1.880317926E-2,2.244927920E-3,1.972183896E-2
1.693965140E-1,7.952694781E-3,1.880317926E-2,2.855792642E-3,2.061456903E-2
1.718415140E-1,4.898371175E-3,1.635972038E-2,3.466657363E-3,1.742561919E-2
1.742857850E-1,7.952694781E-3,1.819231361E-2,5.910116248E-3,2.071557633E-2
1.767307850E-1,4.898371175E-3,1.513799187E-2,6.520980969E-3,1.719523279E-2
1.791766190E-1,8.563559502E-3,1.391626056E-2,7.131845690E-3,1.782863097E-2
1.816216710E-1,9.174424224E-3,1.147280168E-2,7.131845690E-3,1.632968037E-2
1.840658890E-1,5.509235896E-3,1.208366733E-2,6.520980969E-3,1.479492782E-2
1.865109420E-1,6.120100617E-3,1.086193975E-2,7.742710412E-3,1.467606661E-2
1.889567230E-1,5.509235896E-3,1.086193975E-2,7.742710412E-3,1.443201233E-2
1.914017750E-1,6.730965339E-3,1.147280168E-2,7.131845690E-3,1.509285578E-2
1.938459940E-1,4.287506454E-3,1.147280168E-2,7.131845690E-3,1.417290065E-2
1.962910460E-1,7.341830060E-3,1.391626056E-2,7.131845690E-3,1.727506873E-2
1.987368790E-1,3.676641965E-3,1.452712622E-2,6.520980969E-3,1.634252995E-2
2.011818790E-1,6.120100617E-3,1.758145168E-2,7.742710412E-3,2.016215860E-2
2.036261500E-1,5.509235896E-3,1.758145168E-2,7.742710412E-3,1.998521173E-2
2.060711500E-1,3.676641965E-3,1.880317926E-2,6.520980969E-3,2.023858788E-2
2.085169830E-1,5.509235896E-3,1.758145168E-2,5.910116248E-3,1.934912395E-2
2.109619830E-1,2.454912523E-3,1.697058603E-2,5.299251527E-3,1.794740796E-2
2.134062540E-1,3.676641965E-3,1.880317926E-2,7.131845690E-3,2.044359238E-2
2.158512540E-1,1.844047802E-3,1.635972038E-2,6.520980969E-3,1.770774283E-2
2.182970870E-1,4.287506454E-3,1.758145168E-2,5.299251527E-3,1.885662275E-2
2.207421390E-1,3.065777244E-3,1.269453298E-2,2.855792642E-3,1.336808548E-2
2.231863580E-1,5.509235896E-3,1.513799187E-2,3.466657363E-3,1.647811249E-2
2.256314100E-1,4.287506454E-3,1.147280168E-2,3.466657363E-3,1.272892781E-2
2.280772440E-1,4.898371175E-3,1.208366733E-2,1.023198478E-3,1.307883754E-2
2.305222440E-1,6.730965339E-3,9.029342793E-3,1.023198478E-3,1.130848623E-2
2.329664620E-1,6.120100617E-3,6.585883908E-3,-1.985309646E-4,8.992714438E-3
2.354115140E-1,1.039615367E-2,5.975021981E-3,-2.641989384E-3,1.227847737E-2
2.378573480E-1,6.730965339E-3,2.309832023E-3,-3.252855036E-3,7.824467027E-3
2.403023480E-1,1.100701839E-2,-1.336268615E-4,-5.696313921E-3,1.239436574E-2
2.427466190E-1,9.174424224E-3,-4.409679212E-3,-8.750636131E-3,1.342344826E-2
2.451916190E-1,1.161788311E-2,-3.798815189E-3,-8.139772341E-3,1.468543832E-2
2.476374520E-1,1.345047727E-2,-8.074869402E-3,-9.361501783E-3,1.826900573E-2
2.500825040E-1,1.467220671E-2,-7.464003749E-3,-1.119409502E-2,1.990710338E-2
2.525267230E-1,1.467220671E-2,-7.464003749E-3,-1.241582446E-2,2.061886754E-2
2.549717750E-1,1.467220671E-2,-8.685733192E-3,-1.424841955E-2,2.222010510E-2
2.574175560E-1,1.650479995E-2,-8.685733192E-3,-1.119409502E-2,2.175219864E-2
2.598626080E-1,1.406134106E-2,-1.418351475E-2,-1.363755390E-2,2.418421550E-2
2.623068270E-1,1.833739504E-2,-1.418351475E-2,-1.302669011E-2,2.659185595E-2
2.647518790E-1,1.528307237E-2,-1.662697271E-2,-1.363755390E-2,2.638202795E-2
2.671977120E-1,1.894825883E-2,-1.723783836E-2,-1.363755390E-2,2.902003550E-2
2.696427120E-1,1.894825883E-2,-1.845956780E-2,-1.363755390E-2,2.976197293E-2
2.720869830E-1,2.016999014E-2,-1.784870401E-2,-1.363755390E-2,3.018919696E-2
2.745319830E-1,2.139171772E-2,-1.662697271E-2,-1.302669011E-2,3.006254253E-2
2.769778170E-1,2.078085579E-2,-1.723783836E-2,-1.363755390E-2,3.024846963E-2
2.794228690E-1,2.322431467E-2,-1.723783836E-2,-1.302669011E-2,3.172075848E-2
2.818670870E-1,1.955912448E-2,-1.907043159E-2,-1.241582446E-2,3.000655609E-2
2.843120870E-1,2.322431467E-2,-1.601610892E-2,-1.302669011E-2,3.107377016E-2
2.867579210E-1,2.016999014E-2,-1.479438040E-2,-1.180496067E-2,2.765970517E-2
2.892029730E-1,2.261344902E-2,-1.479438040E-2,-1.180496067E-2,2.948896174E-2
2.916471920E-1,2.078085579E-2,-1.479438040E-2,-1.058323123E-2,2.761743004E-2
2.940922440E-1,1.772653125E-2,-1.174005587E-2,-9.972365573E-3,2.348418398E-2
2.965380770E-1,1.955912448E-2,-1.051832829E-2,-9.361501783E-3,2.410046257E-2
2.989830770E-1,1.894825883E-2,-1.051832829E-2,-8.750636131E-3,2.337189285E-2
3.014273480E-1,2.078085579E-2,-8.685733192E-3,-8.750636131E-3,2.416318607E-2
3.038723480E-1,1.711566560E-2,-8.074869402E-3,-7.528907154E-3,2.036747328E-2
3.063181810E-1,1.955912448E-2,-8.074869402E-3,-6.307177711E-3,2.208038399E-2
3.087632330E-1,1.528307237E-2,-8.074869402E-3,-7.528907154E-3,1.885365375E-2
3.112074520E-1,1.955912448E-2,-8.074869402E-3,-5.696313921E-3,2.191371394E-2
3.136524520E-1,1.650479995E-2,-9.907462634E-3,-5.696313921E-3,2.007521431E-2
3.160982850E-1,1.650479995E-2,-9.907462634E-3,-5.085448269E-3,1.991050028E-2
3.185433370E-1,1.772653125E-2,-1.174005587E-2,-3.863718826E-3,2.160988536E-2
3.209875560E-1,1.650479995E-2,-1.296178717E-2,-4.474584479E-3,2.145782501E-2
3.234326080E-1,1.894825883E-2,-1.357265096E-2,-2.641989384E-3,2.345705597E-2
3.258784420E-1,1.589393616E-2,-1.540524606E-2,-2.641989384E-3,2.229167828E-2
3.283234420E-1,1.833739504E-2,-1.418351475E-2,-2.031125594E-3,2.327139056E-2
3.307677120E-1,1.467220671E-2,-1.601610892E-2,-2.031125594E-3,2.181547308E-2
3.332127120E-1,2.078085579E-2,-1.357265096E-2,-1.420259941E-3,2.486117374E-2
3.356585460E-1,1.833739504E-2,-1.296178717E-2,-2.031125594E-3,2.254758202E-2
3.381035980E-1,2.078085579E-2,-1.051832829E-2,-2.641989384E-3,2.344054831E-2
3.405478170E-1,2.139171772E-2,-8.685733192E-3,-3.252855036E-3,2.331584470E-2
3.429928170E-1,1.894825883E-2,-6.242274307E-3,-3.863718826E-3,2.032069941E-2
3.454386500E-1,2.139171772E-2,-2.577085746E-3,-4.474584479E-3,2.200610970E-2
3.478837020E-1,1.711566560E-2,-1.355358167E-3,-5.085448269E-3,1.790655714E-2
3.503279210E-1,2.016999014E-2,3.531559603E-3,-6.307177711E-3,2.142617339E-2
3.527729730E-1,1.589393616E-2,4.753290676E-3,-6.918043364E-3,1.797415653E-2
3.552188060E-1,1.772653125E-2,9.029342793E-3,-5.085448269E-3,2.053340511E-2
3.576638060E-1,1.589393616E-2,1.208366733E-2,-5.085448269E-3,2.060325234E-2
3.601080770E-1,1.528307237E-2,1.391626056E-2,-2.031125594E-3,2.076920991E-2
3.625530770E-1,1.772653125E-2,1.391626056E-2,-1.420259941E-3,2.258117261E-2
3.649989100E-1,1.589393616E-2,1.391626056E-2,1.634063199E-3,2.118843263E-2
3.674439620E-1,1.772653125E-2,1.391626056E-2,2.855792642E-3,2.271668484E-2
3.698881810E-1,1.467220671E-2,1.147280168E-2,4.077522084E-3,1.906633196E-2
3.723332330E-1,1.833739504E-2,9.029342793E-3,3.466657363E-3,2.073178240E-2
3.747790140E-1,1.406134106E-2,4.142425023E-3,4.077522084E-3,1.521536013E-2
3.772240670E-1,1.528307237E-2,2.309832023E-3,5.299251527E-3,1.633981921E-2
3.796682850E-1,1.406134106E-2,-7.444925141E-4,4.688386805E-3,1.484104283E-2
3.821133370E-1,1.528307237E-2,-1.966220094E-3,4.077522084E-3,1.593940114E-2
3.845591710E-1,1.467220671E-2,-2.577085746E-3,4.688386805E-3,1.561716977E-2
3.870041710E-1,1.345047727E-2,-1.355358167E-3,4.077522084E-3,1.412014593E-2
3.894484420E-1,1.589393616E-2,-1.355358167E-3,2.855792642E-3,1.620523847E-2
3.918934420E-1,1.283961255E-2,-1.336268615E-4,1.023198478E-3,1.288101090E-2
3.943392750E-1,1.711566560E-2,4.772387911E-4,2.244927920E-3,1.726885830E-2
3.967843270E-1,1.222874783E-2,-1.966220094E-3,4.123337567E-4,1.239267179E-2
3.992285460E-1,1.528307237E-2,-2.577085746E-3,1.023198478E-3,1.553256602E-2
4.016735980E-1,1.345047727E-2,-3.798815189E-3,-8.093961515E-4,1.400005206E-2
4.041194310E-1,1.345047727E-2,-4.409679212E-3,-8.093961515E-4,1.417800168E-2
4.065644310E-1,1.467220671E-2,-6.853138097E-3,-8.093961515E-4,1.621401473E-2
4.090086500E-1,1.283961255E-2,-6.853138097E-3,-8.093961515E-4,1.457656593E-2
4.114537020E-1,1.711566560E-2,-5.020544864E-3,-1.985309646E-4,1.783791732E-2
4.138995350E-1,1.222874783E-2,-6.242274307E-3,-1.985309646E-4,1.373126639E-2
4.163445350E-1,1.589393616E-2,-2.577085746E-3,-8.093961515E-4,1.612183921E-2
4.187888060E-1,1.283961255E-2,-4.409679212E-3,-1.985309646E-4,1.357719911E-2
4.212338060E-1,1.406134106E-2,-1.966220094E-3,1.023198478E-3,1.423496642E-2
4.236796390E-1,1.161788311E-2,-1.966220094E-3,1.023198478E-3,1.182743271E-2
4.261246920E-1,1.283961255E-2,-1.966220094E-3,1.634063199E-3,1.309167042E-2
4.285689100E-1,1.283961255E-2,-1.966220094E-3,2.244927920E-3,1.318185773E-2
4.310139620E-1,1.100701839E-2,-1.336268615E-4,1.634063199E-3,1.112845328E-2
4.334597960E-1,1.406134106E-2,-7.444925141E-4,1.634063199E-3,1.417553329E-2
4.359047960E-1,1.222874783E-2,-1.355358167E-3,1.023198478E-3,1.234610078E-2
4.383490670E-1,1.345047727E-2,-1.355358167E-3,1.023198478E-3,1.355725893E-2
4.407940670E-1,1.161788311E-2,-3.798815189E-3,1.023198478E-3,1.226593412E-2
4.432399000E-1,1.406134106E-2,-1.966220094E-3,1.634063199E-3,1.429186819E-2
4.456849000E-1,1.222874783E-2,-5.631410517E-3,1.634063199E-3,1.356190327E-2
4.481291710E-1,1.161788311E-2,-5.631410517E-3,2.244927920E-3,1.310449136E-2
4.505741710E-1,1.222874783E-2,-6.853138097E-3,2.855792642E-3,1.430605910E-2
4.530200040E-1,1.100701839E-2,-6.242274307E-3,1.634063199E-3,1.275894215E-2
4.554650560E-1,1.345047727E-2,-6.853138097E-3,2.244927920E-3,1.526173457E-2
4.579092750E-1,9.174424224E-3,-8.685733192E-3,2.244927920E-3,1.283166873E-2
4.603543270E-1,1.345047727E-2,-7.464003749E-3,3.466657363E-3,1.576846232E-2
4.628001600E-1,1.039615367E-2,-9.907462634E-3,2.855792642E-3,1.464217807E-2
4.652451600E-1,1.222874783E-2,-9.296596982E-3,1.023198478E-3,1.539532150E-2
4.676894310E-1,9.174424224E-3,-9.296596982E-3,1.023198478E-3,1.310128659E-2
4.701344310E-1,7.952694781E-3,-6.853138097E-3,1.023198478E-3,1.054788089E-2
4.725802640E-1,9.785288945E-3,-8.685733192E-3,4.123337567E-4,1.309060197E-2
4.750253170E-1,7.952694781E-3,-9.296596982E-3,-8.093961515E-4,1.226079899E-2
4.774695350E-1,9.785288945E-3,-8.074869402E-3,-1.420259941E-3,1.276606963E-2
4.799145870E-1,7.341830060E-3,-1.051832829E-2,-2.031125594E-3,1.298703853E-2
4.823604210E-1,9.785288945E-3,-9.296596982E-3,-3.863718826E-3,1.403947714E-2
4.848054210E-1,6.730965339E-3,-1.051832829E-2,-2.641989384E-3,1.276406018E-2
4.872496390E-1,8.563559502E-3,-1.051832829E-2,-3.252855036E-3,1.394814852E-2
4.896946920E-1,7.341830060E-3,-1.296178717E-2,-4.474584479E-3,1.555417312E-2
4.921405250E-1,7.952694781E-3,-1.174005587E-2,-5.085448269E-3,1.506439677E-2
4.945855250E-1,8.563559502E-3,-1.296178717E-2,-4.474584479E-3,1.616676790E-2
4.970297960E-1,7.952694781E-3,-1.174005587E-2,-6.307177711E-3,1.551949602E-2
4.994748480E-1,9.174424224E-3,-1.051832829E-2,-3.863718826E-3,1.448218260E-2
5.019206290E-1,6.120100617E-3,-9.907462634E-3,-6.918043364E-3,1.354521212E-2
5.043656810E-1,1.039615367E-2,-8.685733192E-3,-6.307177711E-3,1.494330830E-2
5.068099000E-1,7.341830060E-3,-8.074869402E-3,-6.918043364E-3,1.292150566E-2
5.092549520E-1,9.785288945E-3,-5.631410517E-3,-6.918043364E-3,1.324099649E-2
5.117007850E-1,7.341830060E-3,-3.187951399E-3,-7.528907154E-3,1.098862802E-2
5.141458370E-1,6.730965339E-3,1.088104444E-3,-8.139772341E-3,1.061818061E-2
5.165900560E-1,7.952694781E-3,1.088104444E-3,-8.750636131E-3,1.187446665E-2
5.190350560E-1,6.120100617E-3,5.364156328E-3,-1.119409502E-2,1.383970982E-2
5.214808890E-1,7.952694781E-3,9.640208445E-3,-9.972365573E-3,1.598834101E-2
5.239259420E-1,4.287506454E-3,1.147280168E-2,-1.119409502E-2,1.659263852E-2
5.263701600E-1,5.509235896E-3,1.574885845E-2,-1.058323123E-2,1.975811241E-2
5.288152120E-1,3.065777244E-3,1.758145168E-2,-1.302669011E-2,2.209527299E-2
5.312610460E-1,5.509235896E-3,1.941404492E-2,-1.302669011E-2,2.401981423E-2
5.337060460E-1,6.223183591E-4,2.002491057E-2,-1.363755390E-2,2.423565967E-2
5.361503170E-1,2.454912523E-3,2.063577622E-2,-1.485928334E-2,2.554721428E-2
5.385953170E-1,3.065777244E-3,2.002491057E-2,-1.424841955E-2,2.476718581E-2
5.410411500E-1,2.454912523E-3,2.002491057E-2,-1.363755390E-2,2.435172510E-2
5.434862020E-1,4.898371175E-3,1.819231361E-2,-1.302669011E-2,2.290521709E-2
5.459304210E-1,2.454912523E-3,1.574885845E-2,-1.180496067E-2,1.983457170E-2
5.483754730E-1,5.509235896E-3,1.513799187E-2,-1.119409502E-2,1.961678468E-2
5.508212540E-1,4.287506454E-3,1.086193975E-2,-1.058323123E-2,1.575973445E-2
5.532663060E-1,7.341830060E-3,9.640208445E-3,-8.750636131E-3,1.494689667E-2
5.557105250E-1,4.287506454E-3,6.585883908E-3,-9.361501783E-3,1.222269586E-2
5.581555770E-1,6.120100617E-3,5.364156328E-3,-5.696313921E-3,9.933669864E-3
5.606014100E-1,7.341830060E-3,1.698966371E-3,-4.474584479E-3,8.764180602E-3
5.630464620E-1,7.952694781E-3,-1.336268615E-4,-3.252855036E-3,8.593269244E-3
5.654906810E-1,8.563559502E-3,-7.444925141E-4,-1.420259941E-3,8.712402582E-3
5.679357330E-1,7.341830060E-3,-2.577085746E-3,-2.031125594E-3,8.041723121E-3
5.703815140E-1,1.222874783E-2,-6.242274307E-3,-8.093961515E-4,1.375366802E-2
5.728265670E-1,7.952694781E-3,-8.074869402E-3,-8.093961515E-4,1.136239377E-2
5.752707850E-1,1.039615367E-2,-8.685733192E-3,4.123337567E-4,1.355330186E-2
5.777158370E-1,9.785288945E-3,-1.174005587E-2,-1.985309646E-4,1.528463955E-2
5.801616710E-1,9.785288945E-3,-1.051832829E-2,-1.985309646E-4,1.436755109E-2
5.826066710E-1,1.100701839E-2,-1.174005587E-2,1.634063199E-3,1.617570796E-2
5.850509420E-1,8.563559502E-3,-1.174005587E-2,-1.985309646E-4,1.453282071E-2
5.874959420E-1,1.222874783E-2,-1.235092152E-2,1.023198478E-3,1.741075734E-2
5.899417750E-1,9.785288945E-3,-1.174005587E-2,-1.420259941E-3,1.534919965E-2
5.923868270E-1,1.161788311E-2,-1.112919208E-2,-8.093961515E-4,1.610866991E-2
5.948310460E-1,7.952694781E-3,-1.174005587E-2,-1.420259941E-3,1.425101415E-2
5.972760980E-1,1.039615367E-2,-9.907462634E-3,-1.420259941E-3,1.443104172E-2
5.997219310E-1,9.174424224E-3,-9.296596982E-3,-2.641989384E-3,1.332579766E-2
6.021669310E-1,1.100701839E-2,-8.685733192E-3,-1.420259941E-3,1.409303208E-2
6.046112020E-1,9.785288945E-3,-1.112919208E-2,-3.863718826E-3,1.531467006E-2
6.070562020E-1,9.785288945E-3,-9.296596982E-3,-3.252855036E-3,1.388379131E-2
6.095020350E-1,1.100701839E-2,-1.051832829E-2,-4.474584479E-3,1.586857240E-2
6.119470870E-1,8.563559502E-3,-1.174005587E-2,-3.863718826E-3,1.503634883E-2
6.143913060E-1,1.039615367E-2,-1.112919208E-2,-3.863718826E-3,1.571200975E-2
6.168363580E-1,7.952694781E-3,-1.357265096E-2,-4.474584479E-3,1.635494160E-2
6.192821920E-1,1.100701839E-2,-1.418351475E-2,-5.696313921E-3,1.883545956E-2
6.217271920E-1,6.730965339E-3,-1.601610892E-2,-4.474584479E-3,1.793999848E-2
6.241714100E-1,7.341830060E-3,-1.601610892E-2,-3.863718826E-3,1.803736501E-2
6.266164620E-1,6.730965339E-3,-1.296178717E-2,-3.252855036E-3,1.496311755E-2
6.290622960E-1,7.952694781E-3,-1.296178717E-2,-3.863718826E-3,1.569017540E-2
6.315073480E-1,6.730965339E-3,-1.051832829E-2,-3.863718826E-3,1.307170408E-2
6.339515670E-1,6.120100617E-3,-8.685733192E-3,-3.252855036E-3,1.111209515E-2
6.363966190E-1,4.898371175E-3,-6.853138097E-3,-2.641989384E-3,8.828343550E-3
6.388424000E-1,3.065777244E-3,-2.577085746E-3,-3.252855036E-3,5.159595618E-3
6.412874520E-1,1.233183080E-3,-3.187951399E-3,-3.252855036E-3,4.718563396E-3
6.437316710E-1,1.844047802E-3,-7.444925141E-4,-2.641989384E-3,3.306794415E-3
6.461767230E-1,6.223183591E-4,4.772387911E-4,-2.031125594E-3,2.177270810E-3
6.486225560E-1,-5.994110834E-4,2.309832023E-3,-3.252855036E-3,4.034313264E-3
6.510676080E-1,-5.994110834E-4,4.753290676E-3,-4.474584479E-3,6.555529891E-3
6.535118270E-1,-1.821140526E-3,5.364156328E-3,-4.474584479E-3,7.218907964E-3
6.559568790E-1,-1.210275805E-3,5.975021981E-3,-5.696313921E-3,8.343479339E-3
6.584026600E-1,-3.042869968E-3,9.029342793E-3,-4.474584479E-3,1.052663266E-2
6.608477120E-1,-1.821140526E-3,8.418477140E-3,-5.696313921E-3,1.032643707E-2
6.632919310E-1,-1.821140526E-3,1.025107410E-2,-5.085448269E-3,1.158718504E-2
6.657369830E-1,-2.432005247E-3,1.208366733E-2,-5.085448269E-3,1.333384602E-2
6.681828170E-1,-3.653734690E-3,1.452712622E-2,-4.474584479E-3,1.563358818E-2
6.706278690E-1,-1.821140526E-3,1.513799187E-2,-5.085448269E-3,1.607286952E-2
6.730720870E-1,-3.042869968E-3,1.697058603E-2,-5.696313921E-3,1.815785891E-2
6.755170870E-1,-2.432005247E-3,1.758145168E-2,-6.307177711E-3,1.883620406E-2
6.779629210E-1,-3.042869968E-3,1.880317926E-2,-7.528907154E-3,2.048177363E-2
6.804079730E-1,-3.042869968E-3,1.880317926E-2,-6.918043364E-3,2.026519016E-2
6.828521920E-1,-2.432005247E-3,1.819231361E-2,-6.307177711E-3,1.940761229E-2
6.852972440E-1,-3.042869968E-3,1.880317926E-2,-6.307177711E-3,2.006487226E-2
6.877430770E-1,-2.432005247E-3,1.635972038E-2,-7.528907154E-3,1.817249414E-2
6.901880770E-1,-1.210275805E-3,1.574885845E-2,-6.307177711E-3,1.700799226E-2
6.926323480E-1,-1.210275805E-3,1.391626056E-2,-7.528907154E-3,1.586857015E-2
6.950773480E-1,-1.821140526E-3,1.086193975E-2,-7.528907154E-3,1.334101686E-2
6.975231810E-1,-1.821140526E-3,1.086193975E-2,-5.696313921E-3,1.239944677E-2
6.999682330E-1,6.223183591E-4,9.640208445E-3,-5.085448269E-3,1.091708217E-2
7.024124520E-1,6.223183591E-4,9.029342793E-3,-5.696313921E-3,1.069412473E-2
7.048575040E-1,1.233183080E-3,7.196749561E-3,-6.307177711E-3,9.648545768E-3
7.073033370E-1,2.454912523E-3,5.364156328E-3,-4.474584479E-3,7.404233577E-3
7.097483370E-1,1.145363785E-5,2.920697676E-3,-4.474584479E-3,5.343455096E-3
7.121926080E-1,1.233183080E-3,-1.336268615E-4,-3.252855036E-3,3.481330570E-3
7.146376080E-1,6.223183591E-4,-1.966220094E-3,-3.252855036E-3,3.851540924E-3
7.170834420E-1,1.844047802E-3,-4.409679212E-3,-2.031125594E-3,5.193385622E-3
7.195284940E-1,1.145363785E-5,-5.631410517E-3,-2.031125594E-3,5.986517082E-3
7.219727120E-1,1.844047802E-3,-9.296596982E-3,-1.420259941E-3,9.583546631E-3
7.244177640E-1,3.065777244E-3,-1.051832829E-2,-8.093961515E-4,1.098587012E-2
7.268635980E-1,3.065777244E-3,-1.174005587E-2,-1.420259941E-3,1.221658873E-2
7.293085980E-1,2.454912523E-3,-1.296178717E-2,-8.093961515E-4,1.321702101E-2
7.317528690E-1,4.287506454E-3,-1.235092152E-2,-1.420259941E-3,1.315085975E-2
7.341978690E-1,4.287506454E-3,-1.296178717E-2,-1.985309646E-4,1.365393910E-2
7.366437020E-1,4.287506454E-3,-1.479438040E-2,-1.420259941E-3,1.546846927E-2
7.390887540E-1,3.065777244E-3,-1.418351475E-2,-3.252855036E-3,1.487118511E-2
7.415329730E-1,3.676641965E-3,-1.235092152E-2,-5.085448269E-3,1.385369058E-2
7.439780250E-1,3.065777244E-3,-1.174005587E-2,-5.085448269E-3,1.315635534E-2
7.464238580E-1,3.065777244E-3,-1.174005587E-2,-5.085448269E-3,1.315635534E-2
7.488688580E-1,4.287506454E-3,-1.112919208E-2,-7.528907154E-3,1.410411539E-2
7.513131290E-1,4.287506454E-3,-9.907462634E-3,-8.139772341E-3,1.352022268E-2
7.537581290E-1,3.676641965E-3,-1.112919208E-2,-8.139772341E-3,1.426998620E-2
7.562039620E-1,3.065777244E-3,-1.174005587E-2,-9.361501783E-3,1.532532602E-2
7.586490140E-1,3.065777244E-3,-1.296178717E-2,-1.058323123E-2,1.701210451E-2
7.610932330E-1,3.676641965E-3,-1.418351475E-2,-1.180496067E-2,1.881613359E-2
7.635382850E-1,4.287506454E-3,-1.540524606E-2,-1.119409502E-2,1.951953075E-2
7.659841190E-1,3.676641965E-3,-1.662697271E-2,-1.302669011E-2,2.143988276E-2
7.684291190E-1,4.287506454E-3,-1.540524606E-2,-1.180496067E-2,1.987615189E-2
7.708733890E-1,3.065777244E-3,-1.540524606E-2,-9.361501783E-3,1.828546723E-2
7.733183890E-1,4.287506454E-3,-1.479438040E-2,-8.750636131E-3,1.771524868E-2
7.757642230E-1,4.287506454E-3,-1.357265096E-2,-1.058323123E-2,1.773708964E-2
7.782092750E-1,4.287506454E-3,-1.112919208E-2,-1.058323123E-2,1.594510618E-2
7.806534940E-1,4.287506454E-3,-9.907462634E-3,-9.361501783E-3,1.428909525E-2
7.830985460E-1,3.676641965E-3,-7.464003749E-3,-8.139772341E-3,1.163979991E-2
7.855443790E-1,3.676641965E-3,-9.296596982E-3,-7.528907154E-3,1.251514501E-2
7.879893790E-1,3.676641965E-3,-5.631410517E-3,-5.085448269E-3,8.431622895E-3
7.904336500E-1,3.676641965E-3,-6.242274307E-3,-3.863718826E-3,8.210481583E-3
7.928786500E-1,3.676641965E-3,-8.074869402E-3,-2.641989384E-3,9.257500737E-3
7.953244830E-1,3.676641965E-3,-7.464003749E-3,-2.031125594E-3,8.564725290E-3
7.977695350E-1,2.454912523E-3,-9.296596982E-3,-1.985309646E-4,9.617313839E-3
8.002137540E-1,3.065777244E-3,-1.296178717E-2,-1.420259941E-3,1.339492647E-2
8.026588060E-1,3.065777244E-3,-1.174005587E-2,4.123337567E-4,1.214075455E-2
8.051046390E-1,3.676641965E-3,-1.357265096E-2,1.023198478E-3,1.409898881E-2
8.075496390E-1,4.287506454E-3,-1.479438040E-2,-1.985309646E-4,1.540440903E-2
8.099939100E-1,3.065777244E-3,-1.540524606E-2,4.123337567E-4,1.571275327E-2
8.124389100E-1,4.898371175E-3,-1.479438040E-2,1.634063199E-3,1.566964882E-2
8.148847440E-1,4.898371175E-3,-1.112919208E-2,2.855792642E-3,1.249033659E-2
8.173297960E-1,4.898371175E-3,-1.174005587E-2,4.077522084E-3,1.335848563E-2
8.197740140E-1,4.287506454E-3,-1.174005587E-2,2.855792642E-3,1.282057623E-2
8.222190670E-1,3.676641965E-3,-1.051832829E-2,2.855792642E-3,1.150254223E-2
8.246649000E-1,4.898371175E-3,-1.112919208E-2,2.855792642E-3,1.249033659E-2
8.271099000E-1,3.676641965E-3,-1.174005587E-2,1.634063199E-3,1.241034933E-2
8.295541710E-1,3.065777244E-3,-1.296178717E-2,2.244927920E-3,1.350728019E-2
8.319991710E-1,4.287506454E-3,-1.418351475E-2,1.634063199E-3,1.490721184E-2
8.344450040E-1,4.898371175E-3,-1.418351475E-2,1.023198478E-3,1.504038118E-2
8.368900560E-1,4.287506454E-3,-1.418351475E-2,-1.985309646E-4,1.481871171E-2
8.393342750E-1,6.730965339E-3,-1.418351475E-2,-8.093961515E-4,1.572046778E-2
8.417793270E-1,5.509235896E-3,-1.296178717E-2,-8.093961515E-4,1.410725802E-2
8.442251600E-1,5.509235896E-3,-1.296178717E-2,-1.420259941E-3,1.415544931E-2
8.466701600E-1,6.730965339E-3,-1.235092152E-2,-3.252855036E-3,1.443718195E-2
8.491144310E-1,7.341830060E-3,-1.357265096E-2,-2.641989384E-3,1.565565172E-2
8.515594310E-1,5.509235896E-3,-1.479438040E-2,-2.031125594E-3,1.591699855E-2
8.540052640E-1,6.120100617E-3,-1.540524606E-2,-2.641989384E-3,1.678562914E-2
8.564503170E-1,7.341830060E-3,-1.723783836E-2,-3.252855036E-3,1.901648248E-2
8.588945350E-1,7.952694781E-3,-1.845956780E-2,-3.252855036E-3,2.036128836E-2
8.613395870E-1,8.563559502E-3,-2.090302669E-2,-2.641989384E-3,2.274315686E-2
8.637854210E-1,9.174424224E-3,-2.212475613E-2,-3.252855036E-3,2.417138721E-2
8.662304210E-1,9.785288945E-3,-2.395734936E-2,-3.252855036E-3,2.608232225E-2
8.686746920E-1,1.100701839E-2,-2.456821501E-2,-2.641989384E-3,2.705054067E-2
8.711196920E-1,1.161788311E-2,-2.517908067E-2,-2.641989384E-3,2.785572507E-2
8.735655250E-1,1.100701839E-2,-2.701167390E-2,-2.031125594E-3,2.923885175E-2
8.760105770E-1,1.222874783E-2,-2.640080824E-2,-2.641989384E-3,2.921515116E-2
8.784547960E-1,1.161788311E-2,-2.640080824E-2,-1.420259941E-3,2.887897197E-2
8.808998480E-1,1.161788311E-2,-2.640080824E-2,4.123337567E-4,2.884697390E-2
8.833456810E-1,1.222874783E-2,-2.701167390E-2,-8.093961515E-4,2.966189344E-2
8.857906810E-1,1.161788311E-2,-2.701167390E-2,-8.093961515E-4,2.941531670E-2
8.882349520E-1,1.161788311E-2,-2.578994446E-2,4.123337567E-4,2.828898128E-2
8.906799520E-1,1.039615367E-2,-2.762253955E-2,1.023198478E-3,2.953187494E-2
8.931257850E-1,1.100701839E-2,-2.701167390E-2,1.634063199E-3,2.921395459E-2
8.955708370E-1,1.039615367E-2,-2.640080824E-2,1.023198478E-3,2.839242191E-2
8.980150560E-1,9.785288945E-3,-2.640080824E-2,1.634063199E-3,2.820327496E-2
9.004601080E-1,9.174424224E-3,-2.517908067E-2,1.023198478E-3,2.681796223E-2
9.029059420E-1,8.563559502E-3,-2.395734936E-2,1.023198478E-3,2.546244440E-2
9.053509420E-1,9.174424224E-3,-2.273562178E-2,1.634063199E-3,2.457129871E-2
9.077952120E-1,7.341830060E-3,-2.029216290E-2,2.855792642E-3,2.176763412E-2
9.102402120E-1,7.952694781E-3,-1.968129724E-2,2.244927920E-3,2.134569083E-2
9.126860460E-1,6.730965339E-3,-1.662697271E-2,1.634063199E-3,1.801200373E-2
9.151310980E-1,6.730965339E-3,-1.723783836E-2,2.244927920E-3,1.864104791E-2
9.175753170E-1,6.730965339E-3,-1.357265096E-2,1.634063199E-3,1.523787751E-2
9.200203690E-1,4.898371175E-3,-1.112919208E-2,1.023198478E-3,1.220245433E-2
9.224662020E-1,3.676641965E-3,-8.685733192E-3,4.123337567E-4,9.440851463E-3
9.249112020E-1,4.287506454E-3,-1.051832829E-2,-1.985309646E-4,1.136034137E-2
9.273554730E-1,2.454912523E-3,-8.685733192E-3,1.023198478E-3,9.083803812E-3
9.298004730E-1,1.233183080E-3,-6.242274307E-3,-8.093961515E-4,6.414191388E-3
9.322463060E-1,1.844047802E-3,-6.853138097E-3,-8.093961515E-4,7.142908105E-3
9.346913580E-1,6.223183591E-4,-5.631410517E-3,4.123337567E-4,5.680676340E-3
9.371355770E-1,1.844047802E-3,-4.409679212E-3,4.123337567E-4,4.797478731E-3
9.395806290E-1,1.844047802E-3,-5.020544864E-3,1.023198478E-3,5.445486035E-3
9.420264620E-1,6.223183591E-4,-5.020544864E-3,3.466657363E-3,6.132769696E-3
9.444714620E-1,1.145363785E-5,-5.020544864E-3,3.466657363E-3,6.101124092E-3
9.469157330E-1,1.233183080E-3,-5.631410517E-3,2.855792642E-3,6.433434272E-3
9.493607330E-1,1.145363785E-5,-6.242274307E-3,2.244927920E-3,6.633688346E-3
9.518065670E-1,1.145363785E-5,-6.242274307E-3,4.688386805E-3,7.806861760E-3
9.542516190E-1,-5.994110834E-4,-6.853138097E-3,3.466657363E-3,7.703408901E-3
9.566958370E-1,-5.994110834E-4,-6.853138097E-3,2.855792642E-3,7.448513075E-3
9.591408890E-1,-1.821140526E-3,-4.409679212E-3,2.855792642E-3,5.560339484E-3
9.615867230E-1,-2.432005247E-3,-2.577085746E-3,2.244927920E-3,4.194725478E-3
9.640317230E-1,-3.042869968E-3,-3.798815189E-3,2.855792642E-3,5.643191127E-3
9.664759940E-1,-3.042869968E-3,-3.798815189E-3,3.466657363E-3,5.975597690E-3
9.689209940E-1,-1.210275805E-3,-1.355358167E-3,2.244927920E-3,2.888159388E-3
9.713668270E-1,-1.821140526E-3,-1.355358167E-3,2.855792642E-3,3.648163947E-3
9.738118790E-1,-2.432005247E-3,-2.577085746E-3,1.023198478E-3,3.688218485E-3
9.762560980E-1,-3.042869968E-3,-3.187951399E-3,1.634063199E-3,4.700239814E-3
9.787011500E-1,-4.875464365E-3,-3.798815189E-3,2.244927920E-3,6.575777595E-3
9.811469830E-1,-4.264599644E-3,-3.187951399E-3,-1.420259941E-3,5.510624515E-3
9.835919830E-1,-3.653734690E-3,-3.798815189E-3,4.123337567E-4,5.286850967E-3
9.860362540E-1,-3.042869968E-3,-5.020544864E-3,-1.985309646E-4,5.874039745E-3
9.884812540E-1,-3.042869968E-3,-6.242274307E-3,-1.985309646E-4,6.947262821E-3
9.909270870E-1,-2.432005247E-3,-8.685733192E-3,-8.093961515E-4,9.056032947E-3
9.933721390E-1,-2.432005247E-3,-1.051832829E-2,-1.420259941E-3,1.088884832E-2
9.958163580E-1,-1.210275805E-3,-1.418351475E-2,-2.641989384E-3,1.447815479E-2
9.982614100E-1,-3.042869968E-3,-1.357265096E-2,-2.641989384E-3,1.415824917E-2
1.000707244E0,-2.432005247E-3,-1.723783836E-2,-3.252855036E-3,1.770984999E-2
1.003152244E0,-3.042869968E-3,-1.907043159E-2,-3.863718826E-3,1.969438351E-2
1.005596514E0,-1.210275805E-3,-1.968129724E-2,-3.863718826E-3,2.009344549E-2
1.008041514E0,1.145363785E-5,-2.090302669E-2,-2.641989384E-3,2.106933230E-2
1.010487348E0,1.145363785E-5,-2.090302669E-2,-4.474584479E-3,2.137658911E-2
1.012932400E0,1.145363785E-5,-2.212475613E-2,-5.696313921E-3,2.284628979E-2
1.015376619E0,6.223183591E-4,-2.212475613E-2,-5.696313921E-3,2.285476113E-2
1.017821671E0,-5.994110834E-4,-2.090302669E-2,-6.307177711E-3,2.184207657E-2
1.020267504E0,-5.994110834E-4,-2.151389048E-2,-8.139772341E-3,2.301005586E-2
1.022712504E0,-1.210275805E-3,-2.090302669E-2,-8.750636131E-3,2.269305896E-2
1.025156775E0,-5.994110834E-4,-2.090302669E-2,-9.972365573E-3,2.316773389E-2
1.027601775E0,-1.210275805E-3,-2.090302669E-2,-9.972365573E-3,2.319157966E-2
1.030047608E0,-2.432005247E-3,-1.968129724E-2,-1.180496067E-2,2.307867429E-2
1.032492660E0,-1.210275805E-3,-1.907043159E-2,-1.180496067E-2,2.246114923E-2
1.034936879E0,-5.994110834E-4,-1.784870401E-2,-9.972365573E-3,2.045442748E-2
1.037381931E0,-1.210275805E-3,-1.418351475E-2,-8.139772341E-3,1.639794963E-2
1.039827764E0,-1.821140526E-3,-1.357265096E-2,-7.528907154E-3,1.562747100E-2
1.042272764E0,-1.821140526E-3,-1.174005587E-2,-6.918043364E-3,1.374790124E-2
1.044717035E0,-3.042869968E-3,-1.112919208E-2,-5.085448269E-3,1.260871754E-2
1.047162087E0,-4.264599644E-3,-1.051832829E-2,-3.252855036E-3,1.180690925E-2
1.049607869E0,-4.875464365E-3,-9.907462634E-3,-3.863718826E-3,1.169855939E-2
1.052052921E0,-6.097193807E-3,-8.685733192E-3,-2.031125594E-3,1.080477693E-2
1.054497139E0,-5.486329086E-3,-9.296596982E-3,-2.031125594E-3,1.098417013E-2
1.056942192E0,-4.875464365E-3,-5.020544864E-3,-1.985309646E-4,7.001102631E-3
1.059388025E0,-5.486329086E-3,-5.020544864E-3,1.634063199E-3,7.614186766E-3
1.061833077E0,-6.708058529E-3,-6.853138097E-3,1.634063199E-3,9.727986099E-3
1.064277296E0,-6.097193807E-3,-4.409679212E-3,-8.093961515E-4,7.568101823E-3
1.066722348E0,-5.486329086E-3,-3.798815189E-3,-1.420259941E-3,6.822605220E-3
1.069168129E0,-6.708058529E-3,-2.577085746E-3,-2.031125594E-3,7.467589393E-3
1.071613181E0,-6.097193807E-3,-2.577085746E-3,-2.031125594E-3,6.924060546E-3
1.074057400E0,-7.318923250E-3,-1.966220094E-3,-1.420259941E-3,7.710369466E-3
1.076502452E0,-7.318923250E-3,-7.444925141E-4,-3.863718826E-3,8.309586621E-3
1.078948285E0,-7.929787971E-3,-1.336268615E-4,-4.474584479E-3,9.106113313E-3
1.081393337E0,-7.929787971E-3,-7.444925141E-4,-4.474584479E-3,9.135519286E-3
1.083837556E0,-9.151517414E-3,-1.336268615E-4,-5.696313921E-3,1.078035804E-2
1.086282608E0,-9.762382135E-3,2.309832023E-3,-6.918043364E-3,1.218600644E-2
1.088728389E0,-1.037324686E-2,1.088104444E-3,-6.918043364E-3,1.251589172E-2
1.091173442E0,-1.037324686E-2,2.309832023E-3,-7.528907154E-3,1.302397855E-2
1.093617660E0,-1.098411158E-2,4.772387911E-4,-8.139772341E-3,1.367970606E-2
1.096062712E0,-1.037324686E-2,2.309832023E-3,-8.750636131E-3,1.376637959E-2
1.098508546E0,-1.037324686E-2,2.309832023E-3,-9.361501783E-3,1.416253120E-2
1.100953598E0,-1.037324686E-2,1.088104444E-3,-9.972365573E-3,1.443039489E-2
1.103397817E0,-9.762382135E-3,1.088104444E-3,-9.361501783E-3,1.356929592E-2
1.105842869E0,-1.037324686E-2,1.698966371E-3,-1.119409502E-2,1.535573184E-2
1.108288702E0,-1.037324686E-2,2.309832023E-3,-1.180496067E-2,1.588384937E-2
1.110733702E0,-1.037324686E-2,1.698966371E-3,-1.119409502E-2,1.535573184E-2
1.113177973E0,-1.159497630E-2,-1.336268615E-4,-1.180496067E-2,1.654745986E-2
1.115622973E0,-1.220584102E-2,-1.336268615E-4,-1.302669011E-2,1.785203256E-2
1.118068806E0,-1.220584102E-2,-1.355358167E-3,-1.302669011E-2,1.790291055E-2
1.120513858E0,-1.220584102E-2,-1.355358167E-3,-1.424841955E-2,1.881055583E-2
1.122958077E0,-1.159497630E-2,-3.187951399E-3,-1.424841955E-2,1.864467670E-2
1.125403129E0,-1.098411158E-2,-3.798815189E-3,-1.485928334E-2,1.886478215E-2
1.127848962E0,-1.220584102E-2,-5.020544864E-3,-1.608101279E-2,2.080354292E-2
1.130293962E0,-1.159497630E-2,-6.242274307E-3,-1.730274409E-2,2.174383630E-2
1.132738233E0,-1.159497630E-2,-6.853138097E-3,-1.669187844E-2,2.144825827E-2
1.135183233E0,-1.098411158E-2,-7.464003749E-3,-1.730274409E-2,2.181162562E-2
1.137629067E0,-1.098411158E-2,-8.074869402E-3,-1.730274409E-2,2.202814509E-2
1.140074119E0,-1.220584102E-2,-9.296596982E-3,-1.791360788E-2,2.358615309E-2
1.142518337E0,-1.098411158E-2,-1.112919208E-2,-1.791360788E-2,2.377828780E-2
1.144963389E0,-1.159497630E-2,-1.235092152E-2,-1.913533732E-2,2.555679699E-2
1.147409223E0,-1.281670574E-2,-1.296178717E-2,-1.974620298E-2,2.687356330E-2
1.149854223E0,-1.159497630E-2,-1.479438040E-2,-1.913533732E-2,2.682309269E-2
1.152298494E0,-1.159497630E-2,-1.601610892E-2,-1.791360788E-2,2.668064031E-2
1.154743494E0,-1.098411158E-2,-1.845956780E-2,-1.791360788E-2,2.796969249E-2
1.157189327E0,-1.098411158E-2,-1.845956780E-2,-1.913533732E-2,2.876747269E-2
1.159634379E0,-9.762382135E-3,-2.029216290E-2,-1.852447167E-2,2.915873849E-2
1.162078598E0,-9.762382135E-3,-1.968129724E-2,-1.791360788E-2,2.834704417E-2
1.164523650E0,-1.037324686E-2,-1.784870401E-2,-1.913533732E-2,2.814856337E-2
1.166969483E0,-1.159497630E-2,-1.723783836E-2,-1.974620298E-2,2.866180522E-2
1.169414483E0,-1.098411158E-2,-1.662697271E-2,-1.852447167E-2,2.720777424E-2
1.171858754E0,-1.159497630E-2,-1.479438040E-2,-1.852447167E-2,2.639077903E-2
1.174303754E0,-1.220584102E-2,-1.174005587E-2,-1.730274409E-2,2.421149355E-2
1.176749587E0,-1.220584102E-2,-1.112919208E-2,-1.791360788E-2,2.436675642E-2
1.179194639E0,-1.281670574E-2,-8.074869402E-3,-1.730274409E-2,2.299687837E-2
1.181638858E0,-1.403843518E-2,-5.631410517E-3,-1.852447167E-2,2.391540293E-2
1.184083910E0,-1.403843518E-2,-3.798815189E-3,-1.791360788E-2,2.307392482E-2
1.186529744E0,-1.648189314E-2,-1.336268615E-4,-1.791360788E-2,2.434271975E-2
1.188974744E0,-1.648189314E-2,1.698966371E-3,-1.791360788E-2,2.440157035E-2
1.191419014E0,-1.770362258E-2,4.142425023E-3,-1.730274409E-2,2.509906155E-2
1.193864014E0,-1.709275879E-2,3.531559603E-3,-1.730274409E-2,2.457680348E-2
1.196309848E0,-1.709275879E-2,4.142425023E-3,-1.730274409E-2,2.467198900E-2
1.198754900E0,-1.648189314E-2,6.585883908E-3,-1.730274409E-2,2.478732784E-2
1.201199119E0,-1.648189314E-2,7.196749561E-3,-1.669187844E-2,2.453700902E-2
1.203644171E0,-1.587102748E-2,5.364156328E-3,-1.608101279E-2,2.322202960E-2
1.206090004E0,-1.587102748E-2,5.975021981E-3,-1.608101279E-2,2.337069475E-2
1.208535004E0,-1.464930084E-2,5.364156328E-3,-1.485928334E-2,2.154470909E-2
1.210979275E0,-1.526016463E-2,5.364156328E-3,-1.424841955E-2,2.155607240E-2
1.213424327E0,-1.464930084E-2,7.196749561E-3,-1.485928334E-2,2.207246068E-2
1.215870108E0,-1.464930084E-2,6.585883908E-3,-1.424841955E-2,2.147075550E-2
1.218315160E0,-1.526016463E-2,5.364156328E-3,-1.363755390E-2,2.115726055E-2
1.220759379E0,-1.526016463E-2,4.753290676E-3,-1.302669011E-2,2.061943384E-2
1.223204431E0,-1.464930084E-2,4.753290676E-3,-1.363755390E-2,2.057130680E-2
1.225650264E0,-1.526016463E-2,5.364156328E-3,-1.424841955E-2,2.155607240E-2
1.228095317E0,-1.281670574E-2,3.531559603E-3,-1.363755390E-2,1.904528119E-2
1.230539535E0,-1.159497630E-2,2.920697676E-3,-1.241582446E-2,1.723736196E-2
1.232984587E0,-1.281670574E-2,1.698966371E-3,-1.241582446E-2,1.792504197E-2
1.235430369E0,-1.342756953E-2,-1.355358167E-3,-1.363755390E-2,1.918644041E-2
1.237875421E0,-1.220584102E-2,-3.187951399E-3,-1.302669011E-2,1.813395281E-2
1.240319639E0,-1.098411158E-2,-5.020544864E-3,-1.302669011E-2,1.776376180E-2
1.242764692E0,-9.762382135E-3,-8.074869402E-3,-1.241582446E-2,1.773866731E-2
1.245210525E0,-8.540652692E-3,-9.296596982E-3,-1.363755390E-2,1.858365788E-2
1.247655577E0,-9.762382135E-3,-1.051832829E-2,-1.547014900E-2,2.110129960E-2
1.250099796E0,-8.540652692E-3,-1.051832829E-2,-1.608101279E-2,2.102800396E-2
1.252544848E0,-1.037324686E-2,-1.051832829E-2,-1.669187844E-2,2.229031821E-2
1.254990629E0,-6.097193807E-3,-9.296596982E-3,-1.547014900E-2,1.905066922E-2
1.257435681E0,-9.151517414E-3,-8.074869402E-3,-1.547014900E-2,1.970480390E-2
1.259879952E0,-6.097193807E-3,-4.409679212E-3,-1.730274409E-2,1.886812116E-2
1.262324952E0,-9.151517414E-3,-3.187951399E-3,-1.852447167E-2,2.090620376E-2
1.264770785E0,-8.540652692E-3,-1.355358167E-3,-1.974620298E-2,2.155672230E-2
1.267215837E0,-6.708058529E-3,4.772387911E-4,-2.035706677E-2,2.143912250E-2
1.269660056E0,-8.540652692E-3,1.698966371E-3,-1.913533732E-2,2.102356700E-2
1.272105108E0,-7.318923250E-3,3.531559603E-3,-1.913533732E-2,2.078941282E-2
1.274550942E0,-9.762382135E-3,2.309832023E-3,-1.913533732E-2,2.160556788E-2
1.276995942E0,-6.097193807E-3,4.142425023E-3,-1.974620298E-2,2.107719121E-2
1.279440212E0,-1.037324686E-2,2.920697676E-3,-1.913533732E-2,2.196123539E-2
1.281885212E0,-8.540652692E-3,4.142425023E-3,-1.791360788E-2,2.027312953E-2
1.284331046E0,-9.762382135E-3,2.920697676E-3,-1.608101279E-2,1.903768768E-2
1.286776098E0,-9.151517414E-3,2.920697676E-3,-1.547014900E-2,1.821005919E-2
1.289220317E0,-7.318923250E-3,1.698966371E-3,-1.485928334E-2,1.665086862E-2
1.291665369E0,-1.037324686E-2,4.772387911E-4,-1.485928334E-2,1.812816341E-2
1.294111202E0,-7.318923250E-3,-7.444925141E-4,-1.180496067E-2,1.390963706E-2
1.296556202E0,-8.540652692E-3,-3.187951399E-3,-9.972365573E-3,1.351124930E-2
1.299000473E0,-5.486329086E-3,-5.020544864E-3,-8.139772341E-3,1.102549642E-2
1.301445473E0,-7.318923250E-3,-8.685733192E-3,-7.528907154E-3,1.362692341E-2
1.303891306E0,-6.097193807E-3,-6.242274307E-3,-7.528907154E-3,1.152502511E-2
1.306336358E0,-6.708058529E-3,-9.296596982E-3,-5.696313921E-3,1.280127950E-2
1.308780577E0,-5.486329086E-3,-9.296596982E-3,-5.085448269E-3,1.193265714E-2
1.311225629E0,-5.486329086E-3,-8.685733192E-3,-5.085448269E-3,1.146313884E-2
1.313671462E0,-7.318923250E-3,-8.685733192E-3,-5.085448269E-3,1.244469295E-2
1.316116462E0,-5.486329086E-3,-8.074869402E-3,-4.474584479E-3,1.073895847E-2
1.318560733E0,-9.151517414E-3,-7.464003749E-3,-5.696313921E-3,1.311143071E-2
1.321005733E0,-4.875464365E-3,-6.853138097E-3,-6.307177711E-3,1.051266594E-2
1.323451567E0,-7.929787971E-3,-6.853138097E-3,-5.696313921E-3,1.192874810E-2
1.325896619E0,-3.653734690E-3,-3.798815189E-3,-6.918043364E-3,8.697131596E-3
1.328340837E0,-7.318923250E-3,-3.798815189E-3,-8.139772341E-3,1.158678248E-2
1.330785889E0,-6.708058529E-3,-1.966220094E-3,-8.750636131E-3,1.119989747E-2
1.333231723E0,-6.097193807E-3,-7.444925141E-4,-8.750636131E-3,1.069128964E-2
1.335676723E0,-8.540652692E-3,4.772387911E-4,-9.361501783E-3,1.268101813E-2
1.338120994E0,-3.042869968E-3,4.772387911E-4,-1.119409502E-2,1.161010671E-2
1.340566046E0,-4.875464365E-3,1.088104444E-3,-1.302669011E-2,1.395165866E-2
1.343011827E0,-4.264599644E-3,1.698966371E-3,-1.363755390E-2,1.438944659E-2
1.345456879E0,-5.486329086E-3,2.920697676E-3,-1.180496067E-2,1.334119103E-2
1.347901098E0,-4.875464365E-3,1.088104444E-3,-1.119409502E-2,1.225813555E-2
1.350346150E0,-4.264599644E-3,1.088104444E-3,-1.241582446E-2,1.317283107E-2
1.352791983E0,-5.486329086E-3,3.531559603E-3,-1.180496067E-2,1.348809907E-2
1.355237035E0,-4.875464365E-3,2.920697676E-3,-1.241582446E-2,1.365479127E-2
1.357681254E0,-4.264599644E-3,3.531559603E-3,-1.241582446E-2,1.359453641E-2
1.360126306E0,-5.486329086E-3,3.531559603E-3,-9.972365573E-3,1.191720585E-2
1.362572087E0,-5.486329086E-3,2.309832023E-3,-9.361501783E-3,1.109382019E-2
1.365017139E0,-4.264599644E-3,3.531559603E-3,-8.139772341E-3,9.844522188E-3
1.367461410E0,-4.264599644E-3,3.531559603E-3,-6.918043364E-3,8.861040985E-3
1.369906410E0,-4.264599644E-3,1.088104444E-3,-6.918043364E-3,8.199396648E-3
1.372352244E0,-3.042869968E-3,-1.336268615E-4,-6.918043364E-3,7.558851617E-3
1.374797296E0,-3.042869968E-3,-1.355358167E-3,-5.696313921E-3,6.598791230E-3
1.377241514E0,-1.821140526E-3,-1.355358167E-3,-5.085448269E-3,5.569141107E-3
1.379686567E0,-3.042869968E-3,-1.355358167E-3,-5.696313921E-3,6.598791230E-3
1.382132400E0,-2.432005247E-3,-7.444925141E-4,-5.085448269E-3,5.686009384E-3
1.384577400E0,-1.821140526E-3,4.772387911E-4,-4.474584479E-3,4.854504706E-3
1.387021671E0,-1.821140526E-3,-1.355358167E-3,-4.474584479E-3,5.017514806E-3
1.389466671E0,-3.653734690E-3,1.088104444E-3,-3.252855036E-3,5.011468283E-3
1.391912504E0,-2.432005247E-3,2.309832023E-3,-3.252855036E-3,4.672369783E-3
1.394357556E0,-4.264599644E-3,1.698966371E-3,-2.031125594E-3,5.019837450E-3
1.396801775E0,-5.486329086E-3,1.088104444E-3,-2.641989384E-3,6.185780955E-3
1.399246827E0,-4.875464365E-3,1.088104444E-3,-3.252855036E-3,5.961139987E-3
1.401692660E0,-6.097193807E-3,1.088104444E-3,-2.031125594E-3,6.518068332E-3
1.404137660E0,-5.486329086E-3,-7.444925141E-4,-2.031125594E-3,5.897418683E-3
1.406581931E0,-4.264599644E-3,-1.355358167E-3,-4.474584479E-3,6.328168150E-3
1.409026931E0,-5.486329086E-3,-2.577085746E-3,-3.252855036E-3,6.879116489E-3
1.411472764E0,-5.486329086E-3,-4.409679212E-3,-2.641989384E-3,7.518323317E-3
1.413917817E0,-5.486329086E-3,-6.242274307E-3,-3.252855036E-3,8.924509020E-3
1.416362035E0,-6.708058529E-3,-8.074869402E-3,-3.863718826E-3,1.118614716E-2
1.418807087E0,-4.264599644E-3,-1.051832829E-2,-3.863718826E-3,1.198959396E-2
1.421252921E0,-3.042869968E-3,-1.235092152E-2,-3.863718826E-3,1.329408301E-2
1.423697921E0,-3.653734690E-3,-1.296178717E-2,-3.863718826E-3,1.401021153E-2
1.426142192E0,-4.264599644E-3,-1.479438040E-2,-5.085448269E-3,1.621487853E-2
1.428587192E0,-3.653734690E-3,-1.540524606E-2,-5.085448269E-3,1.662928644E-2
1.431033025E0,-3.653734690E-3,-1.723783836E-2,-5.696313921E-3,1.851866196E-2
1.433478077E0,-3.653734690E-3,-1.723783836E-2,-3.863718826E-3,1.803943379E-2
1.435922296E0,-2.432005247E-3,-1.784870401E-2,-5.085448269E-3,1.871771002E-2
1.438367348E0,-3.042869968E-3,-1.723783836E-2,-4.474584479E-3,1.806720884E-2
1.440813181E0,-2.432005247E-3,-1.540524606E-2,-5.696313921E-3,1.660374198E-2
1.443258181E0,-1.821140526E-3,-1.601610892E-2,-4.474584479E-3,1.672884347E-2
1.445702452E0,-5.994110834E-4,-1.418351475E-2,-4.474584479E-3,1.488466629E-2
1.448147452E0,6.223183591E-4,-1.174005587E-2,-3.863718826E-3,1.237515717E-2
1.450593285E0,6.223183591E-4,-1.051832829E-2,-6.307177711E-3,1.228018733E-2
1.453038337E0,1.145363785E-5,-6.853138097E-3,-8.139772341E-3,1.064056045E-2
1.455482556E0,1.233183080E-3,-4.409679212E-3,-9.361501783E-3,1.042131119E-2
1.457927608E0,1.145363785E-5,-1.966220094E-3,-1.058323123E-2,1.076433629E-2
1.460373442E0,-5.994110834E-4,2.920697676E-3,-1.180496067E-2,1.217566692E-2
1.462818442E0,-1.210275805E-3,5.364156328E-3,-1.302669011E-2,1.413978769E-2
1.465262712E0,-5.994110834E-4,9.029342793E-3,-1.180496067E-2,1.487432087E-2
1.467707764E0,-1.210275805E-3,1.269453298E-2,-1.119409502E-2,1.696831454E-2
1.470153546E0,-2.432005247E-3,1.697058603E-2,-1.241582446E-2,2.116762001E-2
1.472598598E0,-2.432005247E-3,1.819231361E-2,-1.241582446E-2,2.215914306E-2
1.475042817E0,-2.432005247E-3,2.185750380E-2,-1.180496067E-2,2.496041302E-2
1.477487869E0,-2.432005247E-3,2.307923138E-2,-1.180496067E-2,2.603694811E-2
1.479933702E0,-1.821140526E-3,2.491182834E-2,-1.180496067E-2,2.762739294E-2
1.482378754E0,-2.432005247E-3,2.613355592E-2,-1.180496067E-2,2.877906341E-2
1.484822973E0,-3.042869968E-3,2.613355592E-2,-1.058323123E-2,2.835888901E-2
1.487268025E0,-3.653734690E-3,2.796614915E-2,-1.058323123E-2,3.012407772E-2
1.489713806E0,-4.264599644E-3,2.796614915E-2,-9.972365573E-3,2.999567275E-2
1.492158858E0,-6.097193807E-3,2.979874611E-2,-9.361501783E-3,3.182418511E-2
1.494603129E0,-6.708058529E-3,2.979874611E-2,-8.750636131E-3,3.177321123E-2
1.497048129E0,-6.097193807E-3,3.102047741E-2,-6.918043364E-3,3.236209380E-2
1.499493962E0,-6.097193807E-3,3.040961176E-2,-8.139772341E-3,3.206518601E-2
1.501939014E0,-7.318923250E-3,2.979874611E-2,-6.307177711E-3,3.132590618E-2
1.504383233E0,-6.097193807E-3,3.102047741E-2,-5.696313921E-3,3.212310358E-2
1.506828285E0,-6.708058529E-3,3.102047741E-2,-5.085448269E-3,3.214233738E-2
1.509274119E0,-7.318923250E-3,2.857701480E-2,-5.085448269E-3,2.993449844E-2
1.511719119E0,-8.540652692E-3,2.613355592E-2,-4.474584479E-3,2.785547342E-2
1.514163389E0,-7.318923250E-3,2.369009703E-2,-3.863718826E-3,2.509413593E-2
1.516608389E0,-6.708058529E-3,2.307923138E-2,-3.863718826E-3,2.434291054E-2
1.519054223E0,-6.708058529E-3,2.185750380E-2,-3.863718826E-3,2.318785986E-2
1.521499275E0,-6.708058529E-3,2.185750380E-2,-4.474584479E-3,2.329743393E-2
1.523943494E0,-6.097193807E-3,2.002491057E-2,-3.252855036E-3,2.118381178E-2
1.526388546E0,-6.097193807E-3,2.002491057E-2,-4.474584479E-3,2.140548345E-2
1.528834379E0,-4.264599644E-3,1.880317926E-2,-3.863718826E-3,1.966404546E-2
1.531279379E0,-4.264599644E-3,1.697058603E-2,-3.863718826E-3,1.791970769E-2
1.533723650E0,-3.653734690E-3,1.391626056E-2,-3.252855036E-3,1.475103898E-2
1.536168650E0,-3.042869968E-3,9.029342793E-3,-3.863718826E-3,1.028184867E-2
1.538614483E0,-3.653734690E-3,5.975021981E-3,-3.863718826E-3,7.998686643E-3
1.541059535E0,-1.210275805E-3,1.698966371E-3,-3.252855036E-3,3.864236036E-3
1.543503754E0,-5.994110834E-4,-3.187951399E-3,-3.863718826E-3,5.044863818E-3
1.545948806E0,6.223183591E-4,-5.631410517E-3,-2.641989384E-3,6.251413636E-3
1.548394639E0,2.454912523E-3,-1.112919208E-2,-2.031125594E-3,1.157631128E-2
1.550839639E0,3.676641965E-3,-1.601610892E-2,-2.031125594E-3,1.655774478E-2
1.553283910E0,4.287506454E-3,-1.723783836E-2,-2.641989384E-3,1.795844901E-2
1.555728910E0,6.120100617E-3,-2.151389048E-2,-3.863718826E-3,2.269871005E-2
1.558174744E0,7.341830060E-3,-2.334648557E-2,-3.252855036E-3,2.468890283E-2
1.560619796E0,7.341830060E-3,-2.334648557E-2,-3.863718826E-3,2.477678713E-2
1.563064014E0,6.730965339E-3,-2.456821501E-2,-4.474584479E-3,2.586358424E-2
1.565509067E0,7.341830060E-3,-2.578994446E-2,-4.474584479E-3,2.718539332E-2
1.567954900E0,7.952694781E-3,-2.762253955E-2,-5.085448269E-3,2.919095458E-2
1.570399900E0,9.785288945E-3,-2.884426713E-2,-5.085448269E-3,3.088050210E-2
1.572844171E0,1.039615367E-2,-2.945513278E-2,-3.863718826E-3,3.147400803E-2
1.575289171E0,9.174424224E-3,-3.006599844E-2,-2.641989384E-3,3.154543437E-2
1.577735004E0,1.161788311E-2,-3.067686222E-2,-3.252855036E-3,3.296401295E-2
1.580180056E0,1.283961255E-2,-3.128772601E-2,-1.420259941E-3,3.384958771E-2
1.582624275E0,1.161788311E-2,-2.945513278E-2,-8.093961515E-4,3.167388794E-2
1.585069327E0,1.283961255E-2,-2.823340334E-2,-1.420259941E-3,3.104831482E-2
1.587515160E0,1.406134106E-2,-2.701167390E-2,-1.985309646E-4,3.045309925E-2
1.589960160E0,1.345047727E-2,-2.701167390E-2,-1.985309646E-4,3.017590562E-2
1.592404431E0,1.345047727E-2,-2.456821501E-2,-1.985309646E-4,2.800985438E-2
1.594849431E0,1.467220671E-2,-2.334648557E-2,1.023198478E-3,2.759309648E-2
1.597295264E0,1.406134106E-2,-2.029216290E-2,1.634063199E-3,2.474193505E-2
1.599740317E0,1.467220671E-2,-1.845956780E-2,2.855792642E-3,2.375257554E-2
1.602184535E0,1.345047727E-2,-1.540524606E-2,5.299251527E-3,2.112626355E-2
1.604629587E0,1.345047727E-2,-1.418351475E-2,4.688386805E-3,2.010145269E-2
1.607075421E0,1.345047727E-2,-1.296178717E-2,4.688386805E-3,1.925887422E-2
1.609520473E0,1.283961255E-2,-1.296178717E-2,5.910116248E-3,1.917793136E-2
1.611964692E0,1.222874783E-2,-1.357265096E-2,6.520980969E-3,1.939799785E-2
1.614409744E0,1.283961255E-2,-1.357265096E-2,6.520980969E-3,1.978877706E-2
1.616855525E0,1.345047727E-2,-1.479438040E-2,5.910116248E-3,2.084990418E-2
1.619300577E0,1.283961255E-2,-1.540524606E-2,6.520980969E-3,2.108792188E-2
1.621744796E0,1.222874783E-2,-1.662697271E-2,8.353575133E-3,2.226613375E-2
1.624189848E0,1.283961255E-2,-1.723783836E-2,8.964439854E-3,2.328862176E-2
1.626635681E0,1.283961255E-2,-2.090302669E-2,1.018616930E-2,2.656219532E-2
1.629080733E0,1.283961255E-2,-2.029216290E-2,1.140789874E-2,2.658510258E-2
1.631524952E0,1.345047727E-2,-2.151389048E-2,1.262962818E-2,2.834202410E-2
1.633970004E0,1.467220671E-2,-2.334648557E-2,1.385135762E-2,3.085761083E-2
1.636415837E0,1.467220671E-2,-2.334648557E-2,1.262962818E-2,3.032885666E-2
1.638860837E0,1.283961255E-2,-2.456821501E-2,1.262962818E-2,3.046244159E-2
1.641305056E0,1.222874783E-2,-2.517908067E-2,1.385135762E-2,3.123121011E-2
1.643750108E0,1.100701839E-2,-2.395734936E-2,1.385135762E-2,2.978202730E-2
1.646195942E0,1.100701839E-2,-2.273562178E-2,1.262962818E-2,2.824128998E-2
1.648640994E0,1.100701839E-2,-2.273562178E-2,1.201876346E-2,2.797344503E-2
1.651085212E0,1.039615367E-2,-2.029216290E-2,1.201876346E-2,2.577406761E-2
1.653530264E0,9.174424224E-3,-1.907043159E-2,1.018616930E-2,2.348636766E-2
1.655976098E0,9.174424224E-3,-1.601610892E-2,1.079703402E-2,2.138367948E-2
1.658421098E0,9.174424224E-3,-1.357265096E-2,1.140789874E-2,1.996314273E-2
1.660865369E0,7.341830060E-3,-8.074869402E-3,1.018616930E-2,1.492863120E-2
1.663310369E0,6.120100617E-3,-5.020544864E-3,9.575304575E-3,1.242368544E-2
1.665756202E0,4.898371175E-3,-3.187951399E-3,8.353575133E-3,1.019506213E-2
1.668201254E0,3.676641965E-3,-1.336268615E-4,7.131845690E-3,8.024884749E-3
1.670645473E0,3.676641965E-3,2.920697676E-3,8.353575133E-3,9.582817360E-3
1.673090525E0,3.676641965E-3,4.753290676E-3,8.964439854E-3,1.079224955E-2
1.675536358E0,2.454912523E-3,6.585883908E-3,8.353575133E-3,1.091708202E-2
1.677981358E0,1.844047802E-3,8.418477140E-3,8.964439854E-3,1.243512974E-2
1.680425629E0,1.233183080E-3,8.418477140E-3,9.575304575E-3,1.280929177E-2
1.682870629E0,1.145363785E-5,7.196749561E-3,8.964439854E-3,1.149584783E-2
1.685316462E0,1.233183080E-3,7.807615213E-3,7.742710412E-3,1.106477114E-2
1.687761514E0,1.844047802E-3,7.807615213E-3,8.353575133E-3,1.158195083E-2
1.690205733E0,3.065777244E-3,4.753290676E-3,8.353575133E-3,1.008835863E-2
1.692650785E0,1.844047802E-3,2.920697676E-3,9.575304575E-3,1.017926544E-2
1.695096619E0,2.454912523E-3,1.088104444E-3,9.575304575E-3,9.944698310E-3
1.697541619E0,3.065777244E-3,-7.444925141E-4,9.575304575E-3,1.008165249E-2
1.699985889E0,3.676641965E-3,-1.966220094E-3,1.079703402E-2,1.157409440E-2
1.702430889E0,4.287506454E-3,-3.187951399E-3,8.964439854E-3,1.043584820E-2
1.704876723E0,4.898371175E-3,-5.020544864E-3,1.079703402E-2,1.287539726E-2
1.707321775E0,5.509235896E-3,-7.464003749E-3,1.018616930E-2,1.377755701E-2
1.709765994E0,5.509235896E-3,-1.051832829E-2,9.575304575E-3,1.525363458E-2
1.712211046E0,6.120100617E-3,-1.235092152E-2,7.131845690E-3,1.551979758E-2
1.714656879E0,6.120100617E-3,-1.357265096E-2,6.520980969E-3,1.625409728E-2
1.717101879E0,7.341830060E-3,-1.479438040E-2,6.520980969E-3,1.775667066E-2
1.719546150E0,6.120100617E-3,-1.479438040E-2,5.299251527E-3,1.686450088E-2
1.721991150E0,6.120100617E-3,-1.662697271E-2,4.077522084E-3,1.818070514E-2
1.724436983E0,7.341830060E-3,-1.601610892E-2,4.077522084E-3,1.808436893E-2
1.726882035E0,7.952694781E-3,-1.723783836E-2,3.466657363E-3,1.929782731E-2
1.729326254E0,7.341830060E-3,-1.784870401E-2,1.634063199E-3,1.936876005E-2
1.731771306E0,8.563559502E-3,-1.723783836E-2,1.023198478E-3,1.927497231E-2
1.734217139E0,8.563559502E-3,-1.662697271E-2,2.244927920E-3,1.883694439E-2
1.736662139E0,9.174424224E-3,-1.662697271E-2,2.244927920E-3,1.912239479E-2
1.739106410E0,9.174424224E-3,-1.662697271E-2,2.244927920E-3,1.912239479E-2
1.741551462E0,9.174424224E-3,-1.540524606E-2,2.855792642E-3,1.815618951E-2
1.743997244E0,9.785288945E-3,-1.540524606E-2,2.855792642E-3,1.847238581E-2
1.746442296E0,1.039615367E-2,-1.662697271E-2,1.023198478E-3,1.963627173E-2
1.748886514E0,9.785288945E-3,-1.540524606E-2,1.023198478E-3,1.827896116E-2
1.751331567E0,1.100701839E-2,-1.662697271E-2,2.244927920E-3,2.006615002E-2
1.753777400E0,1.100701839E-2,-1.723783836E-2,2.244927920E-3,2.057516042E-2
1.756222452E0,1.039615367E-2,-1.662697271E-2,3.466657363E-3,1.991366229E-2
1.758666671E0,1.222874783E-2,-1.723783836E-2,3.466657363E-3,2.141735413E-2
1.761111723E0,1.161788311E-2,-1.723783836E-2,5.299251527E-3,2.145228067E-2
1.763557556E0,1.100701839E-2,-1.540524606E-2,2.855792642E-3,1.914762678E-2
1.766002556E0,1.161788311E-2,-1.479438040E-2,2.244927920E-3,1.894435538E-2
1.768446827E0,1.222874783E-2,-1.418351475E-2,3.466657363E-3,1.904552644E-2
1.770891827E0,1.222874783E-2,-1.235092152E-2,4.077522084E-3,1.785255506E-2
1.773337660E0,1.100701839E-2,-1.051832829E-2,2.855792642E-3,1.549016576E-2
1.775782712E0,1.222874783E-2,-9.296596982E-3,3.466657363E-3,1.574759354E-2
1.778226931E0,1.161788311E-2,-7.464003749E-3,2.244927920E-3,1.399022020E-2
1.780671983E0,1.161788311E-2,-3.798815189E-3,1.634063199E-3,1.233192472E-2
1.783117817E0,1.283961255E-2,-2.577085746E-3,1.023198478E-3,1.313559883E-2
1.785562817E0,1.283961255E-2,-7.444925141E-4,4.123337567E-4,1.286778686E-2
1.788007087E0,1.100701839E-2,2.920697676E-3,-8.093961515E-4,1.141665673E-2
1.790452087E0,1.161788311E-2,2.920697676E-3,-2.641989384E-3,1.226726501E-2
1.792897921E0,1.100701839E-2,5.975021981E-3,-2.641989384E-3,1.279982224E-2
1.795342973E0,1.039615367E-2,7.807615213E-3,-3.863718826E-3,1.356345050E-2
1.797787192E0,1.161788311E-2,9.640208445E-3,-3.863718826E-3,1.558323298E-2
1.800232244E0,1.039615367E-2,1.086193975E-2,-5.696313921E-3,1.607823804E-2
1.802678077E0,9.174424224E-3,1.086193975E-2,-5.085448269E-3,1.510011851E-2
1.805123077E0,7.952694781E-3,1.452712622E-2,-5.085448269E-3,1.732467992E-2
1.807567348E0,1.039615367E-2,1.452712622E-2,-3.863718826E-3,1.827691796E-2
1.810012348E0,1.039615367E-2,1.452712622E-2,-2.031125594E-3,1.797895654E-2
1.812458181E0,1.161788311E-2,1.452712622E-2,-2.641989384E-3,1.878810027E-2
1.814903233E0,1.161788311E-2,1.758145168E-2,-1.420259941E-3,2.112107454E-2
1.817347452E0,1.100701839E-2,1.819231361E-2,4.123337567E-4,2.126698727E-2
1.819792504E0,1.222874783E-2,2.002491057E-2,1.023198478E-3,2.348587345E-2
1.822238337E0,1.345047727E-2,2.063577622E-2,2.855792642E-3,2.479730128E-2
1.824683337E0,1.222874783E-2,2.430096269E-2,4.688386805E-3,2.760543482E-2
1.827127608E0,1.406134106E-2,2.613355592E-2,4.077522084E-3,2.995513719E-2
1.829572608E0,1.467220671E-2,2.857701480E-2,4.688386805E-3,3.246383212E-2
1.832018442E0,1.528307237E-2,3.040961176E-2,5.299251527E-3,3.444414109E-2
1.834463494E0,1.589393616E-2,3.163133562E-2,7.131845690E-3,3.611124233E-2
1.836907712E0,1.772653125E-2,3.407479823E-2,7.742710412E-3,3.918253883E-2
1.839352764E0,1.772653125E-2,3.529652953E-2,7.131845690E-3,4.013649375E-2
1.841798598E0,1.955912448E-2,4.018344730E-2,7.131845690E-3,4.525629250E-2
1.844243598E0,1.955912448E-2,4.323776811E-2,6.520980969E-3,4.790184897E-2
1.846687869E0,2.200258337E-2,4.690295458E-2,7.742710412E-3,5.238272986E-2
1.849132869E0,2.322431467E-2,5.056814849E-2,7.742710412E-3,5.618234597E-2
1.851578702E0,2.505690791E-2,5.484420061E-2,5.910116248E-3,6.058600869E-2
1.854023754E0,2.322431467E-2,6.034198031E-2,5.910116248E-3,6.492651888E-2
1.856467973E0,2.383517660E-2,6.583976001E-2,4.077522084E-3,7.013997311E-2
1.858913025E0,2.505690791E-2,7.133754343E-2,4.077522084E-3,7.572001005E-2
1.861358858E0,2.505690791E-2,7.744618505E-2,2.855792642E-3,8.144885367E-2
1.863803858E0,2.383517660E-2,8.355484158E-2,3.466657363E-3,8.695714409E-2
1.866248129E0,2.383517660E-2,8.844175190E-2,4.077522084E-3,9.168797799E-2
1.868693129E0,2.322431467E-2,9.271780401E-2,3.466657363E-3,9.564506096E-2
1.871138962E0,2.383517660E-2,9.516126662E-2,4.077522084E-3,9.818558191E-2
1.873584014E0,2.261344902E-2,9.821558744E-2,2.855792642E-3,1.008257172E-1
1.876028233E0,2.322431467E-2,9.943731874E-2,5.299251527E-3,1.022508250E-1
1.878473285E0,2.322431467E-2,1.000481769E-1,5.910116248E-3,1.028782580E-1
1.880919119E0,2.444604225E-2,1.006590500E-1,6.520980969E-3,1.037900599E-1
1.883364119E0,2.505690791E-2,1.006590500E-1,7.742710412E-3,1.040194335E-1
1.885808389E0,2.505690791E-2,9.882644564E-2,8.353575133E-3,1.022951475E-1
1.888253389E0,2.505690791E-2,9.760471433E-2,1.079703402E-2,1.013464594E-1
1.890699223E0,2.566777356E-2,9.332866222E-2,1.079703402E-2,9.739430032E-2
1.893144275E0,2.444604225E-2,8.966348320E-2,1.324049290E-2,9.387470295E-2
1.895588494E0,2.505690791E-2,8.538743109E-2,1.324049290E-2,8.996762014E-2
1.898033546E0,2.566777356E-2,8.111137897E-2,1.568395272E-2,8.650940279E-2
1.900479379E0,2.505690791E-2,7.500273734E-2,1.751654595E-2,8.099437403E-2
1.902924431E0,2.566777356E-2,7.011581212E-2,1.812741160E-2,7.683530934E-2
1.905368650E0,2.750036679E-2,6.339629740E-2,1.996000484E-2,7.192887105E-2
1.907813702E0,2.872209437E-2,5.912025273E-2,2.240346372E-2,6.944118500E-2
1.910259535E0,2.872209437E-2,5.423333496E-2,2.179259807E-2,6.512396376E-2
1.912704535E0,2.933296002E-2,5.056814849E-2,2.301432937E-2,6.282690142E-2
1.915148754E0,2.994382568E-2,4.262690246E-2,2.362519316E-2,5.719995858E-2
1.917593806E0,3.055469133E-2,3.590739518E-2,2.423605695E-2,5.301241975E-2
1.920039639E0,2.933296002E-2,3.163133562E-2,2.484692261E-2,4.978286351E-2
1.922484692E0,3.055469133E-2,2.674442157E-2,2.729038149E-2,4.892461721E-2
1.924928910E0,3.116555326E-2,2.246836945E-2,2.545778826E-2,4.608924298E-2
1.927373962E0,3.238728642E-2,1.880317926E-2,2.362519316E-2,4.427917823E-2
1.929819744E0,3.177642077E-2,1.697058603E-2,2.301432937E-2,4.274811182E-2
1.932264796E0,3.421987966E-2,1.391626056E-2,2.301432937E-2,4.352380760E-2
1.934709014E0,3.360901400E-2,1.330539491E-2,2.179259807E-2,4.220801685E-2
1.937154067E0,3.299815208E-2,1.025107410E-2,1.996000484E-2,3.990444028E-2
1.939599900E0,3.238728642E-2,8.418477140E-3,1.812741160E-2,3.805798380E-2
1.942044952E0,3.421987966E-2,8.418477140E-3,1.446222235E-2,3.809234564E-2
1.944489171E0,3.544161096E-2,9.029342793E-3,1.262962818E-2,3.869294932E-2
1.946934223E0,3.483074531E-2,1.208366733E-2,1.018616930E-2,3.824858010E-2
1.949380056E0,3.483074531E-2,1.452712622E-2,8.353575133E-3,3.865230177E-2
1.951825056E0,3.544161096E-2,2.063577622E-2,6.520980969E-3,4.152669311E-2
1.954269275E0,3.421987966E-2,2.552269399E-2,5.299251527E-3,4.301732371E-2
1.956714327E0,3.483074531E-2,3.285306692E-2,3.466657363E-3,4.800544280E-2
1.959160160E0,3.299815208E-2,3.712911904E-2,1.634063199E-3,4.970029863E-2
1.961605212E0,3.116555326E-2,4.201603681E-2,1.023198478E-3,5.232290124E-2
1.964049431E0,2.994382568E-2,4.568123072E-2,4.123337567E-4,5.462213430E-2
1.966494483E0,2.811123244E-2,5.178987235E-2,-1.985309646E-4,5.892768180E-2
1.968940317E0,2.627863549E-2,5.484420061E-2,-1.985309646E-4,6.081523196E-2
1.971385317E0,2.627863549E-2,5.667679012E-2,4.123337567E-4,6.247395650E-2
1.973829587E0,2.627863549E-2,5.850938708E-2,1.023198478E-3,6.414796952E-2
1.976274587E0,2.505690791E-2,5.789852142E-2,2.244927920E-3,6.312786325E-2
1.978720421E0,2.566777356E-2,5.789852142E-2,3.466657363E-3,6.342784165E-2
1.981165473E0,2.505690791E-2,5.973112211E-2,4.688386805E-3,6.494333340E-2
1.983609692E0,2.444604225E-2,5.606593192E-2,7.131845690E-3,6.157808804E-2
1.986054744E0,2.261344902E-2,5.484420061E-2,9.575304575E-3,6.009110479E-2
1.988500577E0,2.200258337E-2,5.178987235E-2,1.140789874E-2,5.741467327E-2
1.990945577E0,2.078085579E-2,4.751382023E-2,1.446222235E-2,5.383830379E-2
1.993389848E0,2.139171772E-2,4.384863377E-2,1.690568030E-2,5.163439064E-2
1.995834848E0,2.078085579E-2,3.957258165E-2,1.751654595E-2,4.800690125E-2
1.998280681E0,2.016999014E-2,3.407479823E-2,1.934913918E-2,4.407164126E-2
2.000725733E0,1.955912448E-2,2.979874611E-2,2.179259807E-2,4.177848670E-2
2.003169952E0,1.955912448E-2,2.246836945E-2,2.423605695E-2,3.840277898E-2
2.005615004E0,1.894825883E-2,1.819231361E-2,2.484692261E-2,3.615752135E-2
2.008060837E0,1.711566560E-2,1.391626056E-2,2.545778826E-2,3.368541673E-2
2.010505837E0,1.772653125E-2,1.025107410E-2,2.606865205E-2,3.314949547E-2
2.012950108E0,1.772653125E-2,5.364156328E-3,2.545778826E-2,3.148178944E-2
2.015395108E0,1.772653125E-2,1.088104444E-3,2.484692261E-2,3.054150364E-2
2.017840942E0,1.711566560E-2,-1.966220094E-3,2.240346372E-2,2.826176246E-2
2.020285994E0,1.711566560E-2,-5.631410517E-3,2.118173428E-2,2.780871555E-2
2.022730212E0,1.528307237E-2,-6.242274307E-3,1.812741160E-2,2.451818388E-2
2.025175264E0,1.528307237E-2,-8.685733192E-3,1.751654595E-2,2.481619721E-2
2.027621098E0,1.406134106E-2,-1.051832829E-2,1.507308707E-2,2.314205039E-2
2.030066098E0,1.345047727E-2,-1.112919208E-2,8.964439854E-3,1.962486782E-2
2.032510369E0,1.283961255E-2,-1.296178717E-2,8.353575133E-3,2.006603585E-2
2.034955369E0,1.161788311E-2,-1.296178717E-2,4.688386805E-3,1.802676081E-2
2.037401202E0,9.785288945E-3,-1.723783836E-2,1.634063199E-3,1.988881881E-2
2.039846254E0,9.785288945E-3,-1.907043159E-2,-8.093961515E-4,2.144967046E-2
2.042290473E0,8.563559502E-3,-2.090302669E-2,-2.641989384E-3,2.274315686E-2
2.044735525E0,8.563559502E-3,-2.151389048E-2,-3.863718826E-3,2.347573977E-2
2.047181358E0,8.563559502E-3,-2.212475613E-2,-5.085448269E-3,2.426316486E-2
2.049626358E0,9.174424224E-3,-2.517908067E-2,-6.918043364E-3,2.767698479E-2
2.052070629E0,7.341830060E-3,-2.578994446E-2,-7.528907154E-3,2.785153760E-2
2.054515629E0,7.952694781E-3,-2.701167390E-2,-8.750636131E-3,2.948642931E-2
2.056961462E0,7.952694781E-3,-2.701167390E-2,-7.528907154E-3,2.914721812E-2
2.059406514E0,7.341830060E-3,-2.945513278E-2,-6.918043364E-3,3.113465336E-2
2.061850733E0,6.730965339E-3,-2.823340334E-2,-5.085448269E-3,2.946680747E-2
2.064295785E0,6.120100617E-3,-2.823340334E-2,-6.307177711E-3,2.956959902E-2
2.066741619E0,6.730965339E-3,-2.884426713E-2,-6.307177711E-3,3.028329789E-2
2.069186619E0,6.730965339E-3,-2.884426713E-2,-5.085448269E-3,3.005261095E-2
2.071630889E0,5.509235896E-3,-2.762253955E-2,-5.085448269E-3,2.862198727E-2
2.074075889E0,4.287506454E-3,-2.701167390E-2,-3.252855036E-3,2.754259073E-2
2.076521723E0,4.287506454E-3,-2.701167390E-2,-2.031125594E-3,2.742514739E-2
2.078966775E0,5.509235896E-3,-2.640080824E-2,-1.420259941E-3,2.700687865E-2
2.081410994E0,4.898371175E-3,-2.456821501E-2,-1.420259941E-3,2.509199807E-2
2.083856046E0,3.676641965E-3,-2.212475613E-2,-1.985309646E-4,2.242904243E-2
2.086301879E0,1.145363785E-5,-2.151389048E-2,2.244927920E-3,2.163070308E-2
2.088746879E0,-5.994110834E-4,-2.151389048E-2,4.123337567E-4,2.152618861E-2
2.091191150E0,-1.210275805E-3,-1.907043159E-2,4.123337567E-4,1.911324535E-2
2.093636150E0,-1.821140526E-3,-1.968129724E-2,1.634063199E-3,1.983280556E-2
2.096081983E0,-1.821140526E-3,-1.784870401E-2,2.244927920E-3,1.808127454E-2
2.098527035E0,-3.653734690E-3,-1.907043159E-2,2.244927920E-3,1.954663244E-2
2.100971254E0,-4.875464365E-3,-1.845956780E-2,2.855792642E-3,1.930495656E-2
2.103416306E0,-4.875464365E-3,-1.540524606E-2,4.077522084E-3,1.666487159E-2
2.105862139E0,-5.486329086E-3,-1.540524606E-2,4.077522084E-3,1.685371174E-2
2.108307139E0,-7.318923250E-3,-1.357265096E-2,2.855792642E-3,1.568244379E-2
2.110751410E0,-9.762382135E-3,-1.235092152E-2,2.855792642E-3,1.600015372E-2
2.113196410E0,-9.762382135E-3,-9.296596982E-3,3.466657363E-3,1.391935823E-2
2.115642244E0,-1.159497630E-2,-8.074869402E-3,2.244927920E-3,1.430687571E-2
2.118087296E0,-1.342756953E-2,-6.242274307E-3,2.244927920E-3,1.497682588E-2
2.120531514E0,-1.526016463E-2,-5.020544864E-3,1.634063199E-3,1.614771370E-2
2.122976567E0,-1.464930084E-2,-4.409679212E-3,4.123337567E-4,1.530415972E-2
2.125422400E0,-1.526016463E-2,-1.966220094E-3,1.634063199E-3,1.547284099E-2
2.127867400E0,-1.709275879E-2,-1.336268615E-4,-1.985309646E-4,1.709443400E-2
2.130311671E0,-1.770362258E-2,2.309832023E-3,-1.420259941E-3,1.791007300E-2
2.132756671E0,-1.892535202E-2,4.142425023E-3,-2.031125594E-3,1.947958176E-2
2.135202504E0,-1.953621767E-2,4.753290676E-3,-2.641989384E-3,2.027899606E-2
2.137647556E0,-2.075794525E-2,7.807615213E-3,-4.474584479E-3,2.262461166E-2
2.140091775E0,-2.075794525E-2,1.025107410E-2,-3.863718826E-3,2.347136840E-2
2.142536827E0,-2.136881091E-2,1.086193975E-2,-3.863718826E-3,2.428036528E-2
2.144982660E0,-2.075794525E-2,1.330539491E-2,-4.474584479E-3,2.505888527E-2
2.147427712E0,-2.136881091E-2,1.330539491E-2,-4.474584479E-3,2.556719616E-2
2.149871931E0,-2.136881091E-2,1.697058603E-2,-6.307177711E-3,2.800727335E-2
2.152316931E0,-2.136881091E-2,1.697058603E-2,-6.918043364E-3,2.815113131E-2
2.154762764E0,-2.197967656E-2,1.758145168E-2,-6.918043364E-3,2.898401195E-2
2.157207817E0,-2.259054221E-2,1.819231361E-2,-5.696313921E-3,2.955910797E-2
2.159652035E0,-2.136881091E-2,1.941404492E-2,-6.918043364E-3,2.968822230E-2
2.162097087E0,-2.136881091E-2,2.063577622E-2,-7.528907154E-3,3.064548552E-2
2.164542921E0,-2.075794525E-2,2.185750380E-2,-8.750636131E-3,3.138815694E-2
2.166987921E0,-2.197967656E-2,2.063577622E-2,-7.528907154E-3,3.107452147E-2
2.169432192E0,-2.197967656E-2,2.246836945E-2,-6.918043364E-3,3.218374017E-2
2.171877244E0,-2.197967656E-2,2.124663815E-2,-6.918043364E-3,3.134302376E-2
2.174323025E0,-2.259054221E-2,2.185750380E-2,-6.307177711E-3,3.206031130E-2
2.176768077E0,-2.320140414E-2,2.124663815E-2,-6.307177711E-3,3.208590465E-2
2.179212296E0,-2.259054221E-2,1.941404492E-2,-7.528907154E-3,3.072331656E-2
2.181657348E0,-2.320140414E-2,1.697058603E-2,-5.085448269E-3,2.919191204E-2
2.184103181E0,-2.075794525E-2,1.635972038E-2,-5.085448269E-3,2.691457832E-2
2.186548233E0,-2.197967656E-2,1.269453298E-2,-4.474584479E-3,2.577361549E-2
2.188992452E0,-2.136881091E-2,9.640208445E-3,-3.252855036E-3,2.366729314E-2
2.191437452E0,-1.892535202E-2,9.029342793E-3,-2.031125594E-3,2.106711778E-2
2.193883285E0,-1.892535202E-2,8.418477140E-3,-1.985309646E-4,2.071422509E-2
2.196328337E0,-1.770362258E-2,7.196749561E-3,-8.093961515E-4,1.912763913E-2
2.198772556E0,-1.770362258E-2,8.418477140E-3,-8.093961515E-4,1.961999317E-2
2.201217608E0,-1.831448637E-2,9.640208445E-3,-1.985309646E-4,2.069766761E-2
2.203663442E0,-2.014708333E-2,1.269453298E-2,-1.985309646E-4,2.381376805E-2
2.206108494E0,-1.831448637E-2,1.269453298E-2,-8.093961515E-4,2.229858069E-2
2.208552712E0,-1.892535202E-2,1.452712622E-2,-2.031125594E-3,2.394434832E-2
2.210997764E0,-1.953621767E-2,1.635972038E-2,-8.093961515E-4,2.549430081E-2
2.213443546E0,-1.892535202E-2,1.513799187E-2,-1.420259941E-3,2.427642653E-2
2.215888598E0,-1.831448637E-2,1.635972038E-2,-1.420259941E-3,2.459833328E-2
2.218332817E0,-2.014708333E-2,1.697058603E-2,-8.093961515E-4,2.635452293E-2
2.220777869E0,-1.831448637E-2,1.697058603E-2,-3.252855036E-3,2.517940164E-2
2.223223702E0,-1.953621767E-2,1.635972038E-2,-2.641989384E-3,2.561804754E-2
2.225668754E0,-1.892535202E-2,1.513799187E-2,-3.863718826E-3,2.454090606E-2
2.228112973E0,-1.892535202E-2,1.574885845E-2,-3.863718826E-3,2.492235572E-2
2.230558025E0,-1.831448637E-2,1.513799187E-2,-3.252855036E-3,2.398249934E-2
2.233003806E0,-1.831448637E-2,1.513799187E-2,-4.474584479E-3,2.417852591E-2
2.235448858E0,-1.709275879E-2,1.574885845E-2,-5.696313921E-3,2.392983364E-2
2.237893077E0,-1.892535202E-2,1.452712622E-2,-5.085448269E-3,2.439401831E-2
2.240338129E0,-1.892535202E-2,1.513799187E-2,-6.918043364E-3,2.520291791E-2
2.242783962E0,-1.709275879E-2,1.697058603E-2,-5.696313921E-3,2.475098353E-2
2.245229014E0,-1.648189314E-2,1.574885845E-2,-5.085448269E-3,2.335682187E-2
2.247673233E0,-1.770362258E-2,1.574885845E-2,-8.139772341E-3,2.505395555E-2
2.250118285E0,-1.587102748E-2,1.513799187E-2,-6.307177711E-3,2.282167395E-2
2.252564067E0,-1.709275879E-2,1.391626056E-2,-6.918043364E-3,2.310160244E-2
2.255009119E0,-1.281670574E-2,1.391626056E-2,-6.918043364E-3,2.014421947E-2
2.257453337E0,-1.587102748E-2,1.269453298E-2,-5.696313921E-3,2.110660260E-2
2.259898389E0,-1.220584102E-2,1.330539491E-2,-5.696313921E-3,1.893314768E-2
2.262344223E0,-1.403843518E-2,1.147280168E-2,-3.863718826E-3,1.853729117E-2
2.264789275E0,-1.464930084E-2,1.391626056E-2,-3.863718826E-3,2.057164666E-2
2.267233494E0,-1.220584102E-2,1.330539491E-2,-2.641989384E-3,1.824818338E-2
2.269678546E0,-1.342756953E-2,1.208366733E-2,-3.252855036E-3,1.835471889E-2
2.272124327E0,-1.159497630E-2,1.269453298E-2,-2.641989384E-3,1.739467594E-2
2.274569379E0,-1.342756953E-2,1.025107410E-2,-1.420259941E-3,1.695291367E-2
2.277013598E0,-1.098411158E-2,1.025107410E-2,-1.985309646E-4,1.502579921E-2
2.279458650E0,-1.464930084E-2,6.585883908E-3,1.023198478E-3,1.609418581E-2
2.281904483E0,-1.159497630E-2,4.142425023E-3,1.634063199E-3,1.242068126E-2
2.284349535E0,-1.342756953E-2,1.088104444E-3,4.123337567E-4,1.347789353E-2
2.286793754E0,-1.098411158E-2,4.772387911E-4,2.244927920E-3,1.122132636E-2
2.289238806E0,-1.098411158E-2,-2.577085746E-3,2.855792642E-3,1.163819701E-2
2.291684587E0,-1.220584102E-2,-5.631410517E-3,1.634063199E-3,1.354125186E-2
2.294129639E0,-8.540652692E-3,-6.853138097E-3,2.855792642E-3,1.131652782E-2
2.296573858E0,-1.098411158E-2,-8.685733192E-3,4.688386805E-3,1.476731658E-2
2.299018910E0,-7.318923250E-3,-8.685733192E-3,2.855792642E-3,1.171170996E-2
2.301464744E0,-9.762382135E-3,-1.174005587E-2,1.634063199E-3,1.535588419E-2
2.303909744E0,-7.929787971E-3,-1.174005587E-2,1.023198478E-3,1.420413264E-2
2.306354014E0,-1.159497630E-2,-1.296178717E-2,4.123337567E-4,1.739601739E-2
2.308799067E0,-1.037324686E-2,-1.235092152E-2,-1.985309646E-4,1.613037282E-2
2.311244848E0,-1.037324686E-2,-1.235092152E-2,-1.420259941E-3,1.619156110E-2
2.313689900E0,-1.281670574E-2,-1.540524606E-2,-1.420259941E-3,2.008996492E-2
2.316134119E0,-9.762382135E-3,-1.540524606E-2,-3.863718826E-3,1.864280114E-2
2.318579171E0,-1.281670574E-2,-1.723783836E-2,-3.863718826E-3,2.182519967E-2
2.321025004E0,-7.318923250E-3,-1.662697271E-2,-5.085448269E-3,1.886490506E-2
2.323470056E0,-1.037324686E-2,-1.723783836E-2,-5.085448269E-3,2.075112300E-2
2.325914275E0,-6.097193807E-3,-1.601610892E-2,-5.085448269E-3,1.787605385E-2
2.328359327E0,-9.151517414E-3,-1.540524606E-2,-5.085448269E-3,1.862615530E-2
2.330805108E0,-7.929787971E-3,-1.296178717E-2,-5.696313921E-3,1.622767563E-2
2.333250160E0,-9.151517414E-3,-1.051832829E-2,-6.307177711E-3,1.530248318E-2
2.335694379E0,-1.220584102E-2,-9.907462634E-3,-6.307177711E-3,1.693873849E-2
2.338139431E0,-9.762382135E-3,-7.464003749E-3,-5.085448269E-3,1.329952033E-2
2.340585264E0,-1.159497630E-2,-6.853138097E-3,-4.474584479E-3,1.419263483E-2
2.343030317E0,-1.342756953E-2,-4.409679212E-3,-5.085448269E-3,1.502020900E-2
2.345474535E0,-1.342756953E-2,-2.577085746E-3,-3.863718826E-3,1.420807227E-2
2.347919587E0,-1.403843518E-2,-1.336268615E-4,-1.420259941E-3,1.411072843E-2
2.350365369E0,-1.526016463E-2,1.698966371E-3,-2.031125594E-3,1.548820785E-2
2.352810421E0,-1.464930084E-2,3.531559603E-3,-8.093961515E-4,1.509069416E-2
2.355254639E0,-1.526016463E-2,6.585883908E-3,1.634063199E-3,1.670079800E-2
2.357699692E0,-1.526016463E-2,5.364156328E-3,2.244927920E-3,1.633053884E-2
2.360145525E0,-1.464930084E-2,6.585883908E-3,2.244927920E-3,1.621775518E-2
2.362590577E0,-1.587102748E-2,6.585883908E-3,4.077522084E-3,1.766039543E-2
2.365034796E0,-1.587102748E-2,8.418477140E-3,3.466657363E-3,1.829693920E-2
2.367479848E0,-1.648189314E-2,9.640208445E-3,4.688386805E-3,1.966131713E-2
2.369925629E0,-1.648189314E-2,9.029342793E-3,4.077522084E-3,1.923039311E-2
2.372370681E0,-1.831448637E-2,9.640208445E-3,5.299251527E-3,2.136436511E-2
2.374814900E0,-1.770362258E-2,1.025107410E-2,5.299251527E-3,2.113255402E-2
2.377259952E0,-1.831448637E-2,1.086193975E-2,5.299251527E-3,2.194274853E-2
2.379705785E0,-1.892535202E-2,8.418477140E-3,5.910116248E-3,2.153994384E-2
2.382150837E0,-2.014708333E-2,8.418477140E-3,5.299251527E-3,2.246904072E-2
2.384595056E0,-1.831448637E-2,7.196749561E-3,3.466657363E-3,1.998077397E-2
2.387040108E0,-1.831448637E-2,6.585883908E-3,2.244927920E-3,1.959168138E-2
2.389485889E0,-1.770362258E-2,4.753290676E-3,2.244927920E-3,1.846758582E-2
2.391930942E0,-1.831448637E-2,4.142425023E-3,-1.985309646E-4,1.877816579E-2
2.394375160E0,-1.831448637E-2,1.698966371E-3,-8.093961515E-4,1.841092121E-2
2.396820212E0,-1.892535202E-2,-7.444925141E-4,-8.093961515E-4,1.895727671E-2
2.399266046E0,-1.953621767E-2,-2.577085746E-3,-2.031125594E-3,1.980986227E-2
2.401711046E0,-1.831448637E-2,-3.187951399E-3,-3.863718826E-3,1.898714745E-2
2.404155317E0,-2.014708333E-2,-6.853138097E-3,-5.696313921E-3,2.202994464E-2
2.406600369E0,-2.014708333E-2,-8.685733192E-3,-6.307177711E-3,2.282821540E-2
2.409046150E0,-1.892535202E-2,-1.296178717E-2,-7.528907154E-3,2.414252097E-2
2.411491202E0,-1.831448637E-2,-1.601610892E-2,-8.750636131E-3,2.585555624E-2
2.413935421E0,-1.648189314E-2,-1.907043159E-2,-1.058323123E-2,2.733750072E-2
2.416380473E0,-1.709275879E-2,-2.212475613E-2,-1.241582446E-2,3.059117411E-2
2.418826306E0,-1.648189314E-2,-2.701167390E-2,-1.241582446E-2,3.399170524E-2
2.421271306E0,-1.831448637E-2,-2.762253955E-2,-1.424841955E-2,3.607551194E-2
2.423715577E0,-1.953621767E-2,-3.006599844E-2,-1.608101279E-2,3.929665425E-2
2.426160577E0,-1.953621767E-2,-3.128772601E-2,-1.913533732E-2,4.155414221E-2
2.428606410E0,-2.075794525E-2,-3.067686222E-2,-1.974620298E-2,4.197469117E-2
2.431051462E0,-2.075794525E-2,-3.189859167E-2,-1.974620298E-2,4.287569211E-2
2.433495681E0,-2.075794525E-2,-3.067686222E-2,-2.035706677E-2,4.226549816E-2
2.435940733E0,-2.197967656E-2,-3.067686222E-2,-2.035706677E-2,4.287873861E-2
2.438386567E0,-2.136881091E-2,-3.067686222E-2,-2.035706677E-2,4.256883981E-2
2.440831567E0,-2.259054221E-2,-3.067686222E-2,-1.974620298E-2,4.291054655E-2
2.443275837E0,-2.136881091E-2,-3.128772601E-2,-2.035706677E-2,4.301113863E-2
2.445720837E0,-2.259054221E-2,-3.067686222E-2,-2.035706677E-2,4.319505343E-2
2.448166671E0,-2.381226979E-2,-3.189859167E-2,-2.157879621E-2,4.527901047E-2
2.450611723E0,-2.442313544E-2,-3.067686222E-2,-1.913533732E-2,4.363164626E-2
2.453055942E0,-2.381226979E-2,-3.067686222E-2,-1.913533732E-2,4.329266916E-2
2.455500994E0,-2.503400110E-2,-3.067686222E-2,-1.974620298E-2,4.424571865E-2
2.457946827E0,-2.564486302E-2,-2.884426713E-2,-1.913533732E-2,4.307913509E-2
2.460391879E0,-2.503400110E-2,-2.701167390E-2,-1.974620298E-2,4.178808765E-2
2.462836098E0,-2.625572868E-2,-2.395734936E-2,-1.974620298E-2,4.065993616E-2
2.465281098E0,-2.686659433E-2,-2.151389048E-2,-2.096793056E-2,4.030279750E-2
2.467726931E0,-2.808832191E-2,-1.723783836E-2,-2.035706677E-2,3.873637911E-2
2.470171983E0,-2.931005321E-2,-1.418351475E-2,-2.157879621E-2,3.906271568E-2
2.472616202E0,-2.992091514E-2,-8.685733192E-3,-2.157879621E-2,3.789917637E-2
2.475061254E0,-2.931005321E-2,-5.020544864E-3,-2.341138944E-2,3.784677325E-2
2.477507087E0,-3.175351024E-2,1.088104444E-3,-2.402225323E-2,3.983136997E-2
2.479952087E0,-3.541869670E-2,7.807615213E-3,-2.463311888E-2,4.384328315E-2
2.482396358E0,-3.602956235E-2,1.147280168E-2,-2.890917100E-2,4.759721326E-2
2.484841358E0,-3.725129366E-2,1.880317926E-2,-3.013090231E-2,5.146930836E-2
2.487287192E0,-3.725129366E-2,2.185750380E-2,-3.074176423E-2,5.301382291E-2
2.489732244E0,-3.969474882E-2,2.674442157E-2,-3.257435933E-2,5.789668431E-2
2.492176462E0,-4.091648012E-2,3.224220127E-2,-3.379609063E-2,6.209584230E-2
2.494621514E0,-4.030561447E-2,3.529652953E-2,-3.501782194E-2,6.400496393E-2
2.497067348E0,-4.274907336E-2,3.896171600E-2,-3.562868387E-2,6.793306780E-2
2.499512348E0,-4.274907336E-2,4.445949942E-2,-3.562868387E-2,7.122874051E-2
2.501956619E0,-4.274907336E-2,4.690295458E-2,-3.440695629E-2,7.218870453E-2
2.504401619E0,-4.458166659E-2,5.056814849E-2,-3.379609063E-2,7.541112902E-2
2.506847452E0,-4.641426355E-2,5.423333496E-2,-3.379609063E-2,7.897920121E-2
2.509292504E0,-4.885772243E-2,5.973112211E-2,-3.196349740E-2,8.352573948E-2
2.511736723E0,-4.946858436E-2,6.156371161E-2,-3.074176423E-2,8.474837753E-2
2.514181775E0,-5.130118132E-2,6.522890180E-2,-3.013090231E-2,8.828642086E-2
2.516627608E0,-5.130118132E-2,6.828322262E-2,-3.074176423E-2,9.077150304E-2
2.519072608E0,-5.313377455E-2,7.255927473E-2,-3.135263175E-2,9.524197533E-2
2.521516879E0,-5.313377455E-2,7.500273734E-2,-3.379609063E-2,9.793255000E-2
2.523961879E0,-5.435550213E-2,7.561359555E-2,-3.501782194E-2,9.948961904E-2
2.526407712E0,-5.252290890E-2,7.683532685E-2,-3.868300840E-2,1.007903693E-1
2.528852764E0,-5.191204697E-2,7.866791636E-2,-4.356992617E-2,1.038356401E-1
2.531296983E0,-5.130118132E-2,7.866791636E-2,-4.479165748E-2,1.040516451E-1
2.533742035E0,-5.313377455E-2,8.050050586E-2,-4.845684394E-2,1.079425549E-1
2.536187869E0,-5.191204697E-2,8.233311027E-2,-5.212203041E-2,1.104097266E-1
2.538632869E0,-5.191204697E-2,8.538743109E-2,-5.334376171E-2,1.132759062E-1
2.541077139E0,-5.313377455E-2,8.905262500E-2,-5.334376171E-2,1.166152860E-1
2.543522139E0,-5.313377455E-2,9.210694581E-2,-5.334376171E-2,1.189640466E-1
2.545967973E0,-5.435550213E-2,9.516126662E-2,-5.273289606E-2,1.216180316E-1
2.548413025E0,-5.679896474E-2,9.699385613E-2,-5.090030283E-2,1.233887003E-1
2.550857244E0,-5.679896474E-2,9.699385613E-2,-4.784597829E-2,1.221604198E-1
2.553302296E0,-5.740982667E-2,9.760471433E-2,-4.662425071E-2,1.224597453E-1
2.555748129E0,-5.863155797E-2,9.699385613E-2,-4.173733294E-2,1.207786102E-1
2.558193129E0,-5.802069232E-2,9.210694581E-2,-3.990473971E-2,1.159417028E-1
2.560637400E0,-5.679896474E-2,8.905262500E-2,-3.623954952E-2,1.116682469E-1
2.563082400E0,-5.496636778E-2,8.477657288E-2,-3.257435933E-2,1.061577024E-1
2.565528233E0,-5.435550213E-2,7.744618505E-2,-3.013090231E-2,9.929906074E-2
2.567973285E0,-5.374464020E-2,7.317013294E-2,-2.707657777E-2,9.473909313E-2
2.570417504E0,-5.191204697E-2,6.461802870E-2,-2.341138944E-2,8.613038610E-2
2.572862556E0,-5.130118132E-2,5.667679012E-2,-2.157879621E-2,7.943370940E-2
2.575308389E0,-4.946858436E-2,4.995728284E-2,-2.096793056E-2,7.336569402E-2
2.577753389E0,-4.946858436E-2,4.629209638E-2,-1.913533732E-2,7.040071136E-2
2.580197660E0,-5.069031566E-2,4.262690246E-2,-1.669187844E-2,6.830212091E-2
2.582642660E0,-5.069031566E-2,4.079431295E-2,-1.547014900E-2,6.688056206E-2
2.585088494E0,-5.252290890E-2,3.835085034E-2,-1.730274409E-2,6.729657223E-2
2.587533546E0,-5.435550213E-2,4.140517116E-2,-1.730274409E-2,7.048612461E-2
2.589977764E0,-5.557723343E-2,4.201603681E-2,-1.669187844E-2,7.164352749E-2
2.592422817E0,-5.740982667E-2,4.323776811E-2,-1.669187844E-2,7.378354556E-2
2.594868650E0,-5.863155797E-2,4.262690246E-2,-1.730274409E-2,7.452581671E-2
2.597313650E0,-6.046415120E-2,4.018344730E-2,-1.791360788E-2,7.477646933E-2
2.599757921E0,-6.168588251E-2,3.651826084E-2,-1.852447167E-2,7.403976989E-2
2.602202921E0,-6.290760636E-2,3.040961176E-2,-1.791360788E-2,7.213188458E-2
2.604648754E0,-6.412933767E-2,2.674442157E-2,-1.913533732E-2,7.206939135E-2
2.607093806E0,-6.535106897E-2,1.880317926E-2,-1.913533732E-2,7.064335001E-2
2.609538025E0,-6.718366593E-2,1.086193975E-2,-2.035706677E-2,7.103546206E-2
2.611983077E0,-6.596193463E-2,3.531559603E-3,-2.035706677E-2,6.912205799E-2
2.614428910E0,-6.657280028E-2,-2.577085746E-3,-2.096793056E-2,6.984434995E-2
2.616873910E0,-6.657280028E-2,-8.074869402E-3,-2.096793056E-2,7.026233247E-2
2.619318129E0,-7.084885240E-2,-1.357265096E-2,-2.157879621E-2,7.529555887E-2
2.621763181E0,-7.145971805E-2,-1.784870401E-2,-2.157879621E-2,7.675097383E-2
2.624209014E0,-7.145971805E-2,-1.907043159E-2,-2.218966186E-2,7.721757415E-2
2.626654067E0,-7.512490451E-2,-1.907043159E-2,-2.096793056E-2,8.029375288E-2
2.629098285E0,-7.695750147E-2,-2.212475613E-2,-2.218966186E-2,8.309237606E-2
2.631543337E0,-7.695750147E-2,-2.456821501E-2,-2.157879621E-2,8.361637799E-2
2.633989119E0,-7.879009098E-2,-2.456821501E-2,-2.280052565E-2,8.562324214E-2
2.636434171E0,-8.062268794E-2,-2.640080824E-2,-2.463311888E-2,8.833918175E-2
2.638878389E0,-8.001182228E-2,-2.701167390E-2,-2.585484646E-2,8.831758215E-2
2.641323442E0,-8.184441924E-2,-2.640080824E-2,-2.524398454E-2,8.962572394E-2
2.643769275E0,-8.245527744E-2,-2.701167390E-2,-2.707657777E-2,9.089358816E-2
2.646214327E0,-8.245527744E-2,-2.517908067E-2,-2.952003665E-2,9.112788511E-2
2.648658546E0,-8.245527744E-2,-2.640080824E-2,-3.074176423E-2,9.187454230E-2
2.651103546E0,-8.245527744E-2,-2.517908067E-2,-3.196349740E-2,9.194848584E-2
2.653549379E0,-8.489874005E-2,-2.456821501E-2,-3.196349740E-2,9.398435198E-2
2.655994431E0,-8.306614310E-2,-2.212475613E-2,-3.257435933E-2,9.192702458E-2
2.658438650E0,-8.489874005E-2,-1.845956780E-2,-3.562868387E-2,9.390396594E-2
2.660883702E0,-8.306614310E-2,-1.357265096E-2,-3.562868387E-2,9.139805303E-2
2.663329535E0,-8.367700875E-2,-7.464003749E-3,-3.623954952E-2,9.149239364E-2
2.665774535E0,-8.428787440E-2,-2.577085746E-3,-3.868300840E-2,9.277641015E-2
2.668218806E0,-8.367700875E-2,3.531559603E-3,-3.929387406E-2,9.251120064E-2
2.670663806E0,-8.489874005E-2,7.807615213E-3,-3.929387406E-2,9.387632000E-2
2.673109639E0,-8.489874005E-2,1.269453298E-2,-3.990473971E-2,9.466433057E-2
2.675554692E0,-8.612047136E-2,1.635972038E-2,-3.929387406E-2,9.606448135E-2
2.677998910E0,-8.550960571E-2,1.941404492E-2,-3.990473971E-2,9.633891249E-2
2.680443962E0,-8.428787440E-2,2.185750380E-2,-3.868300840E-2,9.528153747E-2
2.682889796E0,-8.428787440E-2,1.880317926E-2,-3.746127710E-2,9.413475768E-2
2.685334796E0,-8.306614310E-2,1.880317926E-2,-3.746127710E-2,9.304241485E-2
2.687779067E0,-8.245527744E-2,2.002491057E-2,-3.746127710E-2,9.275352879E-2
2.690224067E0,-8.184441924E-2,1.574885845E-2,-3.440695629E-2,9.016858735E-2
2.692669900E0,-8.062268794E-2,1.208366733E-2,-3.440695629E-2,8.848656094E-2
2.695114952E0,-8.062268794E-2,1.147280168E-2,-3.318522498E-2,8.793692140E-2
2.697559171E0,-7.817922533E-2,7.807615213E-3,-3.074176423E-2,8.436827719E-2
2.700004223E0,-7.940095663E-2,4.753290676E-3,-3.074176423E-2,8.527697083E-2
2.702450056E0,-7.817922533E-2,1.088104444E-3,-2.890917100E-2,8.336015482E-2
2.704895056E0,-7.695750147E-2,-4.409679212E-3,-2.952003665E-2,8.254292742E-2
2.707339327E0,-7.634663582E-2,-9.296596982E-3,-2.890917100E-2,8.216432124E-2
2.709784327E0,-7.817922533E-2,-1.357265096E-2,-2.768744342E-2,8.404048221E-2
2.712230160E0,-7.756836712E-2,-1.907043159E-2,-2.829830535E-2,8.474271075E-2
2.714675212E0,-7.879009098E-2,-2.395734936E-2,-2.707657777E-2,8.668895021E-2
2.717119431E0,-7.695750147E-2,-2.884426713E-2,-2.707657777E-2,8.653086064E-2
2.719564483E0,-7.695750147E-2,-3.189859167E-2,-2.829830535E-2,8.798165302E-2
2.722010317E0,-7.573577017E-2,-3.434205055E-2,-2.768744342E-2,8.764632247E-2
2.724455317E0,-7.451403886E-2,-3.739637509E-2,-2.707657777E-2,8.765826784E-2
2.726899587E0,-7.390317321E-2,-4.167242721E-2,-2.829830535E-2,8.943748814E-2
2.729344587E0,-7.390317321E-2,-4.289415851E-2,-2.890917100E-2,9.020713948E-2
2.731790421E0,-7.145971805E-2,-4.533761367E-2,-3.013090231E-2,8.983240947E-2
2.734235473E0,-7.145971805E-2,-4.717021063E-2,-2.952003665E-2,9.057015313E-2
2.736679692E0,-6.962712109E-2,-4.778107628E-2,-2.952003665E-2,8.945613342E-2
2.739124744E0,-6.962712109E-2,-4.533761367E-2,-3.013090231E-2,8.838159581E-2
2.741570577E0,-6.779453158E-2,-4.289415851E-2,-3.135263175E-2,8.613358732E-2
2.744015577E0,-6.718366593E-2,-4.106156155E-2,-3.135263175E-2,8.475071872E-2
2.746459848E0,-6.779453158E-2,-3.678550944E-2,-3.257435933E-2,8.372789919E-2
2.748904848E0,-6.657280028E-2,-3.312032297E-2,-3.440695629E-2,8.193126492E-2
2.751350681E0,-6.779453158E-2,-2.701167390E-2,-3.501782194E-2,8.094428264E-2
2.753795733E0,-6.962712109E-2,-2.090302669E-2,-3.685041517E-2,8.150353130E-2
2.756239952E0,-6.901625544E-2,-1.235092152E-2,-3.929387406E-2,8.037286430E-2
2.758685004E0,-6.962712109E-2,-2.577085746E-3,-4.173733294E-2,8.121934698E-2
2.761130837E0,-7.145971805E-2,6.585883908E-3,-4.418079183E-2,8.427222281E-2
2.763575837E0,-7.145971805E-2,1.758145168E-2,-4.418079183E-2,8.583438188E-2
2.766020108E0,-7.329230756E-2,3.102047741E-2,-4.418079183E-2,9.102732959E-2
2.768465108E0,-7.634663582E-2,4.140517116E-2,-4.723511264E-2,9.886532691E-2
2.770910942E0,-7.817922533E-2,5.423333496E-2,-4.906770959E-2,1.070555277E-1
2.773355994E0,-8.001182228E-2,6.767234951E-2,-5.028943717E-2,1.162345305E-1
2.775800212E0,-8.184441924E-2,7.988964766E-2,-5.151116848E-2,1.254362995E-1
2.778245264E0,-8.306614310E-2,9.271780401E-2,-5.028943717E-2,1.342594608E-1
2.780691046E0,-8.428787440E-2,1.043242291E-1,-4.967857525E-2,1.430243035E-1
2.783136098E0,-8.612047136E-2,1.153197959E-1,-5.028943717E-2,1.524612030E-1
2.785580369E0,-8.795306087E-2,1.257045120E-1,-4.662425071E-2,1.603470798E-1
2.788025369E0,-8.917479217E-2,1.336457431E-1,-4.662425071E-2,1.672936011E-1
2.790471202E0,-9.161825478E-2,1.428087205E-1,-4.601338506E-2,1.757995076E-1
2.792916254E0,-9.222911298E-2,1.470847726E-1,-4.173733294E-2,1.785557184E-1
2.795360473E0,-9.528344125E-2,1.525825560E-1,-3.929387406E-2,1.841314180E-1
2.797805525E0,-9.467257559E-2,1.580803394E-1,-3.807214275E-2,1.881536030E-1
2.800251306E0,-9.406170994E-2,1.617455184E-1,-3.562868387E-2,1.904694756E-1
2.802696358E0,-9.528344125E-2,1.660215855E-1,-3.379609063E-2,1.943817809E-1
2.805140577E0,-9.650517255E-2,1.715193540E-1,-3.135263175E-2,1.992865390E-1
2.807585629E0,-9.589430690E-2,1.757954061E-1,-3.013090231E-2,2.025033683E-1
2.810031462E0,-9.711603820E-2,1.825149208E-1,-2.890917100E-2,2.087557457E-1
2.812476462E0,-9.833776206E-2,1.880127043E-1,-2.768744342E-2,2.139759027E-1
2.814920733E0,-9.894862771E-2,1.947322190E-1,-2.646571212E-2,2.200270482E-1
2.817365785E0,-9.955949336E-2,2.026734650E-1,-2.646571212E-2,2.273522818E-1
2.819811567E0,-1.001703590E-1,2.075603753E-1,-2.585484646E-2,2.319135255E-1
2.822256619E0,-1.007812247E-1,2.118364275E-1,-2.646571212E-2,2.360761766E-1
2.824700837E0,-1.001703590E-1,2.155016214E-1,-2.829830535E-2,2.393237216E-1
2.827145889E0,-1.001703590E-1,2.191668153E-1,-2.952003665E-2,2.427748469E-1
2.829591723E0,-9.772689641E-2,2.209993899E-1,-3.013090231E-2,2.435141636E-1
2.832036723E0,-9.589430690E-2,2.216102779E-1,-3.135263175E-2,2.434950120E-1
2.834480994E0,-9.467257559E-2,2.209993899E-1,-3.440695629E-2,2.428733529E-1
2.836925994E0,-9.345084429E-2,2.191668153E-1,-3.623954952E-2,2.409988759E-1
2.839371827E0,-9.039652348E-2,2.179450691E-1,-3.807214275E-2,2.390001520E-1
2.841816879E0,-8.856392652E-2,2.136690319E-1,-3.929387406E-2,2.346103851E-1
2.844261098E0,-8.550960571E-2,2.112255692E-1,-4.112646729E-2,2.315588912E-1
2.846706150E0,-8.306614310E-2,2.057277858E-1,-4.479165748E-2,2.263408902E-1
2.849151983E0,-7.940095663E-2,1.990082711E-1,-4.662425071E-2,2.192775060E-1
2.851596983E0,-7.695750147E-2,1.904561669E-1,-4.845684394E-2,2.110546712E-1
2.854041254E0,-7.512490451E-2,1.831257939E-1,-5.028943717E-2,2.042249622E-1
2.856486254E0,-7.268144190E-2,1.721302271E-1,-5.334376171E-2,1.943115128E-1
2.858932087E0,-7.207058370E-2,1.617455184E-1,-5.517635494E-2,1.854729412E-1
2.861377139E0,-6.901625544E-2,1.495282352E-1,-5.639808625E-2,1.740766520E-1
2.863821358E0,-6.657280028E-2,1.373109370E-1,-5.884154886E-2,1.635498671E-1
2.866266410E0,-6.412933767E-2,1.257045120E-1,-6.006327271E-2,1.533681617E-1
2.868712244E0,-6.290760636E-2,1.153197959E-1,-6.250673532E-2,1.454754764E-1
2.871157244E0,-6.168588251E-2,1.049351022E-1,-6.372846663E-2,1.373966565E-1
2.873601514E0,-6.229674816E-2,9.760471433E-2,-6.250673532E-2,1.315851703E-1
2.876046514E0,-6.107501686E-2,8.966348320E-2,-6.250673532E-2,1.252069881E-1
2.878492348E0,-6.046415120E-2,8.050050586E-2,-6.372846663E-2,1.191535249E-1
2.880937400E0,-6.168588251E-2,7.317013294E-2,-6.372846663E-2,1.149797109E-1
2.883381619E0,-6.290760636E-2,6.522890180E-2,-6.372846663E-2,1.107858025E-1
2.885826671E0,-6.229674816E-2,5.606593192E-2,-6.250673532E-2,1.045531708E-1
2.888272504E0,-6.412933767E-2,4.812468588E-2,-6.189586967E-2,1.012899601E-1
2.890717504E0,-6.535106897E-2,3.835085034E-2,-6.250673532E-2,9.822750073E-2
2.893161775E0,-6.657280028E-2,2.918788046E-2,-6.250673532E-2,9.586950539E-2
2.895606775E0,-6.840538979E-2,2.185750380E-2,-6.372846663E-2,9.601231839E-2
2.898052608E0,-6.962712109E-2,1.513799187E-2,-6.311760098E-2,9.518889821E-2
2.900497660E0,-7.207058370E-2,9.640208445E-3,-6.250673532E-2,9.588636303E-2
2.902941879E0,-7.268144190E-2,7.196749561E-3,-6.189586967E-2,9.573653369E-2
2.905386931E0,-7.145971805E-2,5.975021981E-3,-5.945241451E-2,9.314924467E-2
2.907832712E0,-7.084885240E-2,7.196749561E-3,-5.761981755E-2,9.160456574E-2
2.910277764E0,-6.718366593E-2,1.025107410E-2,-5.578722060E-2,8.792578388E-2
2.912721983E0,-6.535106897E-2,1.452712622E-2,-5.395462736E-2,8.598198315E-2
2.915167035E0,-6.229674816E-2,2.002491057E-2,-5.273289606E-2,8.403951572E-2
2.917612869E0,-5.924241990E-2,2.369009703E-2,-5.151116848E-2,8.200174078E-2
2.920057869E0,-5.496636778E-2,2.307923138E-2,-5.212203041E-2,7.918748993E-2
2.922502139E0,-5.007945001E-2,2.735528722E-2,-5.028943717E-2,7.606109744E-2
2.924947139E0,-4.580339789E-2,2.857701480E-2,-5.090030283E-2,7.419863787E-2
2.927392973E0,-4.030561447E-2,2.735528722E-2,-5.151116848E-2,7.089608434E-2
2.929838025E0,-3.358610347E-2,2.613355592E-2,-5.273289606E-2,6.776243368E-2
2.932282244E0,-2.625572868E-2,2.735528722E-2,-5.395462736E-2,6.594525640E-2
2.934727296E0,-2.075794525E-2,2.613355592E-2,-5.456549302E-2,6.396286473E-2
2.937173129E0,-1.281670574E-2,2.369009703E-2,-5.517635494E-2,6.139966440E-2
2.939618129E0,-7.929787971E-3,2.369009703E-2,-5.578722060E-2,6.112541384E-2
2.942062400E0,-1.821140526E-3,1.941404492E-2,-5.639808625E-2,5.967382865E-2
2.944507400E0,4.898371175E-3,1.391626056E-2,-5.517635494E-2,5.711467844E-2
2.946953233E0,1.345047727E-2,7.807615213E-3,-5.395462736E-2,5.615136693E-2
2.949398285E0,2.139171772E-2,-1.966220094E-3,-5.395462736E-2,5.807386178E-2
2.951842504E0,2.872209437E-2,-1.296178717E-2,-5.456549302E-2,6.301079003E-2
2.954287556E0,3.788506985E-2,-2.762253955E-2,-5.334376171E-2,7.101999804E-2
2.956733389E0,4.949149862E-2,-4.411588609E-2,-5.395462736E-2,8.547936392E-2
2.959178389E0,6.048706174E-2,-5.938750505E-2,-5.517635494E-2,1.011434157E-1
2.961622660E0,7.209349424E-2,-7.771345228E-2,-5.700895190E-2,1.203614273E-1
2.964067660E0,8.308906108E-2,-9.787198156E-2,-5.823068321E-2,1.409735057E-1
2.966513494E0,9.469548613E-2,-1.143653318E-1,-6.372846663E-2,1.615796450E-1
2.968958546E0,1.050801873E-1,-1.320804060E-1,-6.800451875E-2,1.819661891E-1
2.971402764E0,1.166866198E-1,-1.473520249E-1,-7.105883956E-2,2.009421438E-1
2.973847817E0,1.270713210E-1,-1.595693231E-1,-7.594575733E-2,2.176631515E-1
2.976293650E0,1.392886192E-1,-1.711757481E-1,-8.327613771E-2,2.358757539E-1
2.978738650E0,1.508950442E-1,-1.797278523E-1,-8.877392113E-2,2.509028185E-1
2.981182921E0,1.618906111E-1,-1.882799566E-1,-9.366083890E-2,2.653870094E-1
2.983627921E0,1.716644466E-1,-1.943886131E-1,-9.854775667E-2,2.774297667E-1
2.986073754E0,1.808274090E-1,-2.004972547E-1,-1.064889953E-1,2.902371567E-1
2.988518806E0,1.881577969E-1,-2.102710903E-1,-1.132085100E-1,3.040287070E-1
2.990963025E0,1.948772967E-1,-2.182123363E-1,-1.193171516E-1,3.159594391E-1
2.993408077E0,2.009859532E-1,-2.261535674E-1,-1.284801066E-1,3.287064454E-1
2.995853858E0,2.052620053E-1,-2.365382761E-1,-1.345887631E-1,3.408767842E-1
2.998298910E0,2.089271843E-1,-2.463121116E-1,-1.400865465E-1,3.520574743E-1
3.000743129E0,2.125923783E-1,-2.548642159E-1,-1.437517256E-1,3.616847335E-1
3.003188181E0,2.180901617E-1,-2.615837157E-1,-1.431408674E-1,3.694301921E-1
3.005634014E0,2.235879451E-1,-2.689141035E-1,-1.425299942E-1,3.776521727E-1
3.008079067E0,2.309183180E-1,-2.799096704E-1,-1.394756734E-1,3.887494780E-1
3.010523285E0,2.358052433E-1,-2.921269536E-1,-1.370322108E-1,3.996499676E-1
3.012968285E0,2.431356162E-1,-3.104529083E-1,-1.339778900E-1,4.164684996E-1
3.015414119E0,2.504659891E-1,-3.348875046E-1,-1.351996213E-1,4.395017520E-1
3.017859171E0,2.602398098E-1,-3.648198545E-1,-1.364213526E-1,4.684325675E-1
3.020303389E0,2.687919140E-1,-3.953630924E-1,-1.413082778E-1,4.985269273E-1
3.022748442E0,2.803983390E-1,-4.326258600E-1,-1.492495090E-1,5.367157341E-1
3.025194275E0,2.907830477E-1,-4.698885977E-1,-1.584124863E-1,5.748431011E-1
3.027639275E0,3.005568981E-1,-5.004318357E-1,-1.687971801E-1,6.076668159E-1
3.030083546E0,3.115524352E-1,-5.266990066E-1,-1.779601574E-1,6.372963055E-1
3.032528546E0,3.207154274E-1,-5.456358194E-1,-1.895665824E-1,6.606907915E-1
3.034974379E0,3.262132108E-1,-5.602965951E-1,-2.005621493E-1,6.786549264E-1
3.037419431E0,3.304892480E-1,-5.664052367E-1,-2.109468430E-1,6.888661741E-1
3.039863650E0,3.317109942E-1,-5.676269531E-1,-2.207206786E-1,6.935057026E-1
3.042308702E0,3.329327106E-1,-5.633509159E-1,-2.286619246E-1,6.931772645E-1
3.044754535E0,3.323218524E-1,-5.554096699E-1,-2.396574914E-1,6.901836192E-1
3.047199535E0,3.347653151E-1,-5.444141030E-1,-2.475987375E-1,6.853901564E-1
3.049643806E0,3.365978897E-1,-5.328076482E-1,-2.555399835E-1,6.800608888E-1
3.052088806E0,3.408739567E-1,-5.181468725E-1,-2.640920877E-1,6.741037507E-1
3.054534639E0,3.463717401E-1,-5.028752685E-1,-2.708115876E-1,6.679789173E-1
3.056979692E0,3.543129861E-1,-4.851602018E-1,-2.805854380E-1,6.630582942E-1
3.059423910E0,3.640868068E-1,-4.674451351E-1,-2.885266542E-1,6.590233588E-1
3.061868962E0,3.744715154E-1,-4.478974640E-1,-2.946353257E-1,6.539503263E-1
3.064314796E0,3.848562241E-1,-4.301823974E-1,-2.983005047E-1,6.497340989E-1
3.066759796E0,3.958517909E-1,-4.124673009E-1,-3.044091463E-1,6.476826715E-1
3.069204014E0,4.092907906E-1,-3.959739804E-1,-3.068526089E-1,6.468947890E-1
3.071649067E0,4.239515662E-1,-3.794806302E-1,-3.086852133E-1,6.473229797E-1
3.074094900E0,4.392231703E-1,-3.642089963E-1,-3.074634671E-1,6.481504223E-1
3.076539952E0,4.563273787E-1,-3.477156460E-1,-3.056308925E-1,6.500392985E-1
3.078984171E0,4.764859378E-1,-3.312222958E-1,-2.989113629E-1,6.527595737E-1
3.081429223E0,4.972553253E-1,-3.165615499E-1,-2.915810049E-1,6.576424225E-1
3.083875004E0,5.223007798E-1,-3.037333786E-1,-2.830289006E-1,6.672011904E-1
3.086320056E0,5.467353463E-1,-2.927378416E-1,-2.732550502E-1,6.777044380E-1
3.088764275E0,5.730025768E-1,-2.890726328E-1,-2.653138041E-1,6.944683972E-1
3.091209327E0,5.992697477E-1,-2.872400582E-1,-2.592051625E-1,7.133150761E-1
3.093655160E0,6.224825978E-1,-2.890726328E-1,-2.537073791E-1,7.317205791E-1
3.096100160E0,6.456954479E-1,-2.982355952E-1,-2.482095957E-1,7.533094219E-1
3.098544431E0,6.664648652E-1,-3.104529083E-1,-2.451552749E-1,7.750209891E-1
3.100989431E0,6.890668273E-1,-3.251136541E-1,-2.463770211E-1,8.007581514E-1
3.103435264E0,7.110579610E-1,-3.403852880E-1,-2.463770211E-1,8.259341406E-1
3.105880317E0,7.318273783E-1,-3.513808548E-1,-2.469878793E-1,8.485533744E-1
3.108324535E0,7.556511164E-1,-3.672633171E-1,-2.512639165E-1,8.769404253E-1
3.110769587E0,7.776422501E-1,-3.788697422E-1,-2.537073791E-1,9.014639121E-1
3.113215421E0,8.002442122E-1,-3.886435926E-1,-2.579834461E-1,9.262775500E-1
3.115660421E0,8.234570622E-1,-3.953630924E-1,-2.622594833E-1,9.503544312E-1
3.118104692E0,8.466699719E-1,-3.990283012E-1,-2.671464086E-1,9.733657227E-1
3.120549692E0,8.698828220E-1,-3.996391594E-1,-2.750876546E-1,9.960325294E-1
3.122995525E0,8.912630677E-1,-4.002500176E-1,-2.805854380E-1,1.016502888E0
3.125440577E0,9.120324850E-1,-3.978065550E-1,-2.885266542E-1,1.036002384E0
3.127884796E0,9.334127307E-1,-3.953630924E-1,-2.970787883E-1,1.056327178E0
3.130329848E0,9.547929764E-1,-3.904761970E-1,-3.050200045E-1,1.075703719E0
3.132775681E0,9.767841101E-1,-3.874218464E-1,-3.123503923E-1,1.096250725E0
3.135220681E0,9.987752438E-1,-3.831458092E-1,-3.215133548E-1,1.117015459E0
3.137664952E0,1.022599101E0,-3.825349510E-1,-3.306763470E-1,1.140784273E0
3.140109952E0,1.046422720E0,-3.807023466E-1,-3.398393095E-1,1.164227444E0
3.142555785E0,1.070246458E0,-3.831458092E-1,-3.514457345E-1,1.189849695E0
3.145000837E0,1.095902801E0,-3.862001300E-1,-3.618304431E-1,1.216994149E0
3.147445056E0,1.119726539E0,-3.910870552E-1,-3.716042638E-1,1.242910429E0
3.149890108E0,1.144161105E0,-4.008608758E-1,-3.819889724E-1,1.271105681E0
3.152335889E0,1.169206619E0,-4.088021219E-1,-3.917627931E-1,1.299092521E0
3.154780942E0,1.193030357E0,-4.204085469E-1,-3.990931809E-1,1.326401201E0
3.157225160E0,1.216853976E0,-4.338475764E-1,-4.064235687E-1,1.354303303E0
3.159670212E0,1.242510319E0,-4.472866058E-1,-4.113104641E-1,1.383139002E0
3.162116046E0,1.268777490E0,-4.601147473E-1,-4.155865312E-1,1.412166443E0
3.164561046E0,1.295655608E0,-4.766080976E-1,-4.180299938E-1,1.442438147E0
3.167005317E0,1.321922779E0,-4.894362688E-1,-4.210843146E-1,1.471169499E0
3.169450317E0,1.344524741E0,-5.053187609E-1,-4.229169190E-1,1.497315114E0
3.171896150E0,1.368959308E0,-5.218120813E-1,-4.253603518E-1,1.525538876E0
3.174341202E0,1.392783046E0,-5.376945734E-1,-4.278038144E-1,1.553053821E0
3.176785421E0,1.415385008E0,-5.517444611E-1,-4.296364188E-1,1.578709639E0
3.179230473E0,1.437987089E0,-5.664052367E-1,-4.326907396E-1,1.604943313E0
3.181676306E0,1.459978223E0,-5.755681992E-1,-4.345233440E-1,1.628381313E0
3.184121306E0,1.483191013E0,-5.841202736E-1,-4.381885231E-1,1.653197283E0
3.186565577E0,1.503349543E0,-5.896180868E-1,-4.418537021E-1,1.674199519E0
3.189010577E0,1.522897243E0,-5.945050120E-1,-4.479623735E-1,1.695087759E0
3.191456410E0,1.543666601E0,-5.975593328E-1,-4.528492689E-1,1.716116602E0
3.193901462E0,1.561992645E0,-5.975593328E-1,-4.601796567E-1,1.734549941E0
3.196345681E0,1.579096794E0,-5.975593328E-1,-4.650665820E-1,1.751259766E0
3.198790733E0,1.594368458E0,-5.957267284E-1,-4.736186862E-1,1.766696288E0
3.201236567E0,1.607807398E0,-5.902289748E-1,-4.809490442E-1,1.778967918E0
3.203681567E0,1.621857285E0,-5.841202736E-1,-4.882794321E-1,1.791656873E0
3.206125785E0,1.634685516E0,-5.755681992E-1,-4.968315363E-1,1.802863574E0
3.208570837E0,1.645681024E0,-5.682378411E-1,-5.047727823E-1,1.812720562E0
3.211016671E0,1.656065702E0,-5.621291399E-1,-5.127140284E-1,1.822475914E0
3.213461723E0,1.667061329E0,-5.547987819E-1,-5.212661028E-1,1.832652044E0
3.215905942E0,1.678667784E0,-5.474684238E-1,-5.285965204E-1,1.843111902E0
3.218350994E0,1.689052463E0,-5.468575358E-1,-5.371485949E-1,1.854853094E0
3.220796775E0,1.697604537E0,-5.456358194E-1,-5.444790125E-1,1.864413314E0
3.223241827E0,1.706156611E0,-5.499118567E-1,-5.505876541E-1,1.875238704E0
3.225686046E0,1.716541409E0,-5.566313863E-1,-5.566962957E-1,1.888455368E0
3.228131098E0,1.727536917E0,-5.651835203E-1,-5.640266538E-1,1.903140110E0
3.230576931E0,1.736699939E0,-5.749573112E-1,-5.701352954E-1,1.916182883E0
3.233021931E0,1.748306274E0,-5.822877288E-1,-5.768548250E-1,1.930905310E0
3.235466202E0,1.758080125E0,-5.914506912E-1,-5.823525786E-1,1.944169275E0
3.237911202E0,1.767853975E0,-5.987810493E-1,-5.872395039E-1,1.956705562E0
3.240357035E0,1.777016997E0,-6.042788625E-1,-5.927373171E-1,1.968319049E0
3.242802087E0,1.786790848E0,-6.097766161E-1,-5.976242423E-1,1.980303964E0
3.245246306E0,1.796564698E0,-6.152744293E-1,-6.055654287E-1,1.993217707E0
3.247691358E0,1.805116773E0,-6.183287501E-1,-6.141175628E-1,2.004474342E0
3.250137192E0,1.817334056E0,-6.250482202E-1,-6.238914132E-1,2.020551619E0
3.252582192E0,1.822831869E0,-6.317677498E-1,-6.330543756E-1,2.030419749E0
3.255026462E0,1.835049152E0,-6.378763914E-1,-6.446608305E-1,2.046919458E0
3.257471462E0,1.838103414E0,-6.470393538E-1,-6.580998302E-1,2.056788631E0
3.259917296E0,1.847266436E0,-6.537588835E-1,-6.697062254E-1,2.070821187E0
3.262362348E0,1.850320697E0,-6.641435623E-1,-6.849778891E-1,2.081818451E0
3.264806567E0,1.855818510E0,-6.714739799E-1,-6.996386051E-1,2.093903968E0
3.267251619E0,1.859483719E0,-6.818586588E-1,-7.136884928E-1,2.105222600E0
3.269697452E0,1.861927152E0,-6.928542256E-1,-7.283492684E-1,2.115966057E0
3.272142452E0,1.866203189E0,-7.044606209E-1,-7.423991561E-1,2.128411524E0
3.274586723E0,1.866203189E0,-7.148453593E-1,-7.570599318E-1,2.137020817E0
3.277031723E0,1.870479226E0,-7.240083218E-1,-7.717206478E-1,2.149054058E0
3.279477556E0,1.868035793E0,-7.337821722E-1,-7.839379311E-1,2.154658368E0
3.281922608E0,1.872922778E0,-7.386690974E-1,-7.961552739E-1,2.165025401E0
3.284366827E0,1.875366211E0,-7.435559630E-1,-8.077616692E-1,2.173097515E0
3.286811879E0,1.878420472E0,-7.405016422E-1,-8.169246316E-1,2.178112028E0
3.289257660E0,1.881474853E0,-7.356147766E-1,-8.285310864E-1,2.183469826E0
3.291702712E0,1.883918285E0,-7.240083218E-1,-8.383049369E-1,2.185427035E0
3.294146931E0,1.891248703E0,-7.069041133E-1,-8.480787277E-1,2.189925252E0
3.296591983E0,1.891859531E0,-6.873564124E-1,-8.590742946E-1,2.188515471E0
3.299037817E0,1.898579001E0,-6.586458087E-1,-8.682373166E-1,2.189121414E0
3.301482869E0,1.897968173E0,-6.293243170E-1,-8.780111074E-1,2.183858005E0
3.303927087E0,1.899189949E0,-5.957267284E-1,-8.902283907E-1,2.180440181E0
3.306372087E0,1.896135569E0,-5.615183115E-1,-9.012239575E-1,2.173209040E0
3.308817921E0,1.893081307E0,-5.248664021E-1,-9.128304124E-1,2.166218119E0
3.311262973E0,1.887583494E0,-4.876036644E-1,-9.238259792E-1,2.157355608E0
3.313707192E0,1.883918285E0,-4.503409266E-1,-9.366541505E-1,2.151575249E0
3.316152244E0,1.879031420E0,-4.124673009E-1,-9.482605457E-1,2.144781204E0
3.318598077E0,1.869868398E0,-3.752045631E-1,-9.592561126E-1,2.134797081E0
3.321043077E0,1.865592360E0,-3.367200792E-1,-9.708625674E-1,2.129880136E0
3.323487348E0,1.852153301E0,-2.988464832E-1,-9.788038135E-1,2.116090257E0
3.325932348E0,1.847266436E0,-2.609728575E-1,-9.867450595E-1,2.110489500E0
3.328378181E0,1.836881757E0,-2.249318361E-1,-9.959080815E-1,2.101561759E0
3.330823233E0,1.830162168E0,-1.876690984E-1,-1.001405954E0,2.094642484E0
3.333267452E0,1.820999265E0,-1.571258605E-1,-1.006292820E0,2.086468811E0
3.335712504E0,1.810614586E0,-1.278043538E-1,-1.010568857E0,2.077476485E0
3.338158285E0,1.805116773E0,-9.970458597E-2,-1.012401462E0,2.072038679E0
3.340603337E0,1.795342922E0,-7.526998967E-2,-1.016677499E0,2.064595582E0
3.343047608E0,1.786790848E0,-5.327885598E-2,-1.016677499E0,2.056475944E0
3.345492608E0,1.777627826E0,-3.556377813E-2,-1.017899275E0,2.048742151E0
3.347938442E0,1.768464923E0,-2.090302669E-2,-1.018510103E0,2.040898809E0
3.350383494E0,1.762967110E0,-6.853138097E-3,-1.016066670E0,2.034819765E0
3.352827712E0,1.758080125E0,3.531559603E-3,-1.016066670E0,2.030578655E0
3.355272712E0,1.751971483E0,1.269453298E-2,-1.017288446E0,2.025942006E0
3.357718546E0,1.746473789E0,1.880317926E-2,-1.016677499E0,2.020929834E0
3.360163598E0,1.740975976E0,2.185750380E-2,-1.017288446E0,2.016519497E0
3.362607817E0,1.736699939E0,2.246836945E-2,-1.019731879E0,2.014071650E0
3.365052869E0,1.731812954E0,2.002491057E-2,-1.020953536E0,2.010453488E0
3.367498702E0,1.728147745E0,1.758145168E-2,-1.022786140E0,2.008206968E0
3.369943702E0,1.726926088E0,1.391626056E-2,-1.026451349E0,2.008997200E0
3.372387973E0,1.725704312E0,1.391626056E-2,-1.028894782E0,2.009197230E0
3.374832973E0,1.725093484E0,1.330539491E-2,-1.032559991E0,2.010548357E0
3.377278806E0,1.723871708E0,1.330539491E-2,-1.038668633E0,2.012645828E0
3.379723858E0,1.720817447E0,1.452712622E-2,-1.043555617E0,2.012568520E0
3.382168077E0,1.717763066E0,1.819231361E-2,-1.049053311E0,2.012847178E0
3.384613129E0,1.713487029E0,2.369009703E-2,-1.055772901E0,2.012773071E0
3.387058962E0,1.707989216E0,3.040961176E-2,-1.061881542E0,2.011403569E0
3.389503962E0,1.702491522E0,3.712911904E-2,-1.069822788E0,2.011063587E0
3.391948181E0,1.696993709E0,4.507036507E-2,-1.077153087E0,2.010491919E0
3.394393233E0,1.692106724E0,5.667679012E-2,-1.084483504E0,2.010607345E0
3.396839067E0,1.688441634E0,6.767234951E-2,-1.093035579E0,2.012496329E0
3.399284119E0,1.683554649E0,8.050050586E-2,-1.099755168E0,2.012535222E0
3.401728337E0,1.679278612E0,9.455039352E-2,-1.106474638E0,2.013256705E0
3.404173337E0,1.675613403E0,1.086002812E-1,-1.115026712E0,2.015628653E0
3.406619171E0,1.668283105E0,1.220393106E-1,-1.121746302E0,2.014044904E0
3.409064223E0,1.662785292E0,1.360892057E-1,-1.126633167E0,2.013126298E0
3.411508442E0,1.653622270E0,1.489173621E-1,-1.130909204E0,2.008879942E0
3.413953494E0,1.645070195E0,1.580803394E-1,-1.133352757E0,2.003929592E0
3.416399327E0,1.635296345E0,1.678541750E-1,-1.136407018E0,1.998446914E0
3.418844327E0,1.627965927E0,1.745736897E-1,-1.138850451E0,1.994424574E0
3.421288598E0,1.620024800E0,1.806823313E-1,-1.141904831E0,1.990244483E0
3.423733598E0,1.613305211E0,1.855692565E-1,-1.140072227E0,1.984175984E0
3.426179431E0,1.605974913E0,1.867909729E-1,-1.140683055E0,1.978687474E0
3.428624483E0,1.598644495E0,1.837366521E-1,-1.139461398E0,1.971749390E0
3.431068702E0,1.589481473E0,1.776280105E-1,-1.140072227E0,1.964120094E0
3.433513754E0,1.580318570E0,1.666324437E-1,-1.136407018E0,1.953610520E0
3.435959587E0,1.571766376E0,1.501390934E-1,-1.134574413E0,1.944286602E0
3.438404587E0,1.562603474E0,1.293696910E-1,-1.130909204E0,1.933241258E0
3.440848858E0,1.555273056E0,1.037133709E-1,-1.127243996E0,1.923618925E0
3.443293858E0,1.550386190E0,7.561359555E-2,-1.121746302E0,1.915131724E0
3.445739692E0,1.547331810E0,4.445949942E-2,-1.118081093E0,1.909533374E0
3.448184744E0,1.547331810E0,9.640208445E-3,-1.111361623E0,1.905112417E0
3.450628962E0,1.548553586E0,-2.884426713E-2,-1.105252862E0,1.902743832E0
3.453074014E0,1.554051399E0,-7.465913147E-2,-1.099755168E0,1.905285062E0
3.455519848E0,1.557105660E0,-1.229174361E-1,-1.094257355E0,1.907114546E0
3.457964848E0,1.561381698E0,-1.742300689E-1,-1.088759542E0,1.911456581E0
3.460409067E0,1.567490339E0,-2.304296196E-1,-1.083872676E0,1.919610312E0
3.462854119E0,1.576042533E0,-2.884617746E-1,-1.080207467E0,1.932347907E0
3.465299952E0,1.588870645E0,-3.428287208E-1,-1.077153087E0,1.949948776E0
3.467744952E0,1.603531361E0,-3.953630924E-1,-1.077153087E0,1.971771683E0
3.470189223E0,1.616970420E0,-4.423996806E-1,-1.077764034E0,1.992959139E0
3.472634223E0,1.627965927E0,-4.802733064E-1,-1.078374863E0,2.010927113E0
3.475080056E0,1.636518121E0,-5.144817233E-1,-1.083261847E0,2.028876348E0
3.477525108E0,1.643848419E0,-5.419706106E-1,-1.089370489E0,2.045164500E0
3.479969327E0,1.648735404E0,-5.645726323E-1,-1.095479131E0,2.058432709E0
3.482414379E0,1.651178837E0,-5.810659528E-1,-1.104031205E0,2.069520257E0
3.484860212E0,1.653011441E0,-5.932832956E-1,-1.113805056E0,2.079661895E0
3.487305212E0,1.654844046E0,-5.993919373E-1,-1.124189734E0,2.088440104E0
3.489749483E0,1.655454874E0,-6.006136537E-1,-1.131520152E0,2.093228477E0
3.492194483E0,1.656065702E0,-5.957267284E-1,-1.142515659E0,2.098281673E0
3.494640317E0,1.656065702E0,-5.841202736E-1,-1.152289510E0,2.100362164E0
3.497085369E0,1.652400613E0,-5.664052367E-1,-1.162674189E0,2.098345526E0
3.499529587E0,1.649346232E0,-5.474684238E-1,-1.169393659E0,2.094647034E0
3.501974639E0,1.642015815E0,-5.224229693E-1,-1.177945852E0,2.087270497E0
3.504420473E0,1.635296345E0,-4.973775148E-1,-1.184054494E0,2.079318055E0
3.506865473E0,1.628576875E0,-4.674451351E-1,-1.190163136E0,2.070568975E0
3.509309692E0,1.623689890E0,-4.356801808E-1,-1.196271777E0,2.063310990E0
3.511754744E0,1.618192196E0,-4.039151967E-1,-1.199326038E0,2.054282458E0
3.514200577E0,1.612694383E0,-3.697067797E-1,-1.203602195E0,2.046002082E0
3.516645577E0,1.606585741E0,-3.391635418E-1,-1.206656456E0,2.037687281E0
3.519089848E0,1.598033667E0,-3.092311621E-1,-1.209710836E0,2.027988121E0
3.521534848E0,1.591314077E0,-2.854074538E-1,-1.215208530E0,2.022490959E0
3.523980681E0,1.583372831E0,-2.652488947E-1,-1.218262911E0,2.015338934E0
3.526425733E0,1.578485966E0,-2.511990368E-1,-1.223760724E0,2.013034826E0
3.528869952E0,1.573598981E0,-2.426469177E-1,-1.229258418E0,2.011508771E0
3.531315004E0,1.572988153E0,-2.389817387E-1,-1.235367060E0,2.014332587E0
3.533760837E0,1.571766376E0,-2.450903803E-1,-1.242697477E0,2.018617313E0
3.536205837E0,1.575431585E0,-2.573076785E-1,-1.252471328E0,2.029008711E0
3.538650108E0,1.581540227E0,-2.738010287E-1,-1.262856007E0,2.042312852E0
3.541095108E0,1.592535853E0,-2.909052372E-1,-1.273240685E0,2.059596598E0
3.543540942E0,1.602309704E0,-3.147289455E-1,-1.285457969E0,2.078184998E0
3.545985994E0,1.612694383E0,-3.379418254E-1,-1.300729632E0,2.099258304E0
3.548430212E0,1.622468233E0,-3.623763919E-1,-1.316001296E0,2.120278102E0
3.550875264E0,1.632242084E0,-3.898653090E-1,-1.331272840E0,2.142077626E0
3.553321046E0,1.642015815E0,-4.142999053E-1,-1.345322728E0,2.162811501E0
3.555766098E0,1.649957061E0,-4.411779642E-1,-1.359983563E0,2.183243365E0
3.558210317E0,1.657898307E0,-4.656125307E-1,-1.375255108E0,2.203803176E0
3.560655369E0,1.666450500E0,-4.869928062E-1,-1.390526772E0,2.224361474E0
3.563101202E0,1.674391747E0,-5.071513057E-1,-1.402744055E0,2.242427491E0
3.565546202E0,1.680500388E0,-5.224229693E-1,-1.416183114E0,2.258889534E0
3.567990473E0,1.685387254E0,-5.334185362E-1,-1.424735188E0,2.270448389E0
3.570435473E0,1.688441634E0,-5.395271778E-1,-1.433898091E0,2.279909749E0
3.572881306E0,1.693939328E0,-5.401380658E-1,-1.440617681E0,2.288352875E0
3.575326358E0,1.699437141E0,-5.376945734E-1,-1.446115494E0,2.295310888E0
3.577770577E0,1.703102350E0,-5.291424394E-1,-1.449780583E0,2.298350077E0
3.580215629E0,1.706767559E0,-5.157034397E-1,-1.449169755E0,2.297628890E0
3.582661462E0,1.711043596E0,-5.004318357E-1,-1.449169755E0,2.297432304E0
3.585106462E0,1.712265372E0,-4.808841646E-1,-1.447947979E0,2.293393912E0
3.587550733E0,1.712876201E0,-4.595038891E-1,-1.445504546E0,2.287918726E0
3.589995733E0,1.711654425E0,-4.362910390E-1,-1.440006733E0,2.278975676E0
3.592441567E0,1.709210992E0,-4.124673009E-1,-1.435730696E0,2.269989894E0
3.594886619E0,1.706767559E0,-3.880327344E-1,-1.429011226E0,2.259579161E0
3.597330837E0,1.706156611E0,-3.642089963E-1,-1.425346017E0,2.252827078E0
3.599775889E0,1.708600163E0,-3.397744000E-1,-1.419237375E0,2.246997083E0
3.602221671E0,1.712265372E0,-3.122855127E-1,-1.413739562E0,2.242327919E0
3.604666723E0,1.718374014E0,-2.829639912E-1,-1.408241868E0,2.239647970E0
3.607110942E0,1.723260880E0,-2.499772906E-1,-1.400911450E0,2.234875745E0
3.609555994E0,1.725093484E0,-2.163797319E-1,-1.396635413E0,2.230102732E0
3.612001827E0,1.724482656E0,-1.815604419E-1,-1.389915824E0,2.222311999E0
3.614446827E0,1.720817447E0,-1.473520249E-1,-1.386250734E0,2.214636856E0
3.616891098E0,1.714097857E0,-1.119218692E-1,-1.381974697E0,2.204656897E0
3.619336098E0,1.706767559E0,-7.893518358E-2,-1.378920317E0,2.195610964E0
3.621781931E0,1.699437141E0,-4.655934498E-2,-1.377698541E0,2.188220199E0
3.624226983E0,1.691495895E0,-1.662697271E-2,-1.375255108E0,2.180082896E0
3.626671202E0,1.681111217E0,9.640208445E-3,-1.374644279E0,2.171606491E0
3.629116254E0,1.672559142E0,3.346393257E-2,-1.373422503E0,2.164454502E0
3.631562087E0,1.662174463E0,5.362246931E-2,-1.372200847E0,2.156069219E0
3.634007087E0,1.649957061E0,7.072667032E-2,-1.370979071E0,2.146379318E0
3.636451358E0,1.638350725E0,8.111137897E-2,-1.372200847E0,2.138622762E0
3.638896358E0,1.623689890E0,8.599828929E-2,-1.371589899E0,2.127210242E0
3.641342192E0,1.608418345E0,8.722002059E-2,-1.368535638E0,2.113647723E0
3.643787244E0,1.593757510E0,8.233311027E-2,-1.366703033E0,2.101123253E0
3.646231462E0,1.579707623E0,6.889408082E-2,-1.364259601E0,2.088402936E0
3.648676514E0,1.565657735E0,5.240073800E-2,-1.359983563E0,2.074508441E0
3.651122296E0,1.551607847E0,2.857701480E-2,-1.355707407E0,2.060642165E0
3.653567348E0,1.538779736E0,-1.966220094E-3,-1.352042317E0,2.048381158E0
3.656011567E0,1.526562452E0,-3.495291620E-2,-1.347766161E0,2.036685605E0
3.658456619E0,1.511901736E0,-7.404825836E-2,-1.340435863E0,2.021904623E0
3.660902452E0,1.496630073E0,-1.216957048E-1,-1.333716273E0,2.008360156E0
3.663347504E0,1.478914976E0,-1.748409420E-1,-1.325164199E0,1.993444009E0
3.665791723E0,1.465475917E0,-2.298187613E-1,-1.317833900E0,1.984218364E0
3.668236723E0,1.453869581E0,-2.902943790E-1,-1.310503483E0,1.978743784E0
3.670682556E0,1.443484783E0,-3.532134295E-1,-1.300118804E0,1.974516890E0
3.673127608E0,1.436154485E0,-4.142999053E-1,-1.290344954E0,1.974632678E0
3.675571827E0,1.433100104E0,-4.735537767E-1,-1.279960275E0,1.978971297E0
3.678016879E0,1.433100104E0,-5.273098946E-1,-1.269575477E0,1.985863420E0
3.680462712E0,1.439819694E0,-5.688486695E-1,-1.261634231E0,1.997095514E0
3.682907712E0,1.443484783E0,-6.000027657E-1,-1.254303932E0,2.004228029E0
3.685351983E0,1.444706559E0,-6.183287501E-1,-1.246973515E0,2.006103295E0
3.687796983E0,1.442263126E0,-6.238265038E-1,-1.241475701E0,2.002634352E0
3.690242817E0,1.436154485E0,-6.201612949E-1,-1.239643216E0,1.995959679E0
3.692687869E0,1.427602410E0,-6.036679745E-1,-1.239032269E0,1.984354965E0
3.695132087E0,1.415995955E0,-5.767899156E-1,-1.242697477E0,1.970286317E0
3.697577087E0,1.398891687E0,-5.413597822E-1,-1.251860499E0,1.953745909E0
3.700022921E0,1.380565763E0,-4.985992312E-1,-1.260412574E0,1.934735867E0
3.702467973E0,1.359796405E0,-4.540061057E-1,-1.272019029E0,1.916559474E0
3.704912192E0,1.335361838E0,-4.051369429E-1,-1.286068916E0,1.897709261E0
3.707357244E0,1.312148929E0,-3.538242877E-1,-1.302562237E0,1.882443842E0
3.709803077E0,1.288936019E0,-3.031225204E-1,-1.319666386E0,1.869427370E0
3.712248077E0,1.263279796E0,-2.548642159E-1,-1.336770654E0,1.856821852E0
3.714692348E0,1.239456058E0,-2.053841650E-1,-1.352653146E0,1.846105226E0
3.717137348E0,1.218686581E0,-1.571258605E-1,-1.369757295E0,1.840141452E0
3.719583181E0,1.197917223E0,-1.113110110E-1,-1.383196354E0,1.833201562E0
3.722028233E0,1.175315261E0,-6.732874364E-2,-1.396635413E0,1.826606033E0
3.724472452E0,1.155767560E0,-2.456821501E-2,-1.405798316E0,1.820074492E0
3.726917504E0,1.133776426E0,1.697058603E-2,-1.413128734E0,1.811813954E0
3.729363337E0,1.111174464E0,5.240073800E-2,-1.416793942E0,1.801321627E0
3.731808337E0,1.088572383E0,8.294396847E-2,-1.418015599E0,1.789591511E0
3.734252608E0,1.065359592E0,1.073785648E-1,-1.416793942E0,1.775901544E0
3.736697608E0,1.040314078E0,1.232610419E-1,-1.409463525E0,1.756141821E0
3.739143442E0,1.015268683E0,1.293696910E-1,-1.398468018E0,1.732980038E0
3.741588494E0,9.908339977E-1,1.263153702E-1,-1.382585526E0,1.705652461E0
3.744032712E0,9.657885432E-1,1.128763333E-1,-1.367313862E0,1.677806834E0
3.746477712E0,9.431865811E-1,8.905262500E-2,-1.345933676E0,1.645924894E0
3.748923546E0,9.230280519E-1,5.301160365E-2,-1.323331594E0,1.614310232E0
3.751368598E0,9.047020674E-1,1.698966371E-3,-1.295842767E0,1.580410451E0
3.753812817E0,8.888196349E-1,-6.183096394E-2,-1.265910387E0,1.548015672E0
3.756257869E0,8.778240681E-1,-1.375781894E-1,-1.236588836E0,1.522712974E0
3.758703702E0,8.692719340E-1,-2.285970300E-1,-1.204213023E0,1.502670723E0
3.761148702E0,8.631632924E-1,-3.336657584E-1,-1.169393659E0,1.491262967E0
3.763592973E0,8.601089716E-1,-4.533952475E-1,-1.135185242E0,1.494657227E0
3.766037973E0,8.607198596E-1,-5.792334080E-1,-1.100365996E0,1.512334402E0
3.768483806E0,8.649958968E-1,-7.124018669E-1,-1.065546751E0,1.546326033E0
3.770928858E0,8.717154264E-1,-8.480138779E-1,-1.031338334E0,1.594576458E0
3.773373077E0,8.839327097E-1,-9.799606204E-1,-9.971297383E-1,1.654063955E0
3.775818129E0,8.961499929E-1,-1.100301027E0,-9.635322094E-1,1.715267174E0
3.778263910E0,9.138650894E-1,-1.203537107E0,-9.335998297E-1,1.776305044E0
3.780708962E0,9.309692979E-1,-1.283560395E0,-9.067217708E-1,1.826574798E0
3.783153181E0,9.419648647E-1,-1.337927341E0,-8.828980327E-1,1.859262304E0
3.785598233E0,9.456300139E-1,-1.373357534E0,-8.657938242E-1,1.878809726E0
3.788044067E0,9.425756931E-1,-1.389850855E0,-8.547982574E-1,1.884360474E0
3.790489067E0,9.340236187E-1,-1.392905235E0,-8.493005037E-1,1.879866075E0
3.792933337E0,9.211954474E-1,-1.386185646E0,-8.499113321E-1,1.868812717E0
3.795378337E0,9.053129554E-1,-1.373357534E0,-8.560199738E-1,1.854311910E0
3.797824171E0,8.924847841E-1,-1.355642438E0,-8.712916374E-1,1.842130459E0
3.800269223E0,8.784348965E-1,-1.337927341E0,-8.896175623E-1,1.831151781E0
3.802713442E0,8.674393296E-1,-1.318990588E0,-9.109978080E-1,1.822664031E0
3.805158494E0,8.564437628E-1,-1.295777678E0,-9.342106581E-1,1.812535590E0
3.807604327E0,8.478916883E-1,-1.273175716E0,-9.604778886E-1,1.806215517E0
3.810049327E0,8.362852335E-1,-1.248130202E0,-9.873558879E-1,1.797796886E0
3.812493598E0,8.246788383E-1,-1.223695636E0,-1.013012290E0,1.789893878E0
3.814938598E0,8.118506670E-1,-1.194985032E0,-1.038057804E0,1.778947649E0
3.817384431E0,7.978007793E-1,-1.167496085E0,-1.061270714E0,1.768001335E0
3.819829483E0,7.825291753E-1,-1.139396310E0,-1.078374863E0,1.753130972E0
3.822273702E0,7.678683996E-1,-1.110074878E0,-1.093646526E0,1.737225040E0
3.824718754E0,7.513750196E-1,-1.081975102E0,-1.105252862E0,1.719540180E0
3.827164535E0,7.354925871E-1,-1.056318760E0,-1.112583280E0,1.701352469E0
3.829609587E0,7.189992070E-1,-1.035549283E0,-1.113805056E0,1.682225870E0
3.832053806E0,7.018949986E-1,-1.023332119E0,-1.110139847E0,1.665015223E0
3.834498858E0,6.878451109E-1,-1.016001701E0,-1.102809429E0,1.649720883E0
3.836944692E0,6.805147529E-1,-1.014779925E0,-1.090592146E0,1.637763675E0
3.839389692E0,6.750169396E-1,-1.017223358E0,-1.076542258E0,1.627677629E0
3.841833962E0,6.682974696E-1,-1.022110343E0,-1.059438109E0,1.616706581E0
3.844278962E0,6.621888280E-1,-1.033105850E0,-1.038057804E0,1.607285210E0
3.846724796E0,6.566910148E-1,-1.047155738E0,-1.017288446E0,1.600829164E0
3.849169848E0,6.530258060E-1,-1.066092610E0,-9.934645295E-1,1.596861900E0
3.851614067E0,6.481389403E-1,-1.091748834E0,-9.708625674E-1,1.598303390E0
3.854059119E0,6.444737315E-1,-1.118626952E0,-9.445953965E-1,1.599666563E0
3.856504952E0,6.389759183E-1,-1.151613593E0,-9.195499420E-1,1.606261556E0
3.858949952E0,6.353107691E-1,-1.187654614E0,-8.932827711E-1,1.616198430E0
3.861394171E0,6.316455603E-1,-1.226139069E0,-8.706807494E-1,1.631097206E0
3.863839223E0,6.267586350E-1,-1.266456246E0,-8.456352949E-1,1.646765576E0
3.866285056E0,6.224825978E-1,-1.307384133E0,-8.242550492E-1,1.666173533E0
3.868730056E0,6.212608814E-1,-1.349533796E0,-8.004313111E-1,1.687571283E0
3.871174327E0,6.151522398E-1,-1.391072631E0,-7.796618938E-1,1.709200986E0
3.873619327E0,6.114870310E-1,-1.432000518E0,-7.619467974E-1,1.733523808E0
3.876065160E0,6.072109938E-1,-1.472928524E0,-7.442317605E-1,1.758438097E0
3.878510212E0,6.035457850E-1,-1.514467239E0,-7.295709848E-1,1.786099761E0
3.880954431E0,6.017131805E-1,-1.551119208E0,-7.173537016E-1,1.811801833E0
3.883399483E0,5.974371433E-1,-1.583495021E0,-7.057472467E-1,1.833703029E0
3.885845317E0,5.949936509E-1,-1.609151244E0,-6.996386051E-1,1.852803106E0
3.888290317E0,5.931611061E-1,-1.626866341E0,-6.910865307E-1,1.864439535E0
3.890734587E0,5.901067853E-1,-1.634196758E0,-6.855887175E-1,1.867848214E0
3.893179587E0,5.882741809E-1,-1.633585930E0,-6.807017922E-1,1.864946228E0
3.895625421E0,5.833872557E-1,-1.626255512E0,-6.800909638E-1,1.856763690E0
3.898070473E0,5.809437633E-1,-1.615870833E0,-6.800909638E-1,1.846904958E0
3.900514692E0,5.742242932E-1,-1.596933961E0,-6.813126802E-1,1.828693135E0
3.902959744E0,5.699482560E-1,-1.575553775E0,-6.855887175E-1,1.810315608E0
3.905405525E0,5.607852340E-1,-1.551119208E0,-6.916973591E-1,1.788545810E0
3.907850577E0,5.546765924E-1,-1.523630261E0,-6.978060603E-1,1.765233297E0
3.910294796E0,5.479571223E-1,-1.497363091E0,-7.063581347E-1,1.743930918E0
3.912739848E0,5.375723839E-1,-1.470484972E0,-7.155210972E-1,1.721418183E0
3.915185681E0,5.290203094E-1,-1.444828749E0,-7.277383804E-1,1.702056330E0
3.917630681E0,5.198573470E-1,-1.415507197E0,-7.381231189E-1,1.678909773E0
3.920074952E0,5.113052130E-1,-1.389850855E0,-7.485077977E-1,1.659331897E0
3.922519952E0,5.045856833E-1,-1.361751080E0,-7.595033646E-1,1.638846569E0
3.924965785E0,4.978662133E-1,-1.334873080E0,-7.704989314E-1,1.619699204E0
3.927410837E0,4.911466837E-1,-1.306162357E0,-7.802727818E-1,1.598784158E0
3.929855056E0,4.819837213E-1,-1.277451754E0,-7.888248563E-1,1.576843665E0
3.932300108E0,4.746533334E-1,-1.247519374E0,-7.961552739E-1,1.554176179E0
3.934745942E0,4.685446918E-1,-1.219419599E0,-8.016530275E-1,1.532698882E0
3.937190942E0,4.618251622E-1,-1.192541599E0,-8.095942736E-1,1.513565603E0
3.939635160E0,4.557165205E-1,-1.162609220E0,-8.132594824E-1,1.490210968E0
3.942080212E0,4.496078789E-1,-1.132066011E0,-8.157029152E-1,1.465978153E0
3.944526046E0,4.434992373E-1,-1.100911856E0,-8.163138032E-1,1.440509185E0
3.946971098E0,4.367797077E-1,-1.067314267E0,-8.175355196E-1,1.413612600E0
3.949415317E0,4.294493496E-1,-1.032495022E0,-8.144811988E-1,1.383420521E0
3.951860317E0,4.233406782E-1,-9.970648289E-1,-8.126485944E-1,1.354161490E0
3.954306150E0,4.172320366E-1,-9.567477703E-1,-8.108159900E-1,1.321692641E0
3.956751202E0,4.117342532E-1,-9.170415998E-1,-8.053182364E-1,1.288032551E0
3.959195421E0,4.068473577E-1,-8.767244816E-1,-8.010421991E-1,1.255324338E0
3.961640473E0,4.019604325E-1,-8.339639902E-1,-7.937117815E-1,1.219445168E0
3.964086306E0,3.970735073E-1,-7.912034392E-1,-7.869922519E-1,1.184494431E0
3.966531306E0,3.927974701E-1,-7.502754927E-1,-7.802727818E-1,1.151533231E0
3.968975577E0,3.909648657E-1,-7.062932253E-1,-7.747749686E-1,1.118919076E0
3.971420577E0,3.879105449E-1,-6.623109579E-1,-7.686663270E-1,1.086268069E0
3.973866410E0,3.842453361E-1,-6.207721829E-1,-7.625576854E-1,1.055697307E0
3.976311410E0,3.811910152E-1,-5.774008036E-1,-7.576707602E-1,1.026042523E0
3.978755681E0,3.787475824E-1,-5.352511406E-1,-7.515621185E-1,9.973911633E-1
3.981200733E0,3.744715154E-1,-4.943231940E-1,-7.448425889E-1,9.692135050E-1
3.983646514E0,3.708063364E-1,-4.521735311E-1,-7.399557233E-1,9.431292137E-1
3.986091567E0,3.677520156E-1,-4.094129801E-1,-7.362905145E-1,9.192302513E-1
3.988535785E0,3.646976948E-1,-3.678741753E-1,-7.332361937E-1,8.977589505E-1
3.990980837E0,3.622542322E-1,-3.238919377E-1,-7.301818728E-1,8.770973056E-1
3.993426671E0,3.598107696E-1,-2.786879241E-1,-7.265166640E-1,8.572964552E-1
3.995871671E0,3.579781651E-1,-2.322622240E-1,-7.228515148E-1,8.394095662E-1
3.998315942E0,3.555347025E-1,-1.833930463E-1,-7.197971344E-1,8.234961134E-1
