"Time (s)","Acceleration x (m/s^2)","Acceleration y (m/s^2)","Acceleration z (m/s^2)","Absolute acceleration (m/s^2)"
4.858490000E-3,2.780290365E0,-5.996331692E0,7.294173241E0,9.843321164E0
7.261458000E-3,2.780290365E0,-5.996331692E0,7.294173241E0,9.843321164E0
9.689323000E-3,2.792260885E0,-5.965208530E0,7.294173241E0,9.827786980E0
1.214213500E-2,2.792260885E0,-5.965208530E0,7.294173241E0,9.827786980E0
1.459520800E-2,2.787472725E0,-5.998725891E0,7.253473759E0,9.816699959E0
1.704849000E-2,2.787472725E0,-5.998725891E0,7.253473759E0,9.816699959E0
1.950192700E-2,2.785078764E0,-5.974784851E0,7.248685837E0,9.797865283E0
2.195552100E-2,2.785078764E0,-5.974784851E0,7.248685837E0,9.797865283E0
2.440901000E-2,2.777896404E0,-5.984361172E0,7.265444279E0,9.814069881E0
2.686239600E-2,2.777896404E0,-5.984361172E0,7.265444279E0,9.814069881E0
2.931578100E-2,2.780290365E0,-5.967602253E0,7.263050556E0,9.802764638E0
3.176916700E-2,2.770714283E0,-5.958025932E0,7.243897438E0,9.780029690E0
3.422260400E-2,2.758743763E0,-5.965208530E0,7.255867958E0,9.789892736E0
3.667609400E-2,2.761137724E0,-5.972390652E0,7.253473759E0,9.793171764E0
3.912953100E-2,2.744378805E0,-5.962814331E0,7.258262157E0,9.786170820E0
4.158296900E-2,2.720438004E0,-5.955631733E0,7.255867958E0,9.773328609E0
4.403645800E-2,2.722832203E0,-5.958025932E0,7.270232201E0,9.786121012E0
4.648989600E-2,2.730014324E0,-5.955631733E0,7.284597397E0,9.797340802E0
4.894333300E-2,2.737196684E0,-5.948449612E0,7.263050556E0,9.778967320E0
5.139677100E-2,2.746773243E0,-5.946055412E0,7.239109516E0,9.762430271E0
5.385020800E-2,2.753955364E0,-5.962814331E0,7.251080036E0,9.783536507E0
5.630364600E-2,2.770714283E0,-5.958025932E0,7.248685837E0,9.783576903E0
5.875708300E-2,2.780290365E0,-5.941267490E0,7.239109516E0,9.769000998E0
6.121052100E-2,2.780290365E0,-5.950843811E0,7.277414799E0,9.803230219E0
6.366401000E-2,2.789866924E0,-5.950843811E0,7.239109516E0,9.777556244E0
6.611750000E-2,2.787472725E0,-5.955631733E0,7.258262157E0,9.793973814E0
6.857099000E-2,2.777896404E0,-5.950843811E0,7.272626877E0,9.798997509E0
7.102447900E-2,2.787472725E0,-5.948449612E0,7.275021076E0,9.802040024E0
7.347796900E-2,2.780290365E0,-5.958025932E0,7.282202721E0,9.811144887E0
7.593145800E-2,2.758743763E0,-5.979572773E0,7.325296879E0,9.850174215E0
7.838494800E-2,2.720438004E0,-5.972390652E0,7.313326359E0,9.826239131E0
8.083843800E-2,2.722832203E0,-5.981966972E0,7.301355839E0,9.823825179E0
8.329192700E-2,2.713255644E0,-5.993937492E0,7.308538437E0,9.833807855E0
8.574541700E-2,2.734802723E0,-5.993937492E0,7.322902679E0,9.850448530E0
8.819890600E-2,2.770714283E0,-5.972390652E0,7.310932159E0,9.838497689E0
9.065239600E-2,2.761137724E0,-5.986755371E0,7.303750038E0,9.839201493E0
9.310588500E-2,2.792260885E0,-5.986755371E0,7.303750038E0,9.847980775E0
9.555937500E-2,2.818596125E0,-5.967602253E0,7.294173241E0,9.836753734E0
9.801281300E-2,2.828172445E0,-5.972390652E0,7.286991596E0,9.837085747E0
1.004662500E-1,2.861689806E0,-5.967602253E0,7.298962116E0,9.852735314E0
1.029196880E-1,2.871266127E0,-5.960420132E0,7.346843719E0,9.886702684E0
1.053731250E-1,2.866477966E0,-5.950843811E0,7.349237919E0,9.881322583E0
1.078265630E-1,2.897601366E0,-5.958025932E0,7.318114281E0,9.871624148E0
1.102800000E-1,2.883236647E0,-5.962814331E0,7.363602161E0,9.904082244E0
1.127334380E-1,2.892813206E0,-5.948449612E0,7.332479477E0,9.875103863E0
1.151868750E-1,2.883236647E0,-5.955631733E0,7.330084801E0,9.874854231E0
1.176403130E-1,2.852113485E0,-5.977179050E0,7.315720558E0,9.868180583E0
1.200937500E-1,2.832960606E0,-5.969996452E0,7.325296879E0,9.865419291E0
1.225471880E-1,2.828172445E0,-5.974784851E0,7.318114281E0,9.861612952E0
1.250006250E-1,2.811413765E0,-5.984361172E0,7.306143761E0,9.853748659E0
1.274540630E-1,2.785078764E0,-5.984361172E0,7.294173241E0,9.837388150E0
1.298986980E-1,2.785078764E0,-5.986755371E0,7.248685837E0,9.805169553E0
1.323193750E-1,2.782684565E0,-6.010696411E0,7.294173241E0,9.852754336E0
1.347251040E-1,2.756349325E0,-5.998725891E0,7.260656357E0,9.813220911E0
1.371303130E-1,2.787472725E0,-6.001119614E0,7.143345356E0,9.737084969E0
1.395353130E-1,2.758743763E0,-5.991543293E0,7.528795242E0,1.000959619E1
1.419408330E-1,2.806625605E0,-5.955631733E0,6.915905952E0,9.548636121E0
1.443459380E-1,2.782684565E0,-5.986755371E0,7.650894165E0,1.010548142E1
1.467509900E-1,2.837749004E0,-5.955631733E0,7.016458511E0,9.630838945E0
1.491563540E-1,2.797049284E0,-5.984361172E0,7.325296879E0,9.863875389E0
1.515618230E-1,2.813807964E0,-5.962814331E0,7.456972599E0,9.953849022E0
1.539676040E-1,2.818596125E0,-5.946055412E0,7.006881714E0,9.612307238E0
1.563728650E-1,2.818596125E0,-5.967602253E0,7.648500443E0,1.010229280E1
1.587778650E-1,2.852113485E0,-5.946055412E0,7.073916435E0,9.671112657E0
1.611832810E-1,2.818596125E0,-5.974784851E0,7.452184200E0,9.958794480E0
1.635882810E-1,2.828172445E0,-5.969996452E0,7.461760521E0,9.965805893E0
1.659932290E-1,2.844931126E0,-5.974784851E0,7.085886955E0,9.695436095E0
1.683984900E-1,2.835354567E0,-5.996331692E0,7.682017326E0,1.014931621E1
1.708035940E-1,2.844931126E0,-5.955631733E0,7.059551716E0,9.664390973E0
1.732092190E-1,2.832960606E0,-5.998725891E0,7.490489960E0,1.000588916E1
1.756145830E-1,2.823384285E0,-5.977179050E0,7.428243160E0,9.943689691E0
1.780193750E-1,2.816201925E0,-6.010696411E0,7.121798515E0,9.735475270E0
1.804250000E-1,2.780290365E0,-6.025060654E0,7.674835205E0,1.014566241E1
1.828303130E-1,2.797049284E0,-5.993937492E0,7.045187473E0,9.663614122E0
1.852351040E-1,2.785078764E0,-6.017878532E0,7.538372040E0,1.003984954E1
1.876402600E-1,2.799443245E0,-5.998725891E0,7.354025841E0,9.894609182E0
1.900454170E-1,2.801837444E0,-6.017878532E0,7.140951157E0,9.749786588E0
1.924508850E-1,2.777896404E0,-6.013090134E0,7.617376804E0,1.009447328E1
1.948559380E-1,2.825778484E0,-5.986755371E0,6.970970154E0,9.613567954E0
1.972607290E-1,2.782684565E0,-6.022666931E0,7.521612644E0,1.002948190E1
1.996663540E-1,2.820990086E0,-5.991543293E0,7.251080036E0,9.820119031E0
2.020716670E-1,2.797049284E0,-5.998725891E0,7.162498474E0,9.752414132E0
2.044765100E-1,2.813807964E0,-6.015484333E0,7.588647842E0,1.008420265E1
2.068816670E-1,2.804231405E0,-5.974784851E0,6.975758553E0,9.603279397E0
2.092870310E-1,2.787472725E0,-6.020272732E0,7.579071522E0,1.007253757E1
2.116926560E-1,2.818596125E0,-5.996331692E0,7.196015358E0,9.781774630E0
2.140976560E-1,2.799443245E0,-5.996331692E0,7.207985878E0,9.785087463E0
2.165022920E-1,2.794655085E0,-5.993937492E0,7.552736282E0,1.003898446E1
2.189078650E-1,2.813807964E0,-5.986755371E0,6.978152275E0,9.615267251E0
2.213131250E-1,2.804231405E0,-6.005908012E0,7.605406284E0,1.008845130E1
2.237176560E-1,2.825778484E0,-5.984361172E0,7.143345356E0,9.737812154E0
2.261221880E-1,2.794655085E0,-6.017878532E0,7.284597397E0,9.853441952E0
2.285270830E-1,2.799443245E0,-6.010696411E0,7.538372040E0,1.003954216E1
2.309326560E-1,2.787472725E0,-5.989149570E0,6.997305393E0,9.623003665E0
2.333378650E-1,2.756349325E0,-6.020272732E0,7.667653084E0,1.013084642E1
2.357430210E-1,2.758743763E0,-5.996331692E0,7.176862717E0,9.750590719E0
2.381488020E-1,2.710861683E0,-6.015484333E0,7.382755280E0,9.901509902E0
2.405543230E-1,2.718043804E0,-6.025060654E0,7.550342560E0,1.003477906E1
2.429592190E-1,2.732408524E0,-6.017878532E0,7.047581196E0,9.661745136E0
2.453641670E-1,2.701285124E0,-6.029849052E0,7.677229404E0,1.012896205E1
2.477692190E-1,2.751561165E0,-6.005908012E0,7.035610676E0,9.651001890E0
2.501748960E-1,2.730014324E0,-6.008302212E0,7.356420517E0,9.882792950E0
2.525802600E-1,2.749167204E0,-6.020272732E0,7.423454762E0,9.945314710E0
2.549850520E-1,2.780290365E0,-6.008302212E0,7.002093315E0,9.636338557E0
2.573906250E-1,2.797049284E0,-5.996331692E0,7.662864685E0,1.012417768E1
2.597958850E-1,2.813807964E0,-5.977179050E0,7.028429031E0,9.645879914E0
2.622010420E-1,2.801837444E0,-6.015484333E0,7.452184200E0,9.978546697E0
2.646063540E-1,2.828172445E0,-5.972390652E0,7.416272640E0,9.933232573E0
2.670113540E-1,2.837749004E0,-5.974784851E0,7.073916435E0,9.684583995E0
2.694168230E-1,2.830566645E0,-6.005908012E0,7.691593647E0,1.016088832E1
2.718222400E-1,2.820990086E0,-5.972390652E0,7.014063835E0,9.634548596E0
2.742273960E-1,2.804231405E0,-6.003513813E0,7.543159962E0,1.004017699E1
2.766335940E-1,2.816201925E0,-6.003513813E0,7.363602161E0,9.909379808E0
2.790397400E-1,2.801837444E0,-6.013090134E0,7.119404316E0,9.731056666E0
2.814452600E-1,2.787472725E0,-6.049001694E0,7.653288364E0,1.014560242E1
2.838510420E-1,2.777896404E0,-6.029849052E0,6.987729073E0,9.638679662E0
2.862565630E-1,2.744378805E0,-6.053789616E0,7.595829964E0,1.009339470E1
2.886623960E-1,2.765925884E0,-6.049001694E0,7.373178959E0,9.929981644E0
2.910679690E-1,2.734802723E0,-6.053789616E0,7.246292114E0,9.830374563E0
2.934730730E-1,2.756349325E0,-6.068154812E0,7.698776245E0,1.018288368E1
2.958789580E-1,2.789866924E0,-6.044213772E0,7.045187473E0,9.692808886E0
2.982845830E-1,2.777896404E0,-6.075336933E0,7.677229404E0,1.017675187E1
3.006897400E-1,2.830566645E0,-6.039425373E0,7.334873199E0,9.913986646E0
3.030952080E-1,2.818596125E0,-6.051395893E0,7.327691078E0,9.912564396E0
3.055010420E-1,2.832960606E0,-6.056184292E0,7.715534687E0,1.020943238E1
3.079071350E-1,2.871266127E0,-6.027454853E0,7.057157993E0,9.714826819E0
3.103127080E-1,2.849719524E0,-6.077730656E0,7.698776245E0,1.021424823E1
3.127181770E-1,2.873660326E0,-6.046607971E0,7.210380554E0,9.839155419E0
3.151243230E-1,2.844931126E0,-6.087307453E0,7.363602161E0,9.968529577E0
3.175299480E-1,2.837749004E0,-6.065760136E0,7.636529922E0,1.015691167E1
3.199354170E-1,2.823384285E0,-6.058578491E0,7.045187473E0,9.711464292E0
3.223413540E-1,2.787472725E0,-6.096883774E0,7.682017326E0,1.019585142E1
3.247471350E-1,2.818596125E0,-6.053789616E0,7.176862717E0,9.803071523E0
3.271531250E-1,2.770714283E0,-6.080125332E0,7.382755280E0,9.957402131E0
3.295586980E-1,2.789866924E0,-6.072942734E0,7.514431000E0,1.005637430E1
3.319636980E-1,2.787472725E0,-6.051395893E0,7.014063835E0,9.674010954E0
3.343694790E-1,2.749167204E0,-6.075336933E0,7.684412003E0,1.017437109E1
3.367750520E-1,2.780290365E0,-6.025060654E0,7.059551716E0,9.688583014E0
3.391803650E-1,2.761137724E0,-6.039425373E0,7.394725800E0,9.938838464E0
3.415859380E-1,2.789866924E0,-6.029849052E0,7.435425282E0,9.971358291E0
3.439915100E-1,2.782684565E0,-6.017878532E0,7.049975395E0,9.677827674E0
3.463976560E-1,2.751561165E0,-6.027454853E0,7.667653084E0,1.013381491E1
3.488034380E-1,2.775502205E0,-5.981966972E0,7.011670113E0,9.625531628E0
3.512087500E-1,2.753955364E0,-6.025060654E0,7.464154243E0,9.979941112E0
3.536148960E-1,2.780290365E0,-5.993937492E0,7.404302597E0,9.923759274E0
3.560207290E-1,2.763531685E0,-5.989149570E0,7.081099033E0,9.677240488E0
3.584261460E-1,2.763531685E0,-6.020272732E0,7.660470963E0,1.012736918E1
3.608317190E-1,2.758743763E0,-5.996331692E0,7.054763794E0,9.661074117E0
3.632372400E-1,2.739590883E0,-6.022666931E0,7.591042042E0,1.006984580E1
3.656432290E-1,2.741984844E0,-6.025060654E0,7.387543201E0,9.919457209E0
3.680489580E-1,2.746773243E0,-6.003513813E0,7.241503239E0,9.799301532E0
3.704544790E-1,2.734802723E0,-6.034637451E0,7.775387287E0,1.021531412E1
3.728607810E-1,2.756349325E0,-6.025060654E0,7.097857475E0,9.709706392E0
3.752667190E-1,2.741984844E0,-6.049001694E0,7.670046806E0,1.014586223E1
3.776720310E-1,2.787472725E0,-6.032243252E0,7.349237919E0,9.908040211E0
3.800771880E-1,2.770714283E0,-6.044213772E0,7.243897438E0,9.832773152E0
3.824822400E-1,2.777896404E0,-6.063366413E0,7.679623604E0,1.017141777E1
3.848880730E-1,2.787472725E0,-6.039425373E0,7.028429031E0,9.676956013E0
3.872935940E-1,2.768319845E0,-6.053789616E0,7.715534687E0,1.019026197E1
3.896984380E-1,2.828172445E0,-6.039425373E0,7.344449997E0,9.920391322E0
3.921041670E-1,2.797049284E0,-6.051395893E0,7.416272640E0,9.972160088E0
3.945095310E-1,2.804231405E0,-6.027454853E0,7.768205166E0,1.022442846E1
3.969143750E-1,2.811413765E0,-6.025060654E0,7.184044838E0,9.788559826E0
3.993196880E-1,2.777896404E0,-6.056184292E0,7.861574650E0,1.030526237E1
4.017248440E-1,2.837749004E0,-6.041819572E0,7.382755280E0,9.952963311E0
4.041304170E-1,2.799443245E0,-6.044213772E0,7.500065804E0,1.003097152E1
4.065356250E-1,2.809019566E0,-6.029849052E0,7.701170444E0,1.017633022E1
4.089402080E-1,2.844931126E0,-6.017878532E0,7.109827995E0,9.739514837E0
4.113454170E-1,2.809019566E0,-6.051395893E0,7.772993565E0,1.024350585E1
4.137505730E-1,2.842537165E0,-6.015484333E0,7.181651115E0,9.789902044E0
4.161553130E-1,2.828172445E0,-6.034637451E0,7.418666840E0,9.972563674E0
4.185605730E-1,2.816201925E0,-6.010696411E0,7.521612644E0,1.003165596E1
4.209661460E-1,2.818596125E0,-6.005908012E0,7.011670113E0,9.652923543E0
4.233719270E-1,2.763531685E0,-6.015484333E0,7.672441483E0,1.013358364E1
4.257772400E-1,2.773108244E0,-5.972390652E0,7.066734314E0,9.659105201E0
4.281821350E-1,2.732408524E0,-5.991543293E0,7.385149479E0,9.894699601E0
4.305877600E-1,2.708467484E0,-5.974784851E0,7.399513721E0,9.888713437E0
4.329930210E-1,2.696496964E0,-5.969996452E0,6.992517471E0,9.581610204E0
4.353980730E-1,2.679738522E0,-5.974784851E0,7.603012562E0,1.003418420E1
4.378035420E-1,2.701285124E0,-5.931690693E0,6.949423313E0,9.527663941E0
4.402089580E-1,2.655797482E0,-5.955631733E0,7.387543201E0,9.853862398E0
4.426147920E-1,2.667768002E0,-5.950843811E0,7.308538437E0,9.795114203E0
4.450203650E-1,2.691708803E0,-5.926902771E0,6.949423313E0,9.521972334E0
4.474252600E-1,2.682132483E0,-5.922114372E0,7.533583164E0,9.950886824E0
4.498308850E-1,2.734802723E0,-5.912538528E0,6.851265430E0,9.453946043E0
4.522364060E-1,2.691708803E0,-5.941267490E0,7.361208439E0,9.835209472E0
4.546415630E-1,2.732408524E0,-5.934084892E0,7.167286396E0,9.697907719E0
4.570470310E-1,2.725226164E0,-5.938873291E0,6.982940674E0,9.563395530E0
4.594522400E-1,2.737196684E0,-5.926902771E0,7.533583164E0,9.968715937E0
4.618579170E-1,2.749167204E0,-5.929296970E0,6.870418549E0,9.482464548E0
4.642632810E-1,2.737196684E0,-5.934084892E0,7.471336842E0,9.926050745E0
4.666680730E-1,2.789866924E0,-5.919720173E0,7.181651115E0,9.716097834E0
4.690738540E-1,2.775502205E0,-5.917326450E0,7.093069553E0,9.645195721E0
4.714794270E-1,2.777896404E0,-5.914932251E0,7.540765762E0,9.978290447E0
4.738842710E-1,2.806625605E0,-5.883808613E0,6.918299675E0,9.505746760E0
4.762892710E-1,2.792260885E0,-5.917326450E0,7.540765762E0,9.983717817E0
4.786945310E-1,2.835354567E0,-5.867050171E0,7.143345356E0,9.668965617E0
4.811004170E-1,2.816201925E0,-5.857473850E0,7.157710075E0,9.668185285E0
4.835057810E-1,2.818596125E0,-5.876626968E0,7.516824722E0,9.948963893E0
4.859102600E-1,2.820990086E0,-5.828744888E0,6.903935432E0,9.465546814E0
4.883155730E-1,2.816201925E0,-5.859868050E0,7.567101002E0,9.976475551E0
4.907208850E-1,2.849719524E0,-5.821562290E0,7.102645874E0,9.615563804E0
4.931258330E-1,2.816201925E0,-5.831138611E0,7.222351074E0,9.700284832E0
4.955310940E-1,2.820990086E0,-5.826350689E0,7.497672081E0,9.905525430E0
4.979363020E-1,2.835354567E0,-5.831138611E0,6.942240715E0,9.499269402E0
5.003422400E-1,2.794655085E0,-5.835927010E0,7.617376804E0,9.994627081E0
5.027478650E-1,2.842537165E0,-5.811985970E0,7.085886955E0,9.595258849E0
5.051530210E-1,2.820990086E0,-5.828744888E0,7.306143761E0,9.762785908E0
5.075588020E-1,2.840142965E0,-5.819168568E0,7.456972599E0,9.876010086E0
5.099640100E-1,2.828172445E0,-5.814380169E0,6.939846992E0,9.485096331E0
5.123688020E-1,2.832960606E0,-5.840715408E0,7.619771004E0,1.001002160E1
5.147740630E-1,2.861689806E0,-5.802409649E0,7.023640156E0,9.549279937E0
5.171790100E-1,2.828172445E0,-5.840715408E0,7.370784760E0,9.820437049E0
5.195841670E-1,2.864084005E0,-5.821562290E0,7.442607880E0,9.873498708E0
5.219893750E-1,2.866477966E0,-5.816774368E0,7.026034355E0,9.561209063E0
5.243943230E-1,2.847325087E0,-5.859868050E0,7.653288364E0,1.005077791E1
5.268001040E-1,2.880842686E0,-5.811985970E0,7.030822754E0,9.566133184E0
5.292055730E-1,2.854507446E0,-5.833532810E0,7.476124763E0,9.903068175E0
5.316105210E-1,2.873660326E0,-5.821562290E0,7.452184200E0,9.883499407E0
5.340158330E-1,2.876054525E0,-5.816774368E0,7.140951157E0,9.648820503E0
5.364211980E-1,2.880842686E0,-5.831138611E0,7.739475727E0,1.010944690E1
5.388270830E-1,2.914359808E0,-5.811985970E0,7.088280678E0,9.618544431E0
5.412327600E-1,2.892813206E0,-5.855079651E0,7.579071522E0,1.000463148E1
5.436381770E-1,2.947877407E0,-5.819168568E0,7.421061039E0,9.880528881E0
5.460440100E-1,2.940695286E0,-5.840715408E0,7.196015358E0,9.723388415E0
5.484491670E-1,2.907177687E0,-5.845503330E0,7.741869926E0,1.012709935E1
5.508540630E-1,2.962241888E0,-5.838321209E0,7.069128513E0,9.635011649E0
5.532594790E-1,2.914359808E0,-5.857473850E0,7.629347324E0,1.005039470E1
5.556648960E-1,2.947877407E0,-5.835927010E0,7.361208439E0,9.845578447E0
5.580708330E-1,2.914359808E0,-5.862262249E0,7.248685837E0,9.767448906E0
5.604766150E-1,2.923936367E0,-5.874232769E0,7.698776245E0,1.011568931E1
5.628819790E-1,2.943089247E0,-5.855079651E0,7.061945915E0,9.634044433E0
5.652881770E-1,2.888024807E0,-5.879020691E0,7.684412003E0,1.009721543E1
5.676938020E-1,2.899995327E0,-5.862262249E0,7.286991596E0,9.791646342E0
5.700989580E-1,2.871266127E0,-5.886203289E0,7.308538437E0,9.813576943E0
5.725045830E-1,2.876054525E0,-5.874232769E0,7.679623604E0,1.008736432E1
5.749101560E-1,2.861689806E0,-5.857473850E0,7.085886955E0,9.628554533E0
5.773157810E-1,2.832960606E0,-5.876626968E0,7.725111485E0,1.011126885E1
5.797210940E-1,2.837749004E0,-5.869444370E0,7.241503239E0,9.743847586E0
5.821261460E-1,2.816201925E0,-5.876626968E0,7.387543201E0,9.850966062E0
5.845320830E-1,2.813807964E0,-5.898173332E0,7.658076286E0,1.006737783E1
5.869382290E-1,2.794655085E0,-5.847897530E0,7.100251198E0,9.613613765E0
5.893443750E-1,2.794655085E0,-5.883808613E0,7.772993565E0,1.014143628E1
5.917505210E-1,2.811413765E0,-5.859868050E0,7.229532719E0,9.721535077E0
5.941564060E-1,2.782684565E0,-5.869444370E0,7.473731041E0,9.902038491E0
5.965629170E-1,2.789866924E0,-5.847897530E0,7.610194683E0,9.994814960E0
5.989688540E-1,2.777896404E0,-5.857473850E0,7.126586914E0,9.634051556E0
6.013745310E-1,2.756349325E0,-5.874232769E0,7.758628845E0,1.011436571E1
6.037811460E-1,2.780290365E0,-5.831138611E0,7.152921677E0,9.638282032E0
6.061872400E-1,2.744378805E0,-5.855079651E0,7.533583164E0,9.928164384E0
6.085925520E-1,2.758743763E0,-5.850291729E0,7.495277882E0,9.900291460E0
6.109980210E-1,2.732408524E0,-5.828744888E0,7.102645874E0,9.585817739E0
6.134035420E-1,2.708467484E0,-5.850291729E0,7.715534687E0,1.005441122E1
6.158092190E-1,2.753955364E0,-5.821562290E0,7.061945915E0,9.557506880E0
6.182147920E-1,2.708467484E0,-5.876626968E0,7.495277882E0,9.902006421E0
6.206201040E-1,2.730014324E0,-5.857473850E0,7.375572681E0,9.806225089E0
6.230258850E-1,2.701285124E0,-5.847897530E0,7.100251198E0,9.586887603E0
6.254314060E-1,2.682132483E0,-5.871838570E0,7.667653084E0,1.002323434E1
6.278367710E-1,2.698891163E0,-5.845503330E0,7.004487991E0,9.514030414E0
6.302423440E-1,2.662979603E0,-5.874232769E0,7.519218922E0,9.906398144E0
6.326477600E-1,2.698891163E0,-5.850291729E0,7.310932159E0,9.744724514E0
6.350535420E-1,2.710861683E0,-5.862262249E0,7.114616394E0,9.608988301E0
6.374588540E-1,2.701285124E0,-5.850291729E0,7.610194683E0,9.971856284E0
6.398638540E-1,2.718043804E0,-5.857473850E0,7.133769035E0,9.622287809E0
6.422700000E-1,2.710861683E0,-5.840715408E0,7.327691078E0,9.754885139E0
6.446755730E-1,2.715649843E0,-5.850291729E0,7.318114281E0,9.754766220E0
6.470805730E-1,2.734802723E0,-5.847897530E0,7.387543201E0,9.810853480E0
6.494859900E-1,2.720438004E0,-5.826350689E0,7.421061039E0,9.819332575E0
6.518914580E-1,2.713255644E0,-5.838321209E0,7.464154243E0,9.857045668E0
6.542973440E-1,2.727620363E0,-5.850291729E0,7.473731041E0,9.875347175E0
6.567029170E-1,2.734802723E0,-5.855079651E0,7.533583164E0,9.925521596E0
6.591083330E-1,2.744378805E0,-5.869444370E0,7.531189442E0,9.934827963E0
6.615146350E-1,2.715649843E0,-5.857473850E0,7.574283600E0,9.952614030E0
6.639203130E-1,2.734802723E0,-5.886203289E0,7.579071522E0,9.978419726E0
6.663254690E-1,2.727620363E0,-5.886203289E0,7.586253643E0,9.981910956E0
6.687310420E-1,2.751561165E0,-5.893385410E0,7.559918404E0,9.972735167E0
6.711366670E-1,2.734802723E0,-5.917326450E0,7.545553684E0,9.971423101E0
6.735422400E-1,2.730014324E0,-5.924509048E0,7.533583164E0,9.965322923E0
6.759473960E-1,2.722832203E0,-5.943661213E0,7.516824722E0,9.962107093E0
6.783522400E-1,2.751561165E0,-5.953238010E0,7.516824722E0,9.975709777E0
6.807580210E-1,2.739590883E0,-5.955631733E0,7.502460480E0,9.963022674E0
6.831638540E-1,2.720438004E0,-5.977179050E0,7.528795242E0,9.990506000E0
6.855689580E-1,2.730014324E0,-5.969996452E0,7.528795242E0,9.988823437E0
6.879741670E-1,2.722832203E0,-5.979572773E0,7.562313080E0,1.001786828E1
6.903792710E-1,2.725226164E0,-5.962814331E0,7.562313080E0,1.000852594E1
6.927850000E-1,2.746773243E0,-5.967602253E0,7.571888924E0,1.002449708E1
6.951901040E-1,2.751561165E0,-5.943661213E0,7.569494724E0,1.000976762E1
6.975947400E-1,2.765925884E0,-5.919720173E0,7.531189442E0,9.970569057E0
7.000004690E-1,2.763531685E0,-5.914932251E0,7.514431000E0,9.954406268E0
7.024057290E-1,2.756349325E0,-5.948449612E0,7.521612644E0,9.977783880E0
7.048105730E-1,2.792260885E0,-5.943661213E0,7.516824722E0,9.981306697E0
7.072160420E-1,2.787472725E0,-5.922114372E0,7.519218922E0,9.968956617E0
7.096217710E-1,2.789866924E0,-5.929296970E0,7.504854202E0,9.963069638E0
7.120280210E-1,2.770714283E0,-5.938873291E0,7.464154243E0,9.932807870E0
7.144339580E-1,2.756349325E0,-5.943661213E0,7.445002079E0,9.917289255E0
7.168394270E-1,2.730014324E0,-5.955631733E0,7.425848961E0,9.902815778E0
7.192453130E-1,2.703679323E0,-5.941267490E0,7.442607880E0,9.899543087E0
7.216508330E-1,2.689314604E0,-5.960420132E0,7.416272640E0,9.887371797E0
7.240559900E-1,2.667768002E0,-5.965208530E0,7.394725800E0,9.868265733E0
7.264614060E-1,2.660585403E0,-5.969996452E0,7.377966881E0,9.856671224E0
7.288669790E-1,2.643826962E0,-6.013090134E0,7.368391037E0,9.871183335E0
7.312727600E-1,2.610309362E0,-6.008302212E0,7.356420517E0,9.850397619E0
7.336782290E-1,2.593550682E0,-6.010696411E0,7.351631641E0,9.843854137E0
7.360832810E-1,2.574397802E0,-6.041819572E0,7.342055321E0,9.850730131E0
7.384889580E-1,2.548062801E0,-6.034637451E0,7.277414799E0,9.791334912E0
7.408942710E-1,2.538486481E0,-6.034637451E0,7.265444279E0,9.779951091E0
7.432992710E-1,2.526515961E0,-6.051395893E0,7.263050556E0,9.785426845E0
7.457046880E-1,2.528910160E0,-6.051395893E0,7.270232201E0,9.791376568E0
7.481098440E-1,2.538486481E0,-6.060972214E0,7.270232201E0,9.799774183E0
7.505156250E-1,2.516939640E0,-6.075336933E0,7.275021076E0,9.806662820E0
7.529211460E-1,2.521727800E0,-6.089701176E0,7.315720558E0,9.846996435E0
7.553262500E-1,2.528910160E0,-6.106460571E0,7.351631641E0,9.885885651E0
7.577318750E-1,2.524122000E0,-6.094490051E0,7.440213680E0,9.943378725E0
7.601372920E-1,2.533698320E0,-6.113642216E0,7.500065804E0,1.000236149E1
7.625424480E-1,2.572003841E0,-6.089701176E0,7.567101002E0,1.004791927E1
7.649480210E-1,2.593550682E0,-6.128006935E0,7.658076286E0,1.014520116E1
7.673535940E-1,2.639038563E0,-6.137583256E0,7.679623604E0,1.017895238E1
7.697595830E-1,2.655797482E0,-6.137583256E0,7.705958366E0,1.020318494E1
7.721651560E-1,2.725226164E0,-6.159130573E0,7.732294083E0,1.025427320E1
7.745702080E-1,2.753955364E0,-6.163918495E0,7.758628845E0,1.028467223E1
7.769759380E-1,2.801837444E0,-6.163918495E0,7.758628845E0,1.029759709E1
7.793811980E-1,2.820990086E0,-6.192647934E0,7.765810966E0,1.032543914E1
7.817860420E-1,2.849719524E0,-6.199830055E0,7.763416767E0,1.033583252E1
7.841916670E-1,2.873660326E0,-6.228559494E0,7.725111485E0,1.033103211E1
7.865973960E-1,2.878448486E0,-6.238135815E0,7.710746765E0,1.032741109E1
7.890032810E-1,2.902389526E0,-6.254894257E0,7.689199924E0,1.032818293E1
7.914085940E-1,2.916754246E0,-6.250106335E0,7.660470963E0,1.030796294E1
7.938131250E-1,2.904783726E0,-6.245317936E0,7.629347324E0,1.027855560E1
7.962184900E-1,2.907177687E0,-6.250106335E0,7.574283600E0,1.024135164E1
7.986235420E-1,2.919148207E0,-6.245317936E0,7.521612644E0,1.020294463E1
8.010279690E-1,2.876054525E0,-6.257288456E0,7.490489960E0,1.017510630E1
8.034331770E-1,2.861689806E0,-6.274046898E0,7.399513721E0,1.011462982E1
8.058384380E-1,2.830566645E0,-6.242923737E0,7.361208439E0,1.005850854E1
8.082440100E-1,2.806625605E0,-6.250106335E0,7.325296879E0,1.003000253E1
8.106494270E-1,2.794655085E0,-6.242923737E0,7.279808998E0,9.988984577E0
8.130544270E-1,2.763531685E0,-6.207012177E0,7.224744797E0,9.917713694E0
8.154602080E-1,2.715649843E0,-6.221376896E0,7.174468994E0,9.876906899E0
8.178656250E-1,2.708467484E0,-6.197435856E0,7.152921677E0,9.844201126E0
8.202709900E-1,2.703679323E0,-6.178283215E0,7.138557434E0,9.820390400E0
8.226766150E-1,2.694103003E0,-6.173494816E0,7.114616394E0,9.797346358E0
8.250820830E-1,2.679738522E0,-6.144765854E0,7.097857475E0,9.763130988E0
8.274878650E-1,2.682132483E0,-6.144765854E0,7.066734314E0,9.741186576E0
8.298934380E-1,2.696496964E0,-6.139977455E0,7.054763794E0,9.733453201E0
8.322988540E-1,2.694103003E0,-6.128006935E0,7.038004875E0,9.713092845E0
8.347050000E-1,2.713255644E0,-6.118430614E0,7.057157993E0,9.726275151E0
8.371104170E-1,2.720438004E0,-6.111248493E0,7.045187473E0,9.715081452E0
8.395155210E-1,2.732408524E0,-6.101671696E0,7.018852234E0,9.693334849E0
8.419209380E-1,2.758743763E0,-6.106460571E0,6.992517471E0,9.684773020E0
8.443260940E-1,2.789866924E0,-6.072942734E0,7.011670113E0,9.686460069E0
8.467316150E-1,2.801837444E0,-6.070549011E0,7.002093315E0,9.681485896E0
8.491366670E-1,2.811413765E0,-6.053789616E0,6.990122795E0,9.665103867E0
8.515416670E-1,2.859295607E0,-6.041819572E0,7.004487991E0,9.682045607E0
8.539474480E-1,2.849719524E0,-6.041819572E0,6.999699593E0,9.675757309E0
8.563528650E-1,2.897601366E0,-6.005908012E0,7.004487991E0,9.671084570E0
8.587579690E-1,2.899995327E0,-5.972390652E0,6.999699593E0,9.647549812E0
8.611634380E-1,2.907177687E0,-5.962814331E0,6.978152275E0,9.628159015E0
8.635687500E-1,2.909571886E0,-5.941267490E0,7.006881714E0,9.636423574E0
8.659742710E-1,2.947877407E0,-5.936479568E0,7.006881714E0,9.645110794E0
8.683793750E-1,2.919148207E0,-5.902961731E0,7.004487991E0,9.614012454E0
8.707840630E-1,2.921542406E0,-5.883808613E0,6.994911194E0,9.596009401E0
8.731895830E-1,2.935906887E0,-5.862262249E0,6.982940674E0,9.578472132E0
8.755948440E-1,2.938300848E0,-5.835927010E0,6.987729073E0,9.566609301E0
8.779998960E-1,2.964636087E0,-5.795227528E0,7.016458511E0,9.571019761E0
8.804054690E-1,2.959847927E0,-5.795227528E0,7.004487991E0,9.560764293E0
8.828110940E-1,2.971818447E0,-5.749739170E0,7.011670113E0,9.542259857E0
8.852169790E-1,3.007730007E0,-5.732980728E0,7.018852234E0,9.548706431E0
8.876224480E-1,3.017306089E0,-5.742557526E0,7.018852234E0,9.557478206E0
8.900276560E-1,3.046035528E0,-5.718616486E0,7.047581196E0,9.573364490E0
8.924337500E-1,3.089129210E0,-5.697069168E0,7.054763794E0,9.579614218E0
8.948396350E-1,3.127434969E0,-5.716221809E0,7.090675354E0,9.629834798E0
8.972447920E-1,3.129828930E0,-5.711433887E0,7.107433796E0,9.640120401E0
8.996501040E-1,3.160952091E0,-5.718616486E0,7.155315876E0,9.689826516E0
9.020556250E-1,3.206440210E0,-5.694675446E0,7.172074318E0,9.703052987E0
9.044615100E-1,3.194469690E0,-5.694675446E0,7.198410034E0,9.718594140E0
9.068670830E-1,3.239957333E0,-5.697069168E0,7.219956398E0,9.750984105E0
9.092723960E-1,3.251927853E0,-5.701857567E0,7.267838478E0,9.793247195E0
9.116784900E-1,3.239957333E0,-5.697069168E0,7.303750038E0,9.813189351E0
9.140841150E-1,3.242351532E0,-5.697069168E0,7.318114281E0,9.824674915E0
9.164895830E-1,3.247139692E0,-5.721010208E0,7.325296879E0,9.845498888E0
9.188953650E-1,3.235169172E0,-5.732980728E0,7.351631641E0,9.868124208E0
9.213010420E-1,3.227986813E0,-5.747345448E0,7.358814240E0,9.879474964E0
9.237070830E-1,3.232775211E0,-5.754528046E0,7.349237919E0,9.878093267E0
9.261127080E-1,3.213622332E0,-5.752133369E0,7.351631641E0,9.872228451E0
9.285179170E-1,3.204046011E0,-5.737768650E0,7.344449997E0,9.855396779E0
9.309235420E-1,3.213622332E0,-5.718616486E0,7.380361557E0,9.874192611E0
9.333286460E-1,3.230381012E0,-5.716221809E0,7.399513721E0,9.892590994E0
9.357335940E-1,3.223198652E0,-5.709039688E0,7.433031559E0,9.911210918E0
9.381391150E-1,3.184893131E0,-5.699463367E0,7.421061039E0,9.884309479E0
9.405443750E-1,3.189681530E0,-5.706645966E0,7.437819481E0,9.902577193E0
9.429497400E-1,3.201651812E0,-5.704251289E0,7.473731041E0,9.932054811E0
9.453550000E-1,3.192075491E0,-5.701857567E0,7.468942642E0,9.923992636E0
9.477599480E-1,3.187287092E0,-5.689887047E0,7.488095284E0,9.930014330E0
9.501656250E-1,3.196863651E0,-5.697069168E0,7.521612644E0,9.962489201E0
9.525710420E-1,3.196863651E0,-5.692281246E0,7.540765762E0,9.974224344E0
9.549758330E-1,3.206440210E0,-5.682704926E0,7.559918404E0,9.986328673E0
9.573807290E-1,3.177711010E0,-5.692281246E0,7.550342560E0,9.975348907E0
9.597857290E-1,3.225592852E0,-5.689887047E0,7.524006844E0,9.969450478E0
9.621912500E-1,3.211228132E0,-5.701857567E0,7.519218922E0,9.968039879E0
9.645965100E-1,3.225592852E0,-5.694675446E0,7.543159962E0,9.986643074E0
9.670013540E-1,3.208834171E0,-5.704251289E0,7.500065804E0,9.954199444E0
9.694070830E-1,3.211228132E0,-5.701857567E0,7.485701561E0,9.942780984E0
9.718126040E-1,3.213622332E0,-5.704251289E0,7.461760521E0,9.926919025E0
9.742176560E-1,3.196863651E0,-5.692281246E0,7.447395802E0,9.903822859E0
9.766230730E-1,3.165740490E0,-5.711433887E0,7.418666840E0,9.883269073E0
9.790282810E-1,3.168134451E0,-5.723404408E0,7.380361557E0,9.862259915E0
9.814335420E-1,3.122646570E0,-5.721010208E0,7.351631641E0,9.824834207E0
9.838387500E-1,3.096311331E0,-5.725798130E0,7.358814240E0,9.824665648E0
9.862441150E-1,3.079552889E0,-5.725798130E0,7.354025841E0,9.815808998E0
9.886497400E-1,3.026882648E0,-5.716221809E0,7.375572681E0,9.810009313E0
9.910544790E-1,2.986182928E0,-5.716221809E0,7.320508957E0,9.756143277E0
9.934590100E-1,2.969424248E0,-5.709039688E0,7.308538437E0,9.737830796E0
9.958640630E-1,2.921542406E0,-5.725798130E0,7.325296879E0,9.745775937E0
9.982692710E-1,2.907177687E0,-5.706645966E0,7.298962116E0,9.710424206E0
1.000674635E0,2.888024807E0,-5.697069168E0,7.243897438E0,9.657708552E0
1.003079635E0,2.854507446E0,-5.718616486E0,7.272626877E0,9.682039504E0
1.005484219E0,2.840142965E0,-5.718616486E0,7.231926918E0,9.647266635E0
1.007889531E0,2.818596125E0,-5.711433887E0,7.229532719E0,9.634889958E0
1.010294531E0,2.799443245E0,-5.692281246E0,7.210380554E0,9.603568920E0
1.012699115E0,2.785078764E0,-5.694675446E0,7.196015358E0,9.590027590E0
1.015104010E0,2.758743763E0,-5.742557526E0,7.203197956E0,9.616324396E0
1.017508906E0,2.761137724E0,-5.735374928E0,7.188833237E0,9.601964924E0
1.019914323E0,2.770714283E0,-5.711433887E0,7.191227436E0,9.592240965E0
1.022319427E0,2.765925884E0,-5.701857567E0,7.181651115E0,9.577976741E0
1.024724271E0,2.751561165E0,-5.699463367E0,7.188833237E0,9.577802192E0
1.027129792E0,2.758743763E0,-5.697069168E0,7.196015358E0,9.583835416E0
1.029534844E0,2.765925884E0,-5.713827610E0,7.203197956E0,9.601262039E0
1.031939375E0,2.751561165E0,-5.711433887E0,7.222351074E0,9.610094741E0
1.034344323E0,2.756349325E0,-5.728192329E0,7.224744797E0,9.623231596E0
1.036749167E0,2.773108244E0,-5.730587006E0,7.224744797E0,9.629470086E0
1.039154271E0,2.789866924E0,-5.737768650E0,7.219956398E0,9.634994392E0
1.041559323E0,2.801837444E0,-5.740162849E0,7.212774277E0,9.634514797E0
1.043964375E0,2.797049284E0,-5.744951248E0,7.205591679E0,9.630602317E0
1.046370260E0,2.785078764E0,-5.747345448E0,7.229532719E0,9.646490903E0
1.048775625E0,2.799443245E0,-5.783257008E0,7.215168476E0,9.661345674E0
1.051180313E0,2.777896404E0,-5.773680210E0,7.200803757E0,9.638654800E0
1.053585104E0,2.782684565E0,-5.807198048E0,7.172074318E0,9.638751609E0
1.055990156E0,2.775502205E0,-5.811985970E0,7.169680595E0,9.637785702E0
1.058395781E0,2.780290365E0,-5.816774368E0,7.160103798E0,9.634934611E0
1.060801146E0,2.765925884E0,-5.850291729E0,7.143345356E0,9.638653546E0
1.063206198E0,2.761137724E0,-5.862262249E0,7.140951157E0,9.642778833E0
1.065611875E0,2.741984844E0,-5.864656448E0,7.124192238E0,9.626359186E0
1.068017240E0,2.722832203E0,-5.895779133E0,7.105040073E0,9.625778994E0
1.070421927E0,2.708467484E0,-5.914932251E0,7.117010593E0,9.642305711E0
1.072826927E0,2.694103003E0,-5.900568008E0,7.085886955E0,9.606491959E0
1.075231927E0,2.703679323E0,-5.950843811E0,7.105040073E0,9.654222827E0
1.077637188E0,2.691708803E0,-5.965208530E0,7.088280678E0,9.647421006E0
1.080042448E0,2.710861683E0,-5.960420132E0,7.076310158E0,9.641034419E0
1.082447552E0,2.706073523E0,-5.977179050E0,7.076310158E0,9.650060557E0
1.084853438E0,2.703679323E0,-5.986755371E0,7.088280678E0,9.664100823E0
1.087259063E0,2.696496964E0,-6.005908012E0,7.066734314E0,9.658196560E0
1.089664375E0,2.744378805E0,-6.015484333E0,7.085886955E0,9.691618066E0
1.092070104E0,2.718043804E0,-6.046607971E0,7.100251198E0,9.714051531E0
1.094475833E0,2.751561165E0,-6.056184292E0,7.102645874E0,9.731188799E0
1.096882135E0,2.768319845E0,-6.065760136E0,7.095463276E0,9.736664721E0
1.099287813E0,2.761137724E0,-6.070549011E0,7.105040073E0,9.744590359E0
1.101693021E0,2.770714283E0,-6.089701176E0,7.126586914E0,9.774945478E0
1.104098958E0,2.797049284E0,-6.094490051E0,7.114616394E0,9.776710087E0
1.106504531E0,2.785078764E0,-6.106460571E0,7.140951157E0,9.799934074E0
1.108909844E0,2.789866924E0,-6.120824814E0,7.131374836E0,9.803283170E0
1.111315417E0,2.828172445E0,-6.130401134E0,7.097857475E0,9.795915383E0
1.113720729E0,2.816201925E0,-6.120824814E0,7.128981113E0,9.809070364E0
1.116126458E0,2.823384285E0,-6.144765854E0,7.495277882E0,1.009499068E1
1.118531875E0,2.866477966E0,-6.132795334E0,6.856053352E0,9.635006077E0
1.120936823E0,2.849719524E0,-6.147160053E0,7.454578400E0,1.007368935E1
1.123342500E0,2.878448486E0,-6.130401134E0,7.145739555E0,9.845246444E0
1.125747760E0,2.880842686E0,-6.135189533E0,7.124192238E0,9.833306678E0
1.128152604E0,2.895207167E0,-6.142371655E0,7.526401520E0,1.013694599E1
1.130557969E0,2.895207167E0,-6.130401134E0,6.889570713E0,9.665931265E0
1.132963438E0,2.883236647E0,-6.180677414E0,7.526401520E0,1.015679805E1
1.135369427E0,2.935906887E0,-6.163918495E0,7.128981113E0,9.870958017E0
1.137775000E0,2.895207167E0,-6.197435856E0,7.162498474E0,9.904131467E0
1.140180313E0,2.904783726E0,-6.192647934E0,7.468942642E0,1.012777177E1
1.142586250E0,2.897601366E0,-6.195041656E0,6.911118031E0,9.723074989E0
1.144991719E0,2.878448486E0,-6.226165295E0,7.552736282E0,1.020266756E1
1.147396927E0,2.919148207E0,-6.207012177E0,7.078704834E0,9.856799102E0
1.149802292E0,2.899995327E0,-6.250106335E0,7.234321594E0,9.990455997E0
1.152207760E0,2.907177687E0,-6.240530014E0,7.409090519E0,1.011387756E1
1.154613646E0,2.914359808E0,-6.250106335E0,6.923088551E0,9.771718240E0
1.157018958E0,2.890419006E0,-6.281229496E0,7.535977364E0,1.022738094E1
1.159423958E0,2.923936367E0,-6.257288456E0,7.026034355E0,9.852320613E0
1.161829792E0,2.904783726E0,-6.266864777E0,7.253473759E0,1.001619909E1
1.164235260E0,2.921542406E0,-6.271652699E0,7.361208439E0,1.010229812E1
1.166640729E0,2.933512926E0,-6.262076855E0,6.935059071E0,9.793576922E0
1.169046771E0,2.952665567E0,-6.297987938E0,7.562313080E0,1.027479757E1
1.171452969E0,2.976606607E0,-6.283623219E0,6.954211235E0,9.833878256E0
1.173859323E0,2.952665567E0,-6.297987938E0,7.334873199E0,1.010857314E1
1.176265208E0,2.959847927E0,-6.300382137E0,7.320508957E0,1.010175065E1
1.178670573E0,2.955059767E0,-6.302776337E0,6.985334873E0,9.861656609E0
1.181076406E0,2.926330328E0,-6.319534779E0,7.557524204E0,1.027696945E1
1.183482188E0,2.950271368E0,-6.288411617E0,6.939846992E0,9.818844030E0
1.185887813E0,2.933512926E0,-6.336293697E0,7.392332077E0,1.016861296E1
1.188293750E0,2.926330328E0,-6.326717377E0,7.284597397E0,1.008246603E1
1.190699583E0,2.895207167E0,-6.329111099E0,7.040399551E0,9.899853417E0
1.193105625E0,2.888024807E0,-6.331505299E0,7.607800484E0,1.031054193E1
1.195511458E0,2.919148207E0,-6.317141056E0,6.954211235E0,9.838127427E0
1.197916875E0,2.876054525E0,-6.338687897E0,7.507248402E0,1.023764780E1
1.200323229E0,2.919148207E0,-6.317141056E0,7.263050556E0,1.005880712E1
1.202729219E0,2.892813206E0,-6.321928978E0,7.114616394E0,9.947508265E0
1.205134531E0,2.899995327E0,-6.321928978E0,7.598224163E0,1.030095963E1
1.207540313E0,2.911965847E0,-6.307564259E0,6.920694351E0,9.806167563E0
1.209945990E0,2.864084005E0,-6.305170536E0,7.540765762E0,1.023822743E1
1.212352135E0,2.859295607E0,-6.300382137E0,7.102645874E0,9.915541581E0
1.214758177E0,2.852113485E0,-6.300382137E0,7.200803757E0,9.984034312E0
1.217163750E0,2.813807964E0,-6.290805817E0,7.196015358E0,9.963653452E0
1.219569948E0,2.818596125E0,-6.281229496E0,7.217562199E0,9.974544209E0
1.221975677E0,2.809019566E0,-6.274046898E0,7.181651115E0,9.941346395E0
1.224380938E0,2.813807964E0,-6.274046898E0,7.198410034E0,9.954812241E0
1.226786875E0,2.801837444E0,-6.271652699E0,7.155315876E0,9.918793572E0
1.229192708E0,2.794655085E0,-6.286017418E0,7.160103798E0,9.929310068E0
1.231599010E0,2.770714283E0,-6.254894257E0,7.152921677E0,9.897719349E0
1.234004896E0,2.768319845E0,-6.269258976E0,7.152921677E0,9.906134028E0
1.236410313E0,2.734802723E0,-6.254894257E0,7.155315876E0,9.889458700E0
1.238816563E0,2.739590883E0,-6.250106335E0,7.155315876E0,9.887756707E0
1.241222656E0,2.725226164E0,-6.254894257E0,7.140951157E0,9.876423605E0
1.243628385E0,2.722832203E0,-6.240530014E0,7.155315876E0,9.877073218E0
1.246034167E0,2.706073523E0,-6.242923737E0,7.138557434E0,9.861842269E0
1.248439792E0,2.701285124E0,-6.257288456E0,7.114616394E0,9.852327977E0
1.250846042E0,2.708467484E0,-6.250106335E0,7.105040073E0,9.842825801E0
1.253252135E0,2.684526443E0,-6.269258976E0,7.102645874E0,9.846718679E0
1.255657500E0,2.682132483E0,-6.269258976E0,7.073916435E0,9.825361901E0
1.258063385E0,2.653403282E0,-6.278835297E0,7.100251198E0,9.842656589E0
1.260468802E0,2.662979603E0,-6.252500534E0,7.100251198E0,9.828468363E0
1.262873750E0,2.660585403E0,-6.271652699E0,7.112221718E0,9.848656762E0
1.265279427E0,2.658191442E0,-6.271652699E0,7.105040073E0,9.842824989E0
1.267685365E0,2.639038563E0,-6.288411617E0,7.112221718E0,9.853544691E0
1.270091771E0,2.624674082E0,-6.269258976E0,7.121798515E0,9.844416501E0
1.272497344E0,2.612703562E0,-6.257288456E0,7.105040073E0,9.821480192E0
1.274902188E0,2.612703562E0,-6.254894257E0,7.109827995E0,9.823419781E0
1.277308229E0,2.600733280E0,-6.254894257E0,7.148133278E0,9.848011226E0
1.279714271E0,2.579186201E0,-6.257288456E0,7.152921677E0,9.847342220E0
1.282119792E0,2.574397802E0,-6.242923737E0,7.164892197E0,9.845674229E0
1.284525573E0,2.569609642E0,-6.230953217E0,7.234321594E0,9.887521460E0
1.286931354E0,2.550457001E0,-6.257288456E0,7.200803757E0,9.874718450E0
1.289337708E0,2.550457001E0,-6.257288456E0,7.229532719E0,9.895687599E0
1.291743646E0,2.545668840E0,-6.242923737E0,7.239109516E0,9.892382585E0
1.294148958E0,2.562427521E0,-6.242923737E0,7.231926918E0,9.891455835E0
1.296554688E0,2.548062801E0,-6.245317936E0,7.219956398E0,9.880505582E0
1.298959948E0,2.550457001E0,-6.259682178E0,7.210380554E0,9.883220104E0
1.301365208E0,2.536092520E0,-6.274046898E0,7.198410034E0,9.879905706E0
1.303770990E0,2.521727800E0,-6.254894257E0,7.210380554E0,9.872811200E0
1.306176667E0,2.512151480E0,-6.286017418E0,7.196015358E0,9.879653692E0
1.308582760E0,2.504969120E0,-6.283623219E0,7.215168476E0,9.890270329E0
1.310988281E0,2.507363081E0,-6.300382137E0,7.200803757E0,9.891069681E0
1.313393594E0,2.502574921E0,-6.278835297E0,7.198410034E0,9.874399270E0
1.315799896E0,2.504969120E0,-6.281229496E0,7.224744797E0,9.895739065E0
1.318205469E0,2.497786999E0,-6.262076855E0,7.260656357E0,9.908061221E0
1.320610521E0,2.504969120E0,-6.257288456E0,7.270232201E0,9.913869344E0
1.323015885E0,2.524122000E0,-6.264471054E0,7.296567917E0,9.942569729E0
1.325421250E0,2.497786999E0,-6.247711658E0,7.291779518E0,9.921839013E0
1.327827292E0,2.504969120E0,-6.247711658E0,7.282202721E0,9.916614731E0
1.330233333E0,2.519333601E0,-6.245317936E0,7.320508957E0,9.946903503E0
1.332639063E0,2.560033321E0,-6.245317936E0,7.351631641E0,9.980193110E0
1.335045625E0,2.572003841E0,-6.238135815E0,7.373178959E0,9.994664085E0
1.337451875E0,2.588762760E0,-6.252500534E0,7.356420517E0,9.995617959E0
1.339857708E0,2.581580162E0,-6.242923737E0,7.351631641E0,9.984244624E0
1.342263646E0,2.572003841E0,-6.257288456E0,7.320508957E0,9.967884127E0
1.344669375E0,2.581580162E0,-6.262076855E0,7.320508957E0,9.973365232E0
1.347075729E0,2.564821720E0,-6.247711658E0,7.330084801E0,9.967063490E0
1.349481667E0,2.586368322E0,-6.269258976E0,7.322902679E0,9.980872350E0
1.351887240E0,2.567215681E0,-6.247711658E0,7.303750038E0,9.948329606E0
1.354293750E0,2.536092520E0,-6.266864777E0,7.286991596E0,9.940100901E0
1.356699688E0,2.526515961E0,-6.254894257E0,7.275021076E0,9.921336438E0
1.359105000E0,2.514545441E0,-6.283623219E0,7.251080036E0,9.918922382E0
1.361510573E0,2.504969120E0,-6.276441574E0,7.263050556E0,9.920710282E0
1.363916302E0,2.490604401E0,-6.288411617E0,7.241503239E0,9.908915183E0
1.366322500E0,2.483422279E0,-6.276441574E0,7.193621159E0,9.864547147E0
1.368728229E0,2.473845959E0,-6.278835297E0,7.162498474E0,9.840989325E0
1.371133490E0,2.483422279E0,-6.257288456E0,7.152921677E0,9.822694821E0
1.373539479E0,2.495392561E0,-6.252500534E0,7.174468994E0,9.838381590E0
1.375945156E0,2.492998600E0,-6.252500534E0,7.193621159E0,9.851750622E0
1.378350417E0,2.488210440E0,-6.235741138E0,7.191227436E0,9.838160945E0
1.380755885E0,2.502574921E0,-6.226165295E0,7.148133278E0,9.804275846E0
1.383161094E0,2.504969120E0,-6.230953217E0,7.162498474E0,9.818402756E0
1.385566875E0,2.516939640E0,-6.209406376E0,7.196015358E0,9.832311515E0
1.387972604E0,2.533698320E0,-6.202224255E0,7.181651115E0,9.821574498E0
1.390377604E0,2.531304121E0,-6.192647934E0,7.167286396E0,9.804406319E0
1.392783333E0,2.528910160E0,-6.211800098E0,7.186439514E0,9.829891146E0
1.395188750E0,2.552851200E0,-6.178283215E0,7.186439514E0,9.814945014E0
1.397593802E0,2.552851200E0,-6.187859535E0,7.217562199E0,9.843772598E0
1.399999219E0,2.562427521E0,-6.187859535E0,7.234321594E0,9.858552092E0
1.402404427E0,2.581580162E0,-6.154342175E0,7.207985878E0,9.823214553E0
1.404810104E0,2.583974361E0,-6.163918495E0,7.191227436E0,9.817564197E0
1.407215417E0,2.607915401E0,-6.118430614E0,7.181651115E0,9.788387440E0
1.409620260E0,2.619885921E0,-6.120824814E0,7.184044838E0,9.794835316E0
1.412025938E0,2.629462242E0,-6.111248493E0,7.179256916E0,9.787908852E0
1.414431510E0,2.660585403E0,-6.108854294E0,7.176862717E0,9.793067646E0
1.416836510E0,2.672555923E0,-6.094490051E0,7.155315876E0,9.771586843E0
1.419241875E0,2.662979603E0,-6.070549011E0,7.162498474E0,9.759324262E0
1.421647656E0,2.672555923E0,-6.046607971E0,7.186439514E0,9.764677978E0
1.424053958E0,2.694103003E0,-6.029849052E0,7.215168476E0,9.781407195E0
1.426459375E0,2.696496964E0,-6.022666931E0,7.207985878E0,9.772342260E0
1.428863906E0,2.718043804E0,-5.998725891E0,7.246292114E0,9.791895825E0
1.431269219E0,2.744378805E0,-5.996331692E0,7.263050556E0,9.810173911E0
1.433674167E0,2.730014324E0,-5.965208530E0,7.263050556E0,9.787164779E0
1.436078958E0,2.780290365E0,-5.977179050E0,7.267838478E0,9.812143500E0
1.438484219E0,2.756349325E0,-5.950843811E0,7.258262157E0,9.782247861E0
1.440889323E0,2.782684565E0,-5.934084892E0,7.263050556E0,9.783077240E0
1.443295156E0,2.801837444E0,-5.941267490E0,7.270232201E0,9.798225794E0
1.445700469E0,2.792260885E0,-5.948449612E0,7.279808998E0,9.806956341E0
1.448105365E0,2.809019566E0,-5.914932251E0,7.289385319E0,9.798579120E0
1.450511198E0,2.809019566E0,-5.905355930E0,7.294173241E0,9.796365798E0
1.452916563E0,2.804231405E0,-5.883808613E0,7.251080036E0,9.749927141E0
1.455321458E0,2.847325087E0,-5.898173332E0,7.306143761E0,9.812005170E0
1.457727083E0,2.852113485E0,-5.893385410E0,7.332479477E0,9.830147415E0
1.460132760E0,2.876054525E0,-5.900568008E0,7.325296879E0,9.836074767E0
1.462538594E0,2.880842686E0,-5.883808613E0,7.349237919E0,9.845291075E0
1.464943854E0,2.885630846E0,-5.902961731E0,7.344449997E0,9.854581084E0
1.467348333E0,2.868872166E0,-5.874232769E0,7.351631641E0,9.837861857E0
1.469753802E0,2.885630846E0,-5.888597488E0,7.387543201E0,9.878169887E0
1.472159063E0,2.880842686E0,-5.886203289E0,7.394725800E0,9.880719275E0
1.474563750E0,2.878448486E0,-5.893385410E0,7.413878441E0,9.898638837E0
1.476968906E0,2.842537165E0,-5.914932251E0,7.421061039E0,9.906492215E0
1.479374115E0,2.849719524E0,-5.919720173E0,7.418666840E0,9.909621888E0
1.481779531E0,2.830566645E0,-5.914932251E0,7.413878441E0,9.897682789E0
1.484184583E0,2.813807964E0,-5.910143852E0,7.425848961E0,9.899017547E0
1.486589531E0,2.809019566E0,-5.931690693E0,7.385149479E0,9.880079869E0
1.488995260E0,2.794655085E0,-5.955631733E0,7.387543201E0,9.892190907E0
1.491400521E0,2.806625605E0,-5.955631733E0,7.380361557E0,9.890219074E0
1.493805469E0,2.813807964E0,-5.924509048E0,7.392332077E0,9.882504554E0
1.496210833E0,2.801837444E0,-5.914932251E0,7.377966881E0,9.862611819E0
1.498616302E0,2.813807964E0,-5.924509048E0,7.409090519E0,9.895046490E0
1.501022188E0,2.794655085E0,-5.917326450E0,7.392332077E0,9.872761665E0
1.503427604E0,2.804231405E0,-5.907749653E0,7.389937401E0,9.867947837E0
1.505832656E0,2.799443245E0,-5.907749653E0,7.397119999E0,9.871969040E0
1.508238229E0,2.777896404E0,-5.881414890E0,7.404302597E0,9.855528727E0
1.510643229E0,2.775502205E0,-5.874232769E0,7.365996361E0,9.821808667E0
1.513047969E0,2.792260885E0,-5.867050171E0,7.380361557E0,9.833043032E0
1.515453438E0,2.785078764E0,-5.847897530E0,7.380361557E0,9.819587871E0
1.517859323E0,2.761137724E0,-5.857473850E0,7.356420517E0,9.800551222E0
1.520265313E0,2.768319845E0,-5.823956490E0,7.349237919E0,9.777185789E0
1.522670729E0,2.727620363E0,-5.838321209E0,7.373178959E0,9.792327371E0
1.525075521E0,2.727620363E0,-5.831138611E0,7.363602161E0,9.780834685E0
1.527480781E0,2.739590883E0,-5.831138611E0,7.413878441E0,9.822073571E0
1.529885625E0,2.722832203E0,-5.826350689E0,7.392332077E0,9.798303480E0
1.532290313E0,2.713255644E0,-5.838321209E0,7.389937401E0,9.800965540E0
1.534695677E0,2.679738522E0,-5.828744888E0,7.421061039E0,9.809557200E0
1.537101042E0,2.684526443E0,-5.835927010E0,7.411484241E0,9.807896051E0
1.539506667E0,2.689314604E0,-5.823956490E0,7.399513721E0,9.793042711E0
1.541911927E0,2.674950123E0,-5.838321209E0,7.368391037E0,9.774177161E0
1.544316823E0,2.691708803E0,-5.850291729E0,7.380361557E0,9.794944936E0
1.546722552E0,2.674950123E0,-5.859868050E0,7.365996361E0,9.785260043E0
1.549128021E0,2.660585403E0,-5.888597488E0,7.356420517E0,9.791384881E0
1.551532969E0,2.612703562E0,-5.893385410E0,7.370784760E0,9.792174399E0
1.553938229E0,2.600733280E0,-5.910143852E0,7.387543201E0,9.811697534E0
1.556343594E0,2.588762760E0,-5.919720173E0,7.404302597E0,9.826926096E0
1.558749688E0,2.576792240E0,-5.934084892E0,7.399513721E0,9.828836405E0
1.561155313E0,2.543274641E0,-5.938873291E0,7.401907921E0,9.824800392E0
1.563560469E0,2.555245161E0,-5.960420132E0,7.385149479E0,9.828342628E0
1.565966771E0,2.545668840E0,-5.974784851E0,7.389937401E0,9.838173542E0
1.568372656E0,2.509757519E0,-5.993937492E0,7.380361557E0,9.833407658E0
1.570778125E0,2.531304121E0,-5.996331692E0,7.363602161E0,9.827824332E0
1.573184115E0,2.521727800E0,-6.003513813E0,7.339661598E0,9.811825599E0
1.575589948E0,2.497786999E0,-6.025060654E0,7.373178959E0,9.843986171E0
1.577995781E0,2.500180960E0,-6.032243252E0,7.363602161E0,9.841824032E0
1.580400833E0,2.516939640E0,-6.039425373E0,7.373178959E0,9.857657528E0
1.582805469E0,2.495392561E0,-6.037031174E0,7.344449997E0,9.829225564E0
1.585211094E0,2.490604401E0,-6.046607971E0,7.306143761E0,9.805320744E0
1.587616563E0,2.483422279E0,-6.065760136E0,7.291779518E0,9.804635678E0
1.590021510E0,2.464269400E0,-6.051395893E0,7.291779518E0,9.790917448E0
1.592426875E0,2.476239920E0,-6.072942734E0,7.253473759E0,9.778817881E0
1.594832135E0,2.492998600E0,-6.046607971E0,7.246292114E0,9.761416874E0
1.597237865E0,2.488210440E0,-6.065760136E0,7.229532719E0,9.759650636E0
1.599643385E0,2.507363081E0,-6.063366413E0,7.212774277E0,9.750661242E0
1.602048333E0,2.509757519E0,-6.044213772E0,7.188833237E0,9.721662730E0
1.604453802E0,2.504969120E0,-6.082519531E0,7.186439514E0,9.742526727E0
1.606858906E0,2.490604401E0,-6.099277973E0,7.174468994E0,9.740498315E0
1.609263698E0,2.466663361E0,-6.099277973E0,7.186439514E0,9.743230102E0
1.611669010E0,2.433146238E0,-6.118430614E0,7.234321594E0,9.782167589E0
1.614074271E0,2.413993359E0,-6.116036415E0,7.265444279E0,9.798976780E0
1.616480052E0,2.437934399E0,-6.132795334E0,7.289385319E0,9.833099260E0
1.618885625E0,2.440328360E0,-6.118430614E0,7.313326359E0,9.842516859E0
1.621290729E0,2.473845959E0,-6.120824814E0,7.334873199E0,9.868372464E0
1.623696563E0,2.526515961E0,-6.106460571E0,7.330084801E0,9.869259688E0
1.626101875E0,2.540880680E0,-6.087307453E0,7.296567917E0,9.836223362E0
1.628506615E0,2.572003841E0,-6.082519531E0,7.310932159E0,9.852003687E0
1.630911875E0,2.579186201E0,-6.082519531E0,7.313326359E0,9.855657651E0
1.633317500E0,2.583974361E0,-6.053789616E0,7.291779518E0,9.823204200E0
1.635723438E0,2.572003841E0,-6.070549011E0,7.291779518E0,9.830402718E0
1.638129010E0,2.569609642E0,-6.072942734E0,7.313326359E0,9.847246803E0
1.640534010E0,2.552851200E0,-6.070549011E0,7.330084801E0,9.853870191E0
1.642939740E0,2.562427521E0,-6.065760136E0,7.313326359E0,9.840946258E0
1.645345052E0,2.576792240E0,-6.087307453E0,7.354025841E0,9.888218563E0
1.647749844E0,2.583974361E0,-6.056184292E0,7.337267399E0,9.858487945E0
1.650155052E0,2.569609642E0,-6.068154812E0,7.337267399E0,9.862093561E0
1.652560260E0,2.581580162E0,-6.068154812E0,7.315720558E0,9.849204345E0
1.654965990E0,2.586368322E0,-6.053789616E0,7.298962116E0,9.829166688E0
1.657371354E0,2.574397802E0,-6.077730656E0,7.296567917E0,9.839016075E0
1.659776250E0,2.583974361E0,-6.084913254E0,7.284597397E0,9.837095712E0
1.662182135E0,2.583974361E0,-6.087307453E0,7.255867958E0,9.817324246E0
1.664587448E0,2.555245161E0,-6.094490051E0,7.227138996E0,9.793039614E0
1.666992240E0,2.531304121E0,-6.082519531E0,7.224744797E0,9.777601024E0
1.669397604E0,2.540880680E0,-6.077730656E0,7.207985878E0,9.764729641E0
1.671802969E0,2.497786999E0,-6.106460571E0,7.212774277E0,9.775065901E0
1.674208698E0,2.509757519E0,-6.116036415E0,7.231926918E0,9.798242250E0
1.676614167E0,2.512151480E0,-6.118430614E0,7.215168476E0,9.787990314E0
1.679019583E0,2.543274641E0,-6.128006935E0,7.219956398E0,9.805533401E0
1.681425677E0,2.536092520E0,-6.142371655E0,7.205591679E0,9.802093973E0
1.683831250E0,2.552851200E0,-6.123219013E0,7.224744797E0,9.808557372E0
1.686236198E0,2.560033321E0,-6.120824814E0,7.258262157E0,9.833648181E0
1.688641354E0,2.586368322E0,-6.123219013E0,7.239109516E0,9.827910193E0
1.691046667E0,2.591156721E0,-6.130401134E0,7.246292114E0,9.838935950E0
1.693452396E0,2.576792240E0,-6.135189533E0,7.258262157E0,9.846967980E0
1.695857604E0,2.588762760E0,-6.130401134E0,7.308538437E0,9.884242246E0
1.698262344E0,2.583974361E0,-6.137583256E0,7.298962116E0,9.880369411E0
1.700667865E0,2.572003841E0,-6.118430614E0,7.296567917E0,9.863584557E0
1.703072917E0,2.574397802E0,-6.128006935E0,7.301355839E0,9.873691818E0
1.705477760E0,2.574397802E0,-6.120824814E0,7.322902679E0,9.885187105E0
1.707883229E0,2.562427521E0,-6.137583256E0,7.330084801E0,9.897782893E0
1.710288646E0,2.579186201E0,-6.130401134E0,7.334873199E0,9.901231458E0
1.712694635E0,2.581580162E0,-6.130401134E0,7.318114281E0,9.889447448E0
1.715100313E0,2.610309362E0,-6.128006935E0,7.313326359E0,9.891962717E0
1.717505521E0,2.595944881E0,-6.137583256E0,7.342055321E0,9.915373638E0
1.719911563E0,2.615097761E0,-6.130401134E0,7.318114281E0,9.898249896E0
1.722317448E0,2.612703562E0,-6.104065895E0,7.325296879E0,9.886648305E0
1.724722969E0,2.617491722E0,-6.125612736E0,7.351631641E0,9.920729917E0
1.727128958E0,2.617491722E0,-6.118430614E0,7.346843719E0,9.912747789E0
1.729535104E0,2.617491722E0,-6.111248493E0,7.325296879E0,9.892350349E0
1.731941198E0,2.610309362E0,-6.113642216E0,7.358814240E0,9.916777860E0
1.734346510E0,2.636644602E0,-6.113642216E0,7.318114281E0,9.893599574E0
1.736751719E0,2.639038563E0,-6.120824814E0,7.332479477E0,9.909302509E0
1.739157760E0,2.639038563E0,-6.113642216E0,7.344449997E0,9.913732467E0
1.741563438E0,2.627068281E0,-6.116036415E0,7.334873199E0,9.904935842E0
1.743968854E0,2.636644602E0,-6.116036415E0,7.356420517E0,9.923442901E0
1.746374740E0,2.639038563E0,-6.125612736E0,7.363602161E0,9.935305366E0
1.748780417E0,2.651009083E0,-6.099277973E0,7.361208439E0,9.920505563E0
1.751186042E0,2.641432762E0,-6.099277973E0,7.361208439E0,9.917950822E0
1.753590938E0,2.639038563E0,-6.106460571E0,7.380361557E0,9.935950984E0
1.755995729E0,2.658191442E0,-6.089701176E0,7.385149479E0,9.934328109E0
1.758401823E0,2.672555923E0,-6.094490051E0,7.368391037E0,9.928673155E0
1.760807344E0,2.689314604E0,-6.092095375E0,7.377966881E0,9.938834660E0
1.763212396E0,2.679738522E0,-6.087307453E0,7.370784760E0,9.927979580E0
1.765618281E0,2.660585403E0,-6.104065895E0,7.392332077E0,9.949115975E0
1.768024323E0,2.684526443E0,-6.111248493E0,7.409090519E0,9.972395033E0
1.770430469E0,2.694103003E0,-6.125612736E0,7.435425282E0,1.000334302E1
1.772836042E0,2.684526443E0,-6.123219013E0,7.480913162E0,1.003317273E1
1.775241458E0,2.689314604E0,-6.128006935E0,7.447395802E0,1.001242160E1
1.777647760E0,2.710861683E0,-6.128006935E0,7.409090519E0,9.989787905E0
1.780053542E0,2.713255644E0,-6.137583256E0,7.380361557E0,9.975039906E0
1.782458698E0,2.703679323E0,-6.142371655E0,7.358814240E0,9.959455730E0
1.784864167E0,2.698891163E0,-6.161524296E0,7.330084801E0,9.948795824E0
1.787269583E0,2.694103003E0,-6.168706894E0,7.337267399E0,9.957240010E0
1.789675469E0,2.672555923E0,-6.151947975E0,7.337267399E0,9.941051853E0
1.792081042E0,2.670161963E0,-6.151947975E0,7.356420517E0,9.954554315E0
1.794486250E0,2.670161963E0,-6.166312695E0,7.346843719E0,9.956369308E0
1.796892448E0,2.639038563E0,-6.175889015E0,7.358814240E0,9.962844808E0
1.799298229E0,2.624674082E0,-6.149553776E0,7.368391037E0,9.949829755E0
1.801703542E0,2.622279882E0,-6.154342175E0,7.373178959E0,9.955704262E0
1.804109375E0,2.603127241E0,-6.166312695E0,7.413878441E0,9.988256966E0
1.806515104E0,2.581580162E0,-6.144765854E0,7.416272640E0,9.971148550E0
1.808921250E0,2.581580162E0,-6.135189533E0,7.416272640E0,9.965249953E0
1.811327031E0,2.583974361E0,-6.132795334E0,7.437819481E0,9.980443915E0
1.813732292E0,2.600733280E0,-6.125612736E0,7.416272640E0,9.964338656E0
1.816138177E0,2.586368322E0,-6.125612736E0,7.394725800E0,9.944566463E0
1.818543542E0,2.622279882E0,-6.130401134E0,7.418666840E0,9.974707391E0
1.820948854E0,2.610309362E0,-6.137583256E0,7.442607880E0,9.993800840E0
1.823354740E0,2.610309362E0,-6.132795334E0,7.411484241E0,9.967697439E0
1.825760417E0,2.627068281E0,-6.113642216E0,7.447395802E0,9.987082313E0
1.828166302E0,2.631856441E0,-6.094490051E0,7.449790001E0,9.978419132E0
1.830571823E0,2.629462242E0,-6.116036415E0,7.437819481E0,9.982040460E0
1.832976875E0,2.631856441E0,-6.130401134E0,7.452184200E0,1.000217655E1
1.835382552E0,2.622279882E0,-6.135189533E0,7.449790001E0,1.000081364E1
1.837788021E0,2.639038563E0,-6.139977455E0,7.440213680E0,1.000103131E1
1.840193333E0,2.636644602E0,-6.161524296E0,7.413878441E0,9.994091752E0
1.842599115E0,2.598338842E0,-6.139977455E0,7.389937401E0,9.952982602E0
1.845004740E0,2.615097761E0,-6.168706894E0,7.394725800E0,9.978659764E0
1.847410573E0,2.579186201E0,-6.175889015E0,7.380361557E0,9.963109118E0
1.849815885E0,2.555245161E0,-6.173494816E0,7.387543201E0,9.960778616E0
1.852220677E0,2.560033321E0,-6.183071136E0,7.413878441E0,9.987478802E0
1.854626250E0,2.543274641E0,-6.199830055E0,7.404302597E0,9.986482642E0
1.857031563E0,2.543274641E0,-6.178283215E0,7.416272640E0,9.982010281E0
1.859436510E0,2.560033321E0,-6.190253735E0,7.413878441E0,9.991927013E0
1.861841823E0,2.567215681E0,-6.214194775E0,7.425848961E0,1.001748700E1
1.864246979E0,2.586368322E0,-6.175889015E0,7.397119999E0,9.977388962E0
1.866652813E0,2.605521202E0,-6.175889015E0,7.413878441E0,9.994795616E0
1.869058333E0,2.615097761E0,-6.190253735E0,7.413878441E0,1.000617665E1
1.871463333E0,2.603127241E0,-6.178283215E0,7.377966881E0,9.969044599E0
1.873869271E0,2.615097761E0,-6.190253735E0,7.356420517E0,9.963679061E0
1.876274740E0,2.600733280E0,-6.190253735E0,7.351631641E0,9.956382008E0
1.878679844E0,2.591156721E0,-6.187859535E0,7.365996361E0,9.963011652E0
1.881085417E0,2.569609642E0,-6.185465336E0,7.334873199E0,9.932937128E0
1.883490833E0,2.538486481E0,-6.190253735E0,7.327691078E0,9.922611121E0
1.885896667E0,2.512151480E0,-6.168706894E0,7.334873199E0,9.907785557E0
1.888302292E0,2.516939640E0,-6.171100616E0,7.334873199E0,9.910491048E0
1.890707292E0,2.485816479E0,-6.168706894E0,7.344449997E0,9.908237687E0
1.893113021E0,2.473845959E0,-6.159130573E0,7.358814240E0,9.909941991E0
1.895518438E0,2.476239920E0,-6.135189533E0,7.358814240E0,9.895678944E0
1.897923438E0,2.488210440E0,-6.123219013E0,7.382755280E0,9.909090664E0
1.900329063E0,2.509757519E0,-6.111248493E0,7.423454762E0,9.937500770E0
1.902734688E0,2.519333601E0,-6.096883774E0,7.454578400E0,9.954384595E0
1.905140625E0,2.552851200E0,-6.075336933E0,7.497672081E0,9.982076674E0
1.907546146E0,2.581580162E0,-6.046607971E0,7.535977364E0,1.000084891E1
1.909951146E0,2.579186201E0,-6.056184292E0,7.586253643E0,1.004394414E1
1.912356823E0,2.622279882E0,-6.053789616E0,7.624559402E0,1.008259027E1
1.914762240E0,2.622279882E0,-6.032243252E0,7.670046806E0,1.010415402E1
1.917167448E0,2.658191442E0,-6.032243252E0,7.698776245E0,1.013533897E1
1.919573125E0,2.679738522E0,-6.022666931E0,7.725111485E0,1.015533667E1
1.921978698E0,2.725226164E0,-6.029849052E0,7.705958366E0,1.015715175E1
1.924384583E0,2.741984844E0,-6.072942734E0,7.705958366E0,1.018729153E1
1.926789844E0,2.785078764E0,-6.063366413E0,7.648500443E0,1.014990813E1
1.929194740E0,2.789866924E0,-6.084913254E0,7.614983082E0,1.013890991E1
1.931600365E0,2.830566645E0,-6.094490051E0,7.535977364E0,1.009682481E1
1.934005573E0,2.832960606E0,-6.118430614E0,7.471336842E0,1.006388261E1
1.936410625E0,2.832960606E0,-6.139977455E0,7.406696320E0,1.002916444E1
1.938816198E0,2.828172445E0,-6.154342175E0,7.351631641E0,9.996047958E0
1.941221875E0,2.816201925E0,-6.171100616E0,7.303750038E0,9.967860388E0
1.943628177E0,2.842537165E0,-6.185465336E0,7.277414799E0,9.964976925E0
1.946034063E0,2.835354567E0,-6.185465336E0,7.234321594E0,9.931496658E0
1.948439271E0,2.849719524E0,-6.207012177E0,7.229532719E0,9.945554025E0
1.950845208E0,2.859295607E0,-6.199830055E0,7.239109516E0,9.950787440E0
1.953250677E0,2.880842686E0,-6.204618454E0,7.246292114E0,9.965204170E0
1.955655885E0,2.873660326E0,-6.202224255E0,7.275021076E0,9.982556838E0
1.958061458E0,2.883236647E0,-6.209406376E0,7.334873199E0,1.003345135E1
1.960467135E0,2.911965847E0,-6.175889015E0,7.411484241E0,1.007726396E1
1.962873125E0,2.916754246E0,-6.187859535E0,7.526401520E0,1.017073158E1
1.965278333E0,2.938300848E0,-6.151947975E0,7.612588882E0,1.021917733E1
1.967682969E0,2.952665567E0,-6.125612736E0,7.703564167E0,1.027551781E1
1.970088594E0,3.012518167E0,-6.125612736E0,7.808904648E0,1.037195203E1
1.972494010E0,3.053217649E0,-6.116036415E0,7.911850929E0,1.045587990E1
1.974899219E0,3.074764729E0,-6.068154812E0,8.021980286E0,1.051802494E1
1.977304688E0,3.125040770E0,-6.053789616E0,8.093802452E0,1.057940862E1
1.979710104E0,3.199257612E0,-6.041819572E0,8.163231850E0,1.064787243E1
1.982115938E0,3.235169172E0,-6.003513813E0,8.199142456E0,1.066463477E1
1.984521510E0,3.311780453E0,-5.996331692E0,8.268571854E0,1.073746544E1
1.986926667E0,3.345297575E0,-5.977179050E0,8.318847656E0,1.077594133E1
1.989332448E0,3.352480173E0,-5.989149570E0,8.328423500E0,1.079220431E1
1.991738021E0,3.376421213E0,-5.998725891E0,8.345182419E0,1.081790193E1
1.994143021E0,3.417120695E0,-5.998725891E0,8.347577095E0,1.083251908E1
1.996548177E0,3.429091215E0,-6.017878532E0,8.316453934E0,1.082298178E1
1.998953490E0,3.438667774E0,-6.063366413E0,8.273360252E0,1.081837965E1
2.001359271E0,3.448243856E0,-6.094490051E0,8.232660294E0,1.080786242E1
2.003764635E0,3.438667774E0,-6.089701176E0,8.175201416E0,1.075838346E1
2.006169844E0,3.405150175E0,-6.111248493E0,8.117743492E0,1.071635037E1
2.008575990E0,3.400362253E0,-6.149553776E0,8.072256088E0,1.070237326E1
2.010981979E0,3.376421213E0,-6.163918495E0,8.050708771E0,1.068681539E1
2.013387396E0,3.369238615E0,-6.197435856E0,8.048315048E0,1.070211919E1
2.015792969E0,3.340509653E0,-6.221376896E0,8.065073013E0,1.071960531E1
2.018198490E0,3.328539133E0,-6.214194775E0,8.065073013E0,1.071171285E1
2.020604427E0,3.328539133E0,-6.221376896E0,8.077043533E0,1.072489326E1
2.023010000E0,3.299809933E0,-6.242923737E0,8.081831932E0,1.073214097E1
2.025415000E0,3.285445452E0,-6.262076855E0,8.077043533E0,1.073528717E1
2.027820781E0,3.261504412E0,-6.295593739E0,8.038738251E0,1.071882569E1
2.030226198E0,3.251927853E0,-6.307564259E0,8.012403488E0,1.070322434E1
2.032630990E0,3.213622332E0,-6.345870018E0,7.995644569E0,1.070176466E1
2.035036146E0,3.182499170E0,-6.362628937E0,8.007615089E0,1.071136067E1
2.037441615E0,3.151375771E0,-6.367416859E0,8.045920372E0,1.073368536E1
2.039847500E0,3.105887890E0,-6.393751621E0,8.043526649E0,1.073428714E1
2.042252865E0,3.084340811E0,-6.415298939E0,8.038738251E0,1.073734285E1
2.044657760E0,3.065188169E0,-6.417692661E0,8.021980286E0,1.072074276E1
2.047063906E0,3.069976330E0,-6.393751621E0,7.957339287E0,1.065945885E1
2.049469792E0,3.089129210E0,-6.384175777E0,7.919033051E0,1.063068691E1
2.051874844E0,3.105887890E0,-6.372205257E0,7.875939369E0,1.059631825E1
2.054279948E0,3.105887890E0,-6.384175777E0,7.863968849E0,1.059463289E1
2.056685260E0,3.117858410E0,-6.360234737E0,7.808904648E0,1.054289423E1
2.059091094E0,3.122646570E0,-6.341081619E0,7.770599365E0,1.050440156E1
2.061496510E0,3.151375771E0,-6.331505299E0,7.751446247E0,1.049304758E1
2.063901615E0,3.180104971E0,-6.307564259E0,7.725111485E0,1.046784514E1
2.066307708E0,3.201651812E0,-6.290805817E0,7.732294083E0,1.046963151E1
2.068713698E0,3.206440210E0,-6.247711658E0,7.761023045E0,1.046654855E1
2.071118854E0,3.211228132E0,-6.230953217E0,7.792146206E0,1.048114052E1
2.073524115E0,3.239957333E0,-6.209406376E0,7.806510925E0,1.048788176E1
2.075929479E0,3.271080732E0,-6.185465336E0,7.820875168E0,1.049409543E1
2.078335156E0,3.292627573E0,-6.156736374E0,7.832845688E0,1.049286761E1
2.080740365E0,3.316568613E0,-6.108854294E0,7.859180927E0,1.049211385E1
2.083145469E0,3.347692013E0,-6.101671696E0,7.844816208E0,1.048706730E1
2.085551302E0,3.347692013E0,-6.077730656E0,7.840027809E0,1.046956961E1
2.087956667E0,3.352480173E0,-6.068154812E0,7.835239887E0,1.046196015E1
2.090361510E0,3.350085974E0,-6.039425373E0,7.866363525E0,1.046792291E1
2.092766771E0,3.357268095E0,-6.029849052E0,7.890304565E0,1.048271123E1
2.095172292E0,3.309386492E0,-6.010696411E0,7.954944611E0,1.050531551E1
2.097578229E0,3.306992054E0,-5.993937492E0,8.026767731E0,1.054952526E1
2.099983542E0,3.295021772E0,-5.969996452E0,8.124925613E0,1.060718824E1
2.102388281E0,3.239957333E0,-5.977179050E0,8.232660294E0,1.067711049E1
2.104793906E0,3.211228132E0,-5.969996452E0,8.309271812E0,1.072365804E1
2.107199427E0,3.160952091E0,-5.977179050E0,8.359547615E0,1.075175911E1
2.109604688E0,3.177711010E0,-5.972390652E0,8.294906616E0,1.070386720E1
2.112010000E0,3.127434969E0,-5.979572773E0,8.706691742E0,1.101556268E1
2.114415469E0,3.144193411E0,-5.962814331E0,8.230266571E0,1.063853349E1
2.116821667E0,3.117858410E0,-5.953238010E0,8.572622299E0,1.089274699E1
2.119227292E0,3.148981571E0,-5.946055412E0,8.656415939E0,1.096381306E1
2.121632344E0,3.144193411E0,-5.938873291E0,8.249419212E0,1.063997582E1
2.124038385E0,3.158558130E0,-5.931690693E0,8.881461143E0,1.113740526E1
2.126443958E0,3.206440210E0,-5.898173332E0,8.314060211E0,1.068612674E1
2.128848802E0,3.206440210E0,-5.888597488E0,8.689932823E0,1.097596336E1
2.131254219E0,3.251927853E0,-5.850291729E0,8.728239059E0,1.099923203E1
2.133660000E0,3.285445452E0,-5.819168568E0,8.359547615E0,1.070228531E1
2.136065990E0,3.309386492E0,-5.811985970E0,8.960465431E0,1.118128618E1
2.138471563E0,3.381209135E0,-5.744951248E0,8.330818176E0,1.066956286E1
2.140876875E0,3.383603334E0,-5.747345448E0,8.733026505E0,1.098847137E1
2.143283021E0,3.431485415E0,-5.687492847E0,8.622899055E0,1.088471659E1
2.145688854E0,3.445849895E0,-5.637217045E0,8.299695015E0,1.060834741E1
2.148094219E0,3.433879375E0,-5.637217045E0,8.821608543E0,1.101773665E1
2.150500000E0,3.453032255E0,-5.579758167E0,8.086620331E0,1.041395993E1
2.152905677E0,3.402756214E0,-5.560606003E0,8.527134895E0,1.073364423E1
2.155311510E0,3.395573854E0,-5.512723923E0,8.263783455E0,1.049810287E1
2.157717292E0,3.359662533E0,-5.467236042E0,8.036344528E0,1.028400873E1
2.160122708E0,3.326144934E0,-5.443295002E0,8.505587578E0,1.063191989E1
2.162528594E0,3.304598093E0,-5.390625000E0,7.840027809E0,1.007200290E1
2.164934063E0,3.227986813E0,-5.337954521E0,8.383488655E0,1.044971480E1
2.167339063E0,3.232775211E0,-5.285284519E0,8.110561371E0,1.020618801E1
2.169744323E0,3.208834171E0,-5.246978760E0,8.086620331E0,1.015976531E1
2.172149740E0,3.199257612E0,-5.189520359E0,8.519951820E0,1.047644739E1
2.174555729E0,3.227986813E0,-5.134455681E0,7.931003571E0,9.984155029E0
2.176961458E0,3.227986813E0,-5.091362476E0,8.586986542E0,1.049181627E1
2.179366719E0,3.299809933E0,-5.019539356E0,8.203931808E0,1.016803905E1
2.181772760E0,3.316568613E0,-4.954898834E0,8.242237091E0,1.017276374E1
2.184178490E0,3.362056494E0,-4.921381474E0,8.572622299E0,1.044094213E1
2.186583750E0,3.405150175E0,-4.861528873E0,7.995644569E0,9.957903533E0
2.188989010E0,3.417120695E0,-4.844770432E0,8.680356979E0,1.051176064E1
2.191394010E0,3.467396975E0,-4.782523155E0,8.235054016E0,1.013466744E1
2.193799896E0,3.486549616E0,-4.758582115E0,8.474463463E0,1.032553451E1
2.196205625E0,3.500914097E0,-4.739429951E0,8.771332741E0,1.056668698E1
2.198610729E0,3.517673016E0,-4.689153671E0,8.318847656E0,1.017670929E1
2.201016406E0,3.522461176E0,-4.708306313E0,9.010743141E0,1.075961770E1
2.203421875E0,3.532037497E0,-4.670001030E0,8.479252815E0,1.030446150E1
2.205827188E0,3.527249098E0,-4.667606831E0,8.749785423E0,1.052553014E1
2.208232760E0,3.532037497E0,-4.667606831E0,8.871885300E0,1.062883772E1
2.210638698E0,3.546402216E0,-4.670001030E0,8.354759216E0,1.020724644E1
2.213045156E0,3.532037497E0,-4.665212631E0,8.888643265E0,1.064177978E1
2.215451042E0,3.522461176E0,-4.660424232E0,8.773726463E0,1.054066235E1
2.217856823E0,3.493731976E0,-4.655636311E0,8.713873863E0,1.047915599E1
2.220263542E0,3.484155416E0,-4.658030510E0,8.721056938E0,1.048300631E1
2.222669635E0,3.476973057E0,-4.653242111E0,8.733026505E0,1.048845821E1
2.225075052E0,3.465002775E0,-4.629301548E0,8.740208626E0,1.047988186E1
2.227480938E0,3.457820415E0,-4.631695271E0,8.752180099E0,1.048855470E1
2.229886927E0,3.448243856E0,-4.598177910E0,8.723450661E0,1.044663665E1
2.232293333E0,3.465002775E0,-4.595783710E0,8.749785423E0,1.047311879E1
2.234699427E0,3.455426455E0,-4.574236870E0,8.744997978E0,1.045651015E1
2.237104688E0,3.484155416E0,-4.567054749E0,8.721056938E0,1.044290008E1
2.239510573E0,3.498520136E0,-4.519172668E0,8.680356979E0,1.039284187E1
2.241916406E0,3.512884617E0,-4.492837906E0,8.699509621E0,1.040227948E1
2.244321771E0,3.582313776E0,-4.461714268E0,8.673174858E0,1.039056439E1
2.246727188E0,3.570343256E0,-4.421014786E0,8.630081177E0,1.033300652E1
2.249132865E0,3.582313776E0,-4.389891148E0,8.606140137E0,1.030387133E1
2.251538958E0,3.608648777E0,-4.358768463E0,8.603745461E0,1.029784659E1
2.253944531E0,3.634983778E0,-4.342009544E0,8.613322258E0,1.030802960E1
2.256349740E0,3.644560099E0,-4.310886383E0,8.637263298E0,1.031837570E1
2.258755990E0,3.639771938E0,-4.265398502E0,8.644444466E0,1.030378495E1
2.261161927E0,3.658924580E0,-4.253427982E0,8.675568581E0,1.033174084E1
2.263567448E0,3.625407457E0,-4.239063263E0,8.713873863E0,1.034624735E1
2.265973385E0,3.606254578E0,-4.229486942E0,8.766544342E0,1.038007378E1
2.268379167E0,3.567948818E0,-4.229486942E0,8.764149666E0,1.036480284E1
2.270785104E0,3.558372736E0,-4.227092743E0,8.771332741E0,1.036661023E1
2.273190573E0,3.544008017E0,-4.212728024E0,8.764149666E0,1.034975312E1
2.275595833E0,3.505702496E0,-4.215122223E0,8.747391701E0,1.032347165E1
2.278001927E0,3.510490656E0,-4.215122223E0,8.744997978E0,1.032307075E1
2.280407604E0,3.457820415E0,-4.203151703E0,8.711480141E0,1.027194687E1
2.282813125E0,3.474579096E0,-4.181604862E0,8.711480141E0,1.026880740E1
2.285219219E0,3.479367495E0,-4.174422741E0,8.680356979E0,1.024111325E1
2.287625208E0,3.517673016E0,-4.140904903E0,8.675568581E0,1.023653296E1
2.290031406E0,3.544008017E0,-4.109781742E0,8.651627541E0,1.021278404E1
2.292437344E0,3.570343256E0,-4.085840702E0,8.618109703E0,1.018397074E1
2.294842760E0,3.627801418E0,-4.040352821E0,8.613322258E0,1.018207810E1
2.297249010E0,3.670895100E0,-4.021200180E0,8.615715981E0,1.019196171E1
2.299654948E0,3.757082701E0,-3.944589376E0,8.613322258E0,1.019140697E1
2.302060313E0,3.816935062E0,-3.896707296E0,8.613322258E0,1.019522640E1
2.304466250E0,3.895940542E0,-3.834460735E0,8.596563339E0,1.018736193E1
2.306872448E0,3.970157862E0,-3.800943375E0,8.563045502E0,1.017521854E1
2.309278854E0,4.034798622E0,-3.738696814E0,8.579804420E0,1.019168768E1
2.311684792E0,4.123380184E0,-3.702785254E0,8.524740219E0,1.016779615E1
2.314090208E0,4.197597027E0,-3.638144493E0,8.496010780E0,1.015076920E1
2.316496250E0,4.207173824E0,-3.607021332E0,8.464887619E0,1.011757070E1
2.318902188E0,4.240691185E0,-3.554351091E0,8.484041214E0,1.012895990E1
2.321308073E0,4.293361187E0,-3.501681089E0,8.536710739E0,1.017694212E1
2.323713906E0,4.259843826E0,-3.470557690E0,8.567833900E0,1.017835045E1
2.326119688E0,4.259843826E0,-3.446616888E0,8.594168663E0,1.019240759E1
2.328526094E0,4.245479107E0,-3.441828489E0,8.598958015E0,1.018883483E1
2.330931719E0,4.233508587E0,-3.427463770E0,8.649233818E0,1.022151400E1
2.333336719E0,4.190414429E0,-3.405917168E0,8.694722176E0,1.023513745E1
2.335742708E0,4.178444386E0,-3.389158249E0,8.733026505E0,1.025726782E1
2.338148698E0,4.116197586E0,-3.401128769E0,8.754573822E0,1.025442940E1
2.340554375E0,4.094651222E0,-3.377187729E0,8.773726463E0,1.025425968E1
2.342960208E0,4.056344986E0,-3.377187729E0,8.812031746E0,1.027186619E1
2.345366042E0,4.034798622E0,-3.377187729E0,8.807244301E0,1.025926650E1
2.347772656E0,3.989310503E0,-3.365217209E0,8.843155861E0,1.026843176E1
2.350179010E0,4.010857582E0,-3.365217209E0,8.809638023E0,1.024799432E1
2.352584896E0,4.020433903E0,-3.336488008E0,8.807244301E0,1.024029263E1
2.354991250E0,4.037192822E0,-3.317335367E0,8.773726463E0,1.021185174E1
2.357397031E0,4.068315506E0,-3.300576687E0,8.742603302E0,1.019206113E1
2.359802552E0,4.094651222E0,-3.276635647E0,8.730632782E0,1.018461872E1
2.362208490E0,4.176050186E0,-3.238330126E0,8.663598061E0,1.014810862E1
2.364614427E0,4.226325989E0,-3.185659885E0,8.596563339E0,1.009510582E1
2.367020677E0,4.283784866E0,-3.135383844E0,8.543892860E0,1.005880459E1
2.369426563E0,4.331666470E0,-3.099472284E0,8.498404503E0,1.002960328E1
2.371832135E0,4.381942749E0,-3.087501764E0,8.455311775E0,1.001131293E1
2.374238490E0,4.434613228E0,-3.015678883E0,8.448128700E0,1.000654746E1
2.376644583E0,4.470524788E0,-2.960614681E0,8.440946579E0,1.000002052E1
2.379050260E0,4.511224270E0,-2.915126801E0,8.428977013E0,9.994836775E0
2.381456198E0,4.516012192E0,-2.874427080E0,8.448128700E0,1.000137869E1
2.383862135E0,4.532771111E0,-2.862456560E0,8.472069740E0,1.002574871E1
2.386268281E0,4.496859550E0,-2.804998398E0,8.527134895E0,1.004000953E1
2.388674063E0,4.527982712E0,-2.771480799E0,8.553469658E0,1.006705401E1
2.391079115E0,4.539953232E0,-2.749933958E0,8.577410698E0,1.008688685E1
2.393484740E0,4.506436348E0,-2.735569239E0,8.606140137E0,1.009242070E1
2.395890417E0,4.518406391E0,-2.706840038E0,8.591774940E0,1.007777634E1
2.398295833E0,4.494465828E0,-2.687687397E0,8.563045502E0,1.003741176E1
2.400701354E0,4.492071152E0,-2.663746357E0,8.539104462E0,1.000952311E1
2.403106875E0,4.465736389E0,-2.644593477E0,8.529528618E0,9.984464663E0
2.405512708E0,4.470524788E0,-2.615864277E0,8.507982254E0,9.960627482E0
2.407918229E0,4.458554268E0,-2.596711636E0,8.503193855E0,9.946151176E0
2.410323854E0,4.429824829E0,-2.579952955E0,8.460100174E0,9.892057431E0
2.412730313E0,4.444189072E0,-2.546435595E0,8.417005539E0,9.852975844E0
2.415136146E0,4.432218552E0,-2.515312433E0,8.340394974E0,9.774126367E0
2.417541406E0,4.453765869E0,-2.462642193E0,8.302088737E0,9.737829039E0
2.419946719E0,4.482495308E0,-2.441095352E0,8.275753975E0,9.723158672E0
2.422351823E0,4.506436348E0,-2.400395632E0,8.270965576E0,9.720017454E0
2.424757396E0,4.554317474E0,-2.374060631E0,8.294906616E0,9.756200454E0
2.427162813E0,4.590229034E0,-2.292661190E0,8.311665535E0,9.767818686E0
2.429568281E0,4.657264233E0,-2.249567270E0,8.323636055E0,9.799672454E0
2.431974375E0,4.693175793E0,-2.218444109E0,8.263783455E0,9.758970759E0
2.434380000E0,4.769786835E0,-2.163379908E0,8.256601334E0,9.777655376E0
2.436785260E0,4.817668438E0,-2.098739147E0,8.254207611E0,9.785018062E0
2.439190677E0,4.867944717E0,-2.055645227E0,8.251812935E0,9.798723375E0
2.441596146E0,4.896674156E0,-2.002975225E0,8.223083496E0,9.777956317E0
2.444002031E0,4.927797318E0,-1.959881186E0,8.170413971E0,9.740635766E0
2.446407448E0,4.937373638E0,-1.916787505E0,8.163231850E0,9.730883157E0
2.448812656E0,4.923008919E0,-1.883270025E0,8.144079208E0,9.700966393E0
2.451218802E0,4.884703636E0,-1.830599904E0,8.144079208E0,9.671476194E0
2.453624219E0,4.875127316E0,-1.811447024E0,8.172807693E0,9.687259275E0
2.456029167E0,4.865550518E0,-1.775535703E0,8.160837173E0,9.665680123E0
2.458434635E0,4.815274715E0,-1.734835982E0,8.153655052E0,9.626973417E0
2.460840104E0,4.767392635E0,-1.703712702E0,8.191961288E0,9.630103803E0
2.463245990E0,4.760210037E0,-1.660618901E0,8.194355011E0,9.621055492E0
2.465651615E0,4.736268997E0,-1.629495621E0,8.182384491E0,9.593691466E0
2.468056771E0,4.724298477E0,-1.584007740E0,8.182384491E0,9.580161407E0
2.470463021E0,4.726693153E0,-1.548096299E0,8.179990768E0,9.573425682E0
2.472868854E0,4.748239517E0,-1.512184858E0,8.163231850E0,9.564038676E0
2.475274271E0,4.753028393E0,-1.459514618E0,8.179990768E0,9.572549859E0
2.477680313E0,4.774575233E0,-1.402056217E0,8.189566612E0,9.582866564E0
2.480086406E0,4.800909996E0,-1.349386096E0,8.208719254E0,9.604824382E0
2.482492917E0,4.855974197E0,-1.339809656E0,8.239842415E0,9.657669405E0
2.484898854E0,4.913432598E0,-1.294321775E0,8.321242332E0,9.749880138E0
2.487304323E0,4.997226238E0,-1.256016254E0,8.385883331E0,9.842402458E0
2.489710833E0,5.057078838E0,-1.248834014E0,8.424187660E0,9.904573212E0
2.492116875E0,5.138478279E0,-1.224892974E0,8.388277054E0,9.912997213E0
2.494522083E0,5.229453564E0,-1.181799173E0,8.381094933E0,9.949200276E0
2.496927813E0,5.322823524E0,-1.177011013E0,8.371518135E0,9.990001055E0
2.499333698E0,5.401828766E0,-1.162646294E0,8.359547615E0,1.002065550E1
2.501739792E0,5.495198727E0,-1.133917212E0,8.335606575E0,1.004814979E1
2.504145417E0,5.555051327E0,-1.112370372E0,8.323636055E0,1.006870797E1
2.506550781E0,5.619691849E0,-1.098005652E0,8.311665535E0,1.009308361E1
2.508956979E0,5.607721329E0,-1.109976172E0,8.292512894E0,1.007195888E1
2.511362917E0,5.624480247E0,-1.107582092E0,8.268571854E0,1.006135163E1
2.513768490E0,5.617297649E0,-1.086035252E0,8.278148651E0,1.006286493E1
2.516174271E0,5.590962887E0,-1.086035252E0,8.292512894E0,1.006002528E1
2.518580000E0,5.555051327E0,-1.071670651E0,8.302088737E0,1.004647951E1
2.520986250E0,5.495198727E0,-1.066882491E0,8.340394974E0,1.004478151E1
2.523392031E0,5.428164005E0,-1.038153291E0,8.366729736E0,1.002720765E1
2.525797031E0,5.356341362E0,-1.038153291E0,8.426582336E0,1.003869737E1
2.528202656E0,5.308459282E0,-1.014212251E0,8.462493896E0,1.004102432E1
2.530607813E0,5.258183002E0,-1.009424090E0,8.476859093E0,1.002619397E1
2.533012448E0,5.207906723E0,-9.567539692E-1,8.498404503E0,1.001301901E1
2.535417396E0,5.171995163E0,-9.256306291E-1,8.481646538E0,9.977206724E0
2.537822552E0,5.169600964E0,-8.849310279E-1,8.481646538E0,9.972271809E0
2.540228385E0,5.169600964E0,-8.562018275E-1,8.474463463E0,9.963653280E0
2.542633646E0,5.186360359E0,-7.987434268E-1,8.443341255E0,9.941143616E0
2.545038333E0,5.200724602E0,-7.628319263E-1,8.438552856E0,9.941761576E0
2.547443958E0,5.195936203E0,-7.221322656E-1,8.369123459E0,9.877320259E0
2.549849167E0,5.222271442E0,-6.670680046E-1,8.321242332E0,9.846835669E0
2.552253958E0,5.236636162E0,-6.287623644E-1,8.292512894E0,9.827688970E0
2.554659323E0,5.243818283E0,-5.760922432E-1,8.273360252E0,9.812135462E0
2.557064792E0,5.234241962E0,-5.329984426E-1,8.254207611E0,9.788427838E0
2.559470521E0,5.224665642E0,-4.922987819E-1,8.261389732E0,9.787239114E0
2.561875885E0,5.224665642E0,-4.515991211E-1,8.270965576E0,9.793362262E0
2.564280833E0,5.241424084E0,-4.085053205E-1,8.235054016E0,9.770133964E0
2.566686198E0,5.236636162E0,-3.558351398E-1,8.196748734E0,9.733224889E0
2.569091146E0,5.241424084E0,-3.007708788E-1,8.158443451E0,9.701710627E0
2.571495885E0,5.243818283E0,-2.696475983E-1,8.112955093E0,9.663869844E0
2.573901094E0,5.227059841E0,-2.026128322E-1,8.055497169E0,9.604907141E0
2.576306146E0,5.217483044E0,-1.690954417E-1,7.995644569E0,9.548877141E0
2.578711615E0,5.200724602E0,-1.260016710E-1,7.954944611E0,9.504975358E0
2.581116823E0,5.181571484E0,-8.530198783E-2,7.911850929E0,9.457977828E0
2.583521979E0,5.167207241E0,-4.699640721E-2,7.832845688E0,9.383800451E0
2.585928073E0,5.155236721E0,1.285606623E-2,7.816087246E0,9.363111169E0
2.588333802E0,5.140872002E0,4.876753688E-2,7.782569885E0,9.327343525E0
2.590738906E0,5.100172043E0,9.186130762E-2,7.775387287E0,9.299292491E0
2.593144219E0,5.097778320E0,1.493196934E-1,7.772993565E0,9.296723570E0
2.595549583E0,5.092989922E0,1.876252592E-1,7.768205166E0,9.290789045E0
2.597955156E0,5.081019878E0,2.331131548E-1,7.772993565E0,9.289269815E0
2.600360260E0,5.066655159E0,2.450836152E-1,7.756234646E0,9.267698547E0
2.602764844E0,5.078625679E0,3.025419712E-1,7.729899406E0,9.253935123E0
2.605170000E0,5.081019878E0,3.456357718E-1,7.674835205E0,9.210826375E0
2.607575052E0,5.071443081E0,3.911236525E-1,7.650894165E0,9.187420430E0
2.609979948E0,5.095384121E0,3.935177326E-1,7.612588882E0,9.168931510E0
2.612385521E0,5.095384121E0,4.246410131E-1,7.583859444E0,9.146484756E0
2.614791094E0,5.109748840E0,4.677348137E-1,7.545553684E0,9.124893943E0
2.617196823E0,5.114537239E0,4.581584334E-1,7.540765762E0,9.123132609E0
2.619602135E0,5.126507759E0,5.251931548E-1,7.545553684E0,9.137411562E0
2.622007031E0,5.124113083E0,5.204049945E-1,7.528795242E0,9.121957797E0
2.624412708E0,5.157630444E0,5.347695351E-1,7.528795242E0,9.141656745E0
2.626817969E0,5.143266201E0,5.491341949E-1,7.540765762E0,9.144281484E0
2.629222552E0,5.171995163E0,5.778633356E-1,7.559918404E0,9.178007751E0
2.631627604E0,5.176783562E0,5.898338556E-1,7.567101002E0,9.187383174E0
2.634032813E0,5.210300922E0,5.754692554E-1,7.600618362E0,9.232973522E0
2.636438281E0,5.229453564E0,5.970160961E-1,7.571888924E0,9.221557063E0
2.638843333E0,5.258183002E0,6.161689162E-1,7.552736282E0,9.223447185E0
2.641248073E0,5.279729843E0,6.137748361E-1,7.528795242E0,9.216019996E0
2.643653698E0,5.325217724E0,6.329275966E-1,7.495277882E0,9.216166864E0
2.646058958E0,5.375493526E0,6.185630560E-1,7.524006844E0,9.267644247E0
2.648464219E0,5.380281925E0,6.281394362E-1,7.531189442E0,9.276896418E0
2.650869896E0,5.385070324E0,6.616567969E-1,7.521612644E0,9.274234679E0
2.653275104E0,5.418587685E0,6.616567969E-1,7.564706802E0,9.328647877E0
2.655680677E0,5.428164005E0,6.855977774E-1,7.545553684E0,9.320428594E0
2.658086146E0,5.456892967E0,7.071446776E-1,7.538372040E0,9.332994560E0
2.660490990E0,5.495198727E0,7.119328380E-1,7.514431000E0,9.336526692E0
2.662896667E0,5.499986649E0,7.286915183E-1,7.473731041E0,9.307926737E0
2.665301927E0,5.499986649E0,7.191151977E-1,7.435425282E0,9.276450233E0
2.667706615E0,5.531110287E0,7.286915183E-1,7.363602161E0,9.238333677E0
2.670111875E0,5.504775047E0,7.358738780E-1,7.320508957E0,9.188792634E0
2.672517396E0,5.495198727E0,7.454502583E-1,7.234321594E0,9.115279154E0
2.674923229E0,5.492804527E0,7.598148584E-1,7.210380554E0,9.096032538E0
2.677328542E0,5.473651886E0,7.669971585E-1,7.181651115E0,9.062298955E0
2.679733385E0,5.449710846E0,7.885440588E-1,7.160103798E0,9.032620685E0
2.682139115E0,5.401828766E0,7.861499190E-1,7.157710075E0,9.001699797E0
2.684544688E0,5.389858246E0,7.837558389E-1,7.164892197E0,9.000029184E0
2.686949583E0,5.392252445E0,8.005145192E-1,7.157710075E0,8.997223097E0
2.689355000E0,5.358735085E0,8.316377997E-1,7.174468994E0,8.993368028E0
2.691760781E0,5.363523006E0,8.460023999E-1,7.145739555E0,8.974669514E0
2.694166719E0,5.358735085E0,8.531847596E-1,7.117010593E0,8.949626010E0
2.696571979E0,5.377887726E0,8.771256804E-1,7.145739555E0,8.986246138E0
2.698976979E0,5.401828766E0,8.819139004E-1,7.133769035E0,8.991561977E0
2.701383073E0,5.428164005E0,9.202194810E-1,7.083492756E0,8.971490288E0
2.703788594E0,5.435346127E0,9.369781613E-1,7.030822754E0,8.936072078E0
2.706193906E0,5.483228207E0,9.609192014E-1,7.026034355E0,8.964056896E0
2.708599635E0,5.509562969E0,9.800719619E-1,7.052370071E0,9.002874474E0
2.711005104E0,5.543080807E0,1.023165822E0,7.102645874E0,9.067535031E0
2.713411042E0,5.598145008E0,1.044712663E0,7.160103798E0,9.148646811E0
2.715816615E0,5.657997608E0,1.039924383E0,7.222351074E0,9.233457353E0
2.718221979E0,5.705879211E0,1.075835943E0,7.253473759E0,9.291251914E0
2.720627969E0,5.770520210E0,1.097382784E0,7.301355839E0,9.370856394E0
2.723033698E0,5.859101772E0,1.116535664E0,7.258262157E0,9.394577958E0
2.725439115E0,5.933318615E0,1.126112103E0,7.191227436E0,9.390748122E0
2.727844531E0,5.983594418E0,1.166811705E0,7.169680595E0,9.411119569E0
2.730249844E0,6.072176456E0,1.169205785E0,7.143345356E0,9.448055459E0
2.732655573E0,6.155970097E0,1.214693666E0,7.131374836E0,9.498839697E0
2.735060677E0,6.220610619E0,1.229058266E0,7.090675354E0,9.512321360E0
2.737465052E0,6.299615860E0,1.269757867E0,7.035610676E0,9.528759762E0
2.739870156E0,6.366650581E0,1.284122586E0,7.030822754E0,9.571607965E0
2.742275156E0,6.460020542E0,1.300881147E0,7.014063835E0,9.623993384E0
2.744679948E0,6.527055264E0,1.348763227E0,6.968576431E0,9.642752208E0
2.747085260E0,6.560572624E0,1.372704148E0,6.937452793E0,9.646433594E0
2.749490781E0,6.627607346E0,1.377492428E0,6.901541233E0,9.667157592E0
2.751896771E0,6.637183666E0,1.415797949E0,6.865629673E0,9.653681249E0
2.754302188E0,6.661124706E0,1.427768469E0,6.803383350E0,9.627831021E0
2.756707031E0,6.615637302E0,1.413403869E0,6.769865990E0,9.570551339E0
2.759112604E0,6.582119465E0,1.411009789E0,6.755501270E0,9.536878037E0
2.761517813E0,6.524661064E0,1.408615708E0,6.707619190E0,9.462957012E0
2.763922708E0,6.460020542E0,1.396645188E0,6.757895470E0,9.452599344E0
2.766328229E0,6.392985821E0,1.387068748E0,6.817748070E0,9.448593343E0
2.768733750E0,6.328345299E0,1.384674668E0,6.875206470E0,9.446361319E0
2.771139427E0,6.266098499E0,1.375098348E0,6.927876472E0,9.441946742E0
2.773544635E0,6.215822697E0,1.346369147E0,6.913511753E0,9.393923911E0
2.775949583E0,6.182305336E0,1.353551388E0,6.939846992E0,9.392256220E0
2.778355365E0,6.132029057E0,1.329610467E0,6.920694351E0,9.341608783E0
2.780760625E0,6.127240658E0,1.322428226E0,6.913511753E0,9.332124048E0
2.783165469E0,6.136816978E0,1.329610467E0,6.913511753E0,9.339434211E0
2.785570521E0,6.124846458E0,1.327216268E0,6.872812271E0,9.301117980E0
2.787975469E0,6.129634857E0,1.312851667E0,6.832112312E0,9.272203710E0
2.790380938E0,6.136816978E0,1.341580868E0,6.769865990E0,9.235336884E0
2.792786042E0,6.117664337E0,1.336792707E0,6.738742828E0,9.199102488E0
2.795190625E0,6.153575420E0,1.382280588E0,6.698042870E0,9.200052628E0
2.797595938E0,6.146393776E0,1.387068748E0,6.664525986E0,9.171587800E0
2.800000833E0,6.151181698E0,1.418192029E0,6.628614426E0,9.153514850E0
2.802405573E0,6.167940617E0,1.422980309E0,6.573549747E0,9.125783292E0
2.804810938E0,6.134423256E0,1.446921349E0,6.523273945E0,9.070712929E0
2.807216198E0,6.124846458E0,1.478044510E0,6.456238747E0,9.021162811E0
2.809621771E0,6.122452736E0,1.509167790E0,6.425116062E0,9.002451407E0
2.812026875E0,6.100905418E0,1.537896991E0,6.422721863E0,8.990969370E0
2.814431615E0,6.072176456E0,1.549867511E0,6.398780823E0,8.956439708E0
2.816837188E0,6.038659096E0,1.580990791E0,6.348504543E0,8.903282849E0
2.819242552E0,6.072176456E0,1.616902351E0,6.314987183E0,8.908690322E0
2.821647552E0,6.076964855E0,1.636054993E0,6.293440342E0,8.900200511E0
2.824052865E0,6.057811737E0,1.664784312E0,6.252740860E0,8.863710177E0
2.826458177E0,6.072176456E0,1.693513393E0,6.209646702E0,8.848673725E0
2.828863906E0,6.098511696E0,1.710272193E0,6.188099861E0,8.854911393E0
2.831269115E0,6.103299618E0,1.729424953E0,6.101912498E0,8.801960749E0
2.833674010E0,6.151181698E0,1.758154035E0,6.039665699E0,8.798051128E0
2.836080156E0,6.189486980E0,1.779700875E0,5.936719418E0,8.759093659E0
2.838485625E0,6.234975338E0,1.796459675E0,5.864896774E0,8.746382052E0
2.840890677E0,6.268492699E0,1.832371116E0,5.754767895E0,8.704535493E0
2.843296198E0,6.273280621E0,1.834765315E0,5.644639492E0,8.636108412E0
2.845701458E0,6.292433739E0,1.853918076E0,5.591969490E0,8.619852514E0
2.848106979E0,6.292433739E0,1.870676756E0,5.481841087E0,8.552469561E0
2.850512292E0,6.302010059E0,1.865888596E0,5.393259525E0,8.502006783E0
2.852917344E0,6.282856941E0,1.880253196E0,5.335800648E0,8.454608919E0
2.855323125E0,6.297221661E0,1.901800036E0,5.252007484E0,8.417566551E0
2.857728542E0,6.270886421E0,1.908982277E0,5.170608044E0,8.348857250E0
2.860133750E0,6.258916378E0,1.932923317E0,5.096390724E0,8.299603918E0
2.862539323E0,6.232581139E0,1.959258437E0,5.038932323E0,8.250733315E0
2.864944792E0,6.213428020E0,1.980805278E0,4.995838642E0,8.215149484E0
2.867350625E0,6.218216419E0,2.004746199E0,4.940774441E0,8.191243790E0
2.869755885E0,6.218216419E0,2.040657759E0,4.924015999E0,8.190020335E0
2.872160573E0,6.230186939E0,2.062204361E0,4.919228077E0,8.201629167E0
2.874566198E0,6.254127979E0,2.100510120E0,4.885710239E0,8.209532514E0
2.876971615E0,6.302010059E0,2.155574322E0,4.871345997E0,8.251778188E0
2.879376719E0,6.352286339E0,2.189091682E0,4.888104439E0,8.308864491E0
2.881782188E0,6.378621101E0,2.220214844E0,4.890498161E0,8.338652971E0
2.884187448E0,6.421715260E0,2.253732443E0,4.895287037E0,8.383410522E0
2.886592969E0,6.488749504E0,2.287249565E0,4.907257557E0,8.450831760E0
2.888998177E0,6.555784702E0,2.325555325E0,4.921621799E0,8.521084542E0
2.891403073E0,6.630001545E0,2.363860846E0,4.931198597E0,8.594270079E0
2.893808802E0,6.718583107E0,2.392590284E0,4.959927559E0,8.687043722E0
2.896214115E0,6.814347267E0,2.404560566E0,4.974291801E0,8.772731565E0
2.898619010E0,6.922081470E0,2.466807127E0,4.962321281E0,8.867072898E0
2.901024531E0,6.991510868E0,2.500324726E0,4.995838642E0,8.949371581E0
2.903429896E0,7.094456673E0,2.519477367E0,5.019779682E0,9.048605956E0
2.905835313E0,7.183038235E0,2.548206568E0,5.005415440E0,9.118310080E0
2.908240573E0,7.312319756E0,2.586512089E0,5.036538601E0,9.248069316E0
2.910645781E0,7.422448158E0,2.622423649E0,5.034144402E0,9.344113244E0
2.913051458E0,7.544547081E0,2.651152849E0,5.034144402E0,9.449413312E0
2.915456667E0,7.654675484E0,2.682276249E0,5.010203362E0,9.533666680E0
2.917861667E0,7.740863323E0,2.696640730E0,5.012597561E0,9.608276147E0
2.920267240E0,7.839021206E0,2.722975731E0,4.991050243E0,9.683771622E0
2.922672813E0,7.925209522E0,2.746916771E0,4.969503880E0,9.749382879E0
2.925078750E0,7.975485325E0,2.756493092E0,4.924015999E0,9.769982287E0
2.927484271E0,8.030549049E0,2.761281490E0,4.907257557E0,9.807934045E0
2.929889479E0,8.080824852E0,2.780434132E0,4.900074959E0,9.850953195E0
2.932295417E0,8.102371216E0,2.799587011E0,4.873739719E0,9.861006318E0
2.934700781E0,8.116736412E0,2.821133852E0,4.864163399E0,9.874223603E0
2.937105625E0,8.102371216E0,2.816345692E0,4.845010281E0,9.851616466E0
2.939510833E0,8.071249008E0,2.833104372E0,4.804310799E0,9.810858433E0
2.941915938E0,8.040124893E0,2.859439373E0,4.754034996E0,9.768359666E0
2.944321563E0,8.011396408E0,2.852257252E0,4.725306034E0,9.728636130E0
2.946727188E0,7.992243290E0,2.854651213E0,4.655877113E0,9.679988535E0
2.949132344E0,7.989849567E0,2.904927254E0,4.581659794E0,9.657530995E0
2.951538125E0,7.965908527E0,2.912109613E0,4.548142433E0,9.624015828E0
2.953943750E0,7.941967487E0,2.921685934E0,4.473925591E0,9.572204890E0
2.956348802E0,7.932390690E0,2.950415134E0,4.390131950E0,9.534203169E0
2.958753854E0,7.941967487E0,2.962385654E0,4.313520908E0,9.510890545E0
2.961158854E0,7.939573765E0,3.007873535E0,4.256062508E0,9.497273442E0
2.963564427E0,7.939573765E0,3.015055895E0,4.256062508E0,9.499550604E0
2.965969688E0,7.956331730E0,3.043784857E0,4.224938869E0,9.508835328E0
2.968374427E0,7.977879047E0,3.070120096E0,4.239303589E0,9.541692010E0
2.970779844E0,7.980272770E0,3.120396137E0,4.313520908E0,9.593127132E0
2.973185104E0,7.999426365E0,3.141942978E0,4.394919872E0,9.652872553E0
2.975590260E0,8.044913292E0,3.170672178E0,4.517018795E0,9.755882878E0
2.977995729E0,8.073642731E0,3.206583738E0,4.641512394E0,9.849341273E0
2.980400938E0,8.162223816E0,3.216160059E0,4.756428719E0,9.979438727E0
2.982806563E0,8.257987976E0,3.247283459E0,4.900074959E0,1.013656499E1
2.985211927E0,8.360934258E0,3.290377140E0,5.026961803E0,1.029573447E1
2.987616979E0,8.471062660E0,3.333470821E0,5.146667004E0,1.045749069E1
2.990023021E0,8.605133057E0,3.350229740E0,5.196942806E0,1.059625258E1
2.992428646E0,8.751173019E0,3.381352901E0,5.232854366E0,1.074240855E1
2.994833698E0,8.940306664E0,3.390929461E0,5.216095924E0,1.089197606E1
2.997239271E0,9.095922470E0,3.424446583E0,5.196942806E0,1.102138170E1
2.999644792E0,9.246750832E0,3.455569983E0,5.175396442E0,1.114576571E1
3.002050625E0,9.359273911E0,3.457964182E0,5.096390724E0,1.120387089E1
3.004456146E0,9.493342400E0,3.493875742E0,5.043720722E0,1.130353203E1
3.006861146E0,9.598683357E0,3.503451824E0,4.971898079E0,1.136347955E1
3.009266927E0,9.668112755E0,3.510634184E0,4.916833401E0,1.140053540E1
3.011672708E0,9.732752800E0,3.534575224E0,4.876133919E0,1.144536505E1
3.014078229E0,9.768664360E0,3.532181263E0,4.835434437E0,1.145794633E1
3.016484063E0,9.766270638E0,3.558516264E0,4.775581837E0,1.143893623E1
3.018890052E0,9.775846481E0,3.568092585E0,4.758822918E0,1.144311385E1
3.021296406E0,9.761482239E0,3.565698385E0,4.739670277E0,1.142213705E1
3.023702500E0,9.708811760E0,3.584851503E0,4.701364994E0,1.136727843E1
3.026108125E0,9.660929680E0,3.601609945E0,4.660665035E0,1.131489969E1
3.028514167E0,9.605865479E0,3.606398106E0,4.586447716E0,1.123896176E1
3.030919688E0,9.529254913E0,3.630339146E0,4.512230873E0,1.115106672E1
3.033324740E0,9.462219238E0,3.651886225E0,4.449984550E0,1.107574956E1
3.035730208E0,9.366456032E0,3.683009386E0,4.387737751E0,1.097940341E1
3.038135469E0,9.249144554E0,3.709344387E0,4.306338310E0,1.085589519E1
3.040541354E0,9.160563469E0,3.738073587E0,4.215362549E0,1.075445948E1
3.042947083E0,9.067193985E0,3.766803026E0,4.184239388E0,1.067289422E1
3.045352344E0,8.971429825E0,3.793138027E0,4.136357307E0,1.058224461E1
3.047758385E0,8.868483543E0,3.814684629E0,4.062140465E0,1.047391065E1
3.050164010E0,8.806236267E0,3.855384350E0,4.014258385E0,1.041767997E1
3.052569375E0,8.753566742E0,3.867354870E0,3.995105743E0,1.037025720E1
3.054975104E0,8.679349899E0,3.879325390E0,3.954405785E0,1.029648509E1
3.057380833E0,8.602738380E0,3.891295910E0,3.894553661E0,1.021356156E1
3.059787031E0,8.545279503E0,3.915236950E0,3.884976864E0,1.017073878E1
3.062192708E0,8.497397423E0,3.936784029E0,3.873006344E0,1.013430854E1
3.064597865E0,8.485427856E0,3.965512991E0,3.923282623E0,1.015479816E1
3.067004063E0,8.451910019E0,3.955936670E0,3.954405785E0,1.013516369E1
3.069410313E0,8.439939499E0,3.972695589E0,3.978346825E0,1.014111101E1
3.071816615E0,8.475851059E0,4.018183231E0,4.011864185E0,1.020200480E1
3.074223177E0,8.492609978E0,4.030153751E0,4.057352066E0,1.023858727E1
3.076629375E0,8.530915260E0,4.042124271E0,4.086081505E0,1.028646421E1
3.079035729E0,8.535703659E0,4.054094791E0,4.150722027E0,1.032096967E1
3.081441406E0,8.602738380E0,4.075642109E0,4.193815708E0,1.040221402E1
3.083846719E0,8.672167778E0,4.111553192E0,4.215362549E0,1.048239691E1
3.086252813E0,8.717654228E0,4.125917912E0,4.220150948E0,1.052760029E1
3.088658333E0,8.791872978E0,4.137887955E0,4.174663067E0,1.057577226E1
3.091063177E0,8.868483543E0,4.154647350E0,4.153115749E0,1.063764379E1
3.093468073E0,8.949882507E0,4.173799515E0,4.133963585E0,1.070563656E1
3.095873385E0,9.002552986E0,4.173799515E0,4.112416267E0,1.074143986E1
3.098279323E0,9.016917229E0,4.180982113E0,4.090869427E0,1.074805194E1
3.100684583E0,9.062405586E0,4.192952633E0,4.074110985E0,1.078454575E1
3.103089635E0,9.079163551E0,4.183376312E0,4.069322586E0,1.079311051E1
3.105495521E0,9.071981430E0,4.197740555E0,3.973558426E0,1.075690659E1
3.107900885E0,9.081557274E0,4.195346832E0,3.887371063E0,1.073253331E1
3.110305885E0,9.074376106E0,4.212105751E0,3.758090019E0,1.068687874E1
3.112711198E0,9.031281471E0,4.214499474E0,3.576138496E0,1.058842847E1
3.115116563E0,9.024099350E0,4.219287872E0,3.896947384E0,1.069686674E1
3.117522240E0,9.012129784E0,4.228864193E0,3.106894970E0,1.042854601E1
3.119927396E0,8.928336143E0,4.228864193E0,3.638384819E0,1.052788311E1
3.122332083E0,8.906788826E0,4.252805233E0,3.252934933E0,1.039224832E1
3.124737813E0,8.849330902E0,4.279139996E0,3.063801289E0,1.029604656E1
3.127143281E0,8.770325661E0,4.269563675E0,3.561773777E0,1.038431599E1
3.129548177E0,8.724837303E0,4.303081036E0,2.838756084E0,1.013399371E1
3.131953646E0,8.636255264E0,4.319839478E0,3.477980137E0,1.026363795E1
3.134359375E0,8.626679420E0,4.358145714E0,3.070983410E0,1.014120165E1
3.136765417E0,8.571614265E0,4.360539436E0,3.001554966E0,1.007453262E1
3.139170625E0,8.530915260E0,4.386874676E0,3.379822254E0,1.017076118E1
3.141575313E0,8.559644699E0,4.456303596E0,2.685533524E0,1.001689819E1
3.143980781E0,8.492609978E0,4.446727276E0,3.324758053E0,1.014651782E1
3.146385729E0,8.528521538E0,4.504185677E0,2.821997166E0,1.004923063E1
3.148790260E0,8.492609978E0,4.499397278E0,2.884243965E0,1.003433423E1
3.151195469E0,8.468668938E0,4.532914639E0,3.147594929E0,1.010806720E1
3.153600625E0,8.490215302E0,4.564038277E0,2.592163563E0,9.981658840E0
3.156006042E0,8.396845818E0,4.573614120E0,3.305605412E0,1.011691618E1
3.158411302E0,8.384875298E0,4.638255119E0,2.795662403E0,9.981746970E0
3.160816198E0,8.289112091E0,4.631072521E0,3.032678127E0,9.967614989E0
3.163221979E0,8.279534340E0,4.671772003E0,3.293634892E0,1.006102248E1
3.165627240E0,8.246017456E0,4.690925121E0,2.829179287E0,9.899789787E0
3.168032031E0,8.193347931E0,4.712471962E0,3.604867458E0,1.011599781E1
3.170437448E0,8.205318451E0,4.748383522E0,3.030283928E0,9.952739203E0
3.172842604E0,8.186164856E0,4.750777721E0,3.398974895E0,1.005665025E1
3.175248177E0,8.200530052E0,4.784295082E0,3.535438538E0,1.013101664E1
3.177653542E0,8.219682693E0,4.829782486E0,3.094924450E0,1.002339961E1
3.180058385E0,8.253199577E0,4.858512402E0,3.810760021E0,1.030739239E1
3.182464063E0,8.325022697E0,4.913576126E0,3.123653889E0,1.015905738E1
3.184869427E0,8.327416420E0,4.918364525E0,3.523468018E0,1.029325025E1
3.187274375E0,8.423180580E0,4.963852882E0,3.480374336E0,1.037799653E1
3.189679688E0,8.439939499E0,4.985399246E0,3.054224968E0,1.026718435E1
3.192084792E0,8.478245735E0,5.009340286E0,3.695843220E0,1.051824120E1
3.194490521E0,8.542885780E0,5.069192886E0,2.941702366E0,1.036007851E1
3.196896250E0,8.523733139E0,5.054828167E0,3.458827496E0,1.049613272E1
3.199301719E0,8.557250977E0,5.093133450E0,3.315181732E0,1.049556966E1
3.201707865E0,8.559644699E0,5.090739727E0,3.006342888E0,1.040294410E1
3.204113490E0,8.533309937E0,5.105103970E0,3.597685337E0,1.057463024E1
3.206518542E0,8.542885780E0,5.148198128E0,2.850726604E0,1.037359550E1
3.208923802E0,8.490215302E0,5.133833885E0,3.408551693E0,1.049086416E1
3.211329010E0,8.495003700E0,5.162562847E0,3.166747570E0,1.043290148E1
3.213734792E0,8.449515343E0,5.148198128E0,2.889031887E0,1.030750982E1
3.216140104E0,8.408816338E0,5.160168648E0,3.003948689E0,1.031306164E1
3.218545000E0,8.351357460E0,5.148198128E0,2.877061367E0,1.022382499E1
3.220950938E0,8.274746895E0,5.148198128E0,2.884243965E0,1.016337756E1
3.223356406E0,8.241230011E0,5.136227608E0,2.845938206E0,1.011919317E1
3.225761458E0,8.181377411E0,5.155380249E0,2.807632923E0,1.006954242E1
3.228166927E0,8.119131088E0,5.150592327E0,2.795662403E0,1.001322222E1
3.230572344E0,8.083219528E0,5.152986050E0,2.786085606E0,9.982683816E0
3.232977969E0,8.040124893E0,5.155380249E0,2.836361885E0,9.963257628E0
3.235383073E0,7.997031689E0,5.164956570E0,2.867485046E0,9.942422375E0
3.237788073E0,7.980272770E0,5.198473930E0,2.881849766E0,9.950574996E0
3.240193906E0,7.927603245E0,5.198473930E0,2.886638165E0,9.909778217E0
3.242599063E0,7.896480083E0,5.222414970E0,2.862697124E0,9.890553607E0
3.245003854E0,7.858173847E0,5.248750210E0,2.831573963E0,9.864992959E0
3.247409323E0,7.850991726E0,5.318179131E0,2.819603443E0,9.892990646E0
3.249814948E0,7.810292244E0,5.327755451E0,2.821997166E0,9.866575449E0
3.252220781E0,7.812685966E0,5.344514370E0,2.819603443E0,9.876844609E0
3.254626198E0,7.783957005E0,5.397184372E0,2.821997166E0,9.883483890E0
3.257031302E0,7.733681202E0,5.423519135E0,2.824391365E0,9.859085724E0
3.259437031E0,7.702557564E0,5.476189613E0,2.810026646E0,9.859731003E0
3.261842292E0,7.659464359E0,5.512101173E0,2.862697124E0,9.861322855E0
3.264247135E0,7.630734444E0,5.557589054E0,2.877061367E0,9.868758096E0
3.266652552E0,7.618763924E0,5.598288536E0,2.898608685E0,9.888798237E0
3.269058073E0,7.609187603E0,5.660535336E0,2.884243965E0,9.912631311E0
3.271463906E0,7.604399681E0,5.670111656E0,2.850726604E0,9.904731338E0
3.273869479E0,7.578064442E0,5.725175858E0,2.841149807E0,9.913467179E0
3.276274948E0,7.580458641E0,5.765875816E0,2.843544483E0,9.939538338E0
3.278680990E0,7.554123878E0,5.780240059E0,2.812420845E0,9.918955274E0
3.281086302E0,7.534970760E0,5.796998501E0,2.802844524E0,9.911453647E0
3.283491302E0,7.532576561E0,5.844880581E0,2.800450325E0,9.937044866E0
3.285896771E0,7.484694481E0,5.859245300E0,2.805238724E0,9.910639296E0
3.288302344E0,7.451177120E0,5.873610020E0,2.812420845E0,9.895910577E0
3.290708281E0,7.403295040E0,5.890368462E0,2.810026646E0,9.869218197E0
3.293113854E0,7.410477638E0,5.892762661E0,2.795662403E0,9.871958209E0
3.295518958E0,7.372172356E0,5.909521580E0,2.802844524E0,9.855318766E0
3.297924740E0,7.357807636E0,5.919097900E0,2.805238724E0,9.851010987E0
3.300330000E0,7.309925556E0,5.904733181E0,2.810026646E0,9.808013832E0
3.302734896E0,7.302742958E0,5.923886299E0,2.805238724E0,9.812840970E0
3.305140365E0,7.240496635E0,5.933462620E0,2.824391365E0,9.777932132E0
3.307545729E0,7.226132393E0,5.957403660E0,2.821997166E0,9.781171491E0
3.309951719E0,7.211767673E0,5.962191582E0,2.817208767E0,9.772102469E0
3.312357396E0,7.209372997E0,5.969373703E0,2.783691883E0,9.765112489E0
3.314762240E0,7.230920315E0,5.990920544E0,2.766932964E0,9.789446133E0
3.317167865E0,7.221343517E0,6.002891064E0,2.707080364E0,9.772962059E0
3.319572865E0,7.262043476E0,6.019649982E0,2.678351402E0,9.805459071E0
3.321977708E0,7.262043476E0,6.036408901E0,2.637651920E0,9.804729243E0
3.324383125E0,7.257255077E0,6.043591022E0,2.623287201E0,9.801753896E0
3.326788542E0,7.252467155E0,6.053167343E0,2.599346161E0,9.797740310E0
3.329194427E0,7.271620274E0,6.057955742E0,2.570617199E0,9.807311658E0
3.331599896E0,7.226132393E0,6.074714184E0,2.594557762E0,9.790345845E0
3.334004896E0,7.216555595E0,6.084290504E0,2.596951962E0,9.789863385E0
3.336410677E0,7.166279793E0,6.093867302E0,2.616104603E0,9.763953505E0
3.338816094E0,7.118397713E0,6.141749382E0,2.623287201E0,9.760855864E0
3.341220781E0,7.094456673E0,6.132172585E0,2.640045643E0,9.741904182E0
3.343625885E0,7.053757191E0,6.165689945E0,2.640045643E0,9.733502145E0
3.346031146E0,7.003480434E0,6.189630985E0,2.673563480E0,9.721533398E0
3.348436719E0,6.972357750E0,6.201601505E0,2.680745602E0,9.708760518E0
3.350842135E0,6.936446190E0,6.218359947E0,2.671168804E0,9.691100503E0
3.353247292E0,6.881381512E0,6.259059429E0,2.726233482E0,9.693378433E0
3.355653021E0,6.859835148E0,6.285395145E0,2.754962444E0,9.703264835E0
3.358058281E0,6.831105709E0,6.309336185E0,2.802844524E0,9.712243085E0
3.360463490E0,6.831105709E0,6.352429867E0,2.831573963E0,9.748598952E0
3.362869115E0,6.809558868E0,6.390735149E0,2.838756084E0,9.760641569E0
3.365274635E0,6.814347267E0,6.445799828E0,2.860302925E0,9.806375320E0
3.367680417E0,6.838288307E0,6.443405628E0,2.855514526E0,9.820062437E0
3.370085469E0,6.843076229E0,6.491287708E0,2.869879246E0,9.859042310E0
3.372490208E0,6.845469952E0,6.503258228E0,2.879455566E0,9.871377351E0
3.374895938E0,6.840682030E0,6.546351433E0,2.857908726E0,9.890262383E0
3.377301563E0,6.811953068E0,6.555928230E0,2.879455566E0,9.883024027E0
3.379706563E0,6.783223629E0,6.579869270E0,2.912972927E0,9.888994574E0
3.382111354E0,6.756888866E0,6.601416111E0,2.948884487E0,9.895966933E0
3.384516198E0,6.699429989E0,6.615780830E0,2.936913967E0,9.862878982E0
3.386921823E0,6.646759987E0,6.634932995E0,2.951278687E0,9.844379110E0
3.389326927E0,6.601272106E0,6.637327671E0,2.934519768E0,9.810316932E0
3.391731771E0,6.567755222E0,6.632539272E0,2.872273445E0,9.766060649E0
3.394137344E0,6.539025784E0,6.658874035E0,2.841149807E0,9.755592952E0
3.396542448E0,6.507902622E0,6.654086113E0,2.831573963E0,9.728693111E0
3.398947292E0,6.469596863E0,6.666056633E0,2.807632923E0,9.704370007E0
3.401352656E0,6.457626343E0,6.661268711E0,2.769327164E0,9.682076831E0
3.403758125E0,6.421715260E0,6.682815075E0,2.742991924E0,9.665528899E0
3.406164010E0,6.395379543E0,6.709150791E0,2.762144566E0,9.671764391E0
3.408569427E0,6.376227379E0,6.733091354E0,2.793268204E0,9.684685954E0
3.410974115E0,6.359467983E0,6.742667675E0,2.850726604E0,9.697063606E0
3.413379635E0,6.323556423E0,6.771397114E0,2.881849766E0,9.702795617E0
3.415785104E0,6.278069019E0,6.812096596E0,2.941702366E0,9.719692559E0
3.418190469E0,6.246945858E0,6.816884518E0,2.994372368E0,9.719079841E0
3.420596250E0,6.261310101E0,6.864766598E0,3.035071850E0,9.774491585E0
3.423002240E0,6.249339581E0,6.895890236E0,3.070983410E0,9.799922777E0
3.425408542E0,6.237369061E0,6.948560238E0,3.111683369E0,9.842247485E0
3.427813958E0,6.256522179E0,6.982077599E0,3.130836010E0,9.884109039E0
3.430218750E0,6.321162701E0,7.003624439E0,3.128441811E0,9.939567462E0
3.432624323E0,6.359467983E0,7.061083317E0,3.145200729E0,1.000969621E1
3.435029688E0,6.392985821E0,7.111359119E0,3.169141293E0,1.007398396E1
3.437434844E0,6.426503181E0,7.128117561E0,3.193082333E0,1.011463187E1
3.439840469E0,6.421715260E0,7.152058601E0,3.233782291E0,1.014138635E1
3.442246302E0,6.416926861E0,7.175999641E0,3.226600170E0,1.015297345E1
3.444652448E0,6.407350063E0,7.187970161E0,3.226600170E0,1.015539258E1
3.447058281E0,6.357074261E0,7.187970161E0,3.217023373E0,1.012069897E1
3.449463854E0,6.302010059E0,7.159241199E0,3.145200729E0,1.004302509E1
3.451869844E0,6.232581139E0,7.164029121E0,3.082953930E0,9.983635903E0
3.454275260E0,6.129634857E0,7.147270679E0,3.054224968E0,9.898696470E0
3.456680208E0,6.043447018E0,7.113753319E0,3.039860249E0,9.816796242E0
3.459085677E0,5.959653854E0,7.101782799E0,3.109289169E0,9.778572090E0
3.461491250E0,5.849524975E0,7.077841759E0,3.149988651E0,9.707482418E0
3.463897031E0,5.715455532E0,7.049112797E0,3.185900211E0,9.618023878E0
3.466302292E0,5.648421288E0,7.044324398E0,3.207447052E0,9.582008446E0
3.468707135E0,5.562233448E0,7.008412838E0,3.257723331E0,9.522029865E0
3.471112760E0,5.504775047E0,7.010806561E0,3.245752811E0,9.486246268E0
3.473517969E0,5.411405087E0,7.020383358E0,3.197870731E0,9.423134548E0
3.475922813E0,5.365917206E0,7.015594959E0,3.149988651E0,9.377316705E0
3.478327760E0,5.327611446E0,7.032353878E0,3.075771809E0,9.343330081E0
3.480732760E0,5.286911964E0,7.032353878E0,3.051830769E0,9.312309607E0
3.483138438E0,5.258183002E0,7.049112797E0,3.030283928E0,9.301671914E0
3.485543750E0,5.227059841E0,7.077841759E0,3.006342888E0,9.298177031E0
3.487948698E0,5.193542004E0,7.096994877E0,3.015919209E0,9.297095433E0
3.490354635E0,5.186360359E0,7.118541241E0,3.001554966E0,9.304907059E0
3.492760260E0,5.160024643E0,7.173605442E0,3.013525486E0,9.336370023E0
3.495165260E0,5.140872002E0,7.190364361E0,3.051830769E0,9.351126971E0
3.497570521E0,5.126507759E0,7.231064320E0,3.085348129E0,9.385560509E0
3.499975729E0,5.116930962E0,7.266975880E0,3.111683369E0,9.416713561E0
3.502381302E0,5.061866760E0,7.302886486E0,3.138018131E0,9.423470906E0
3.504786719E0,5.033137798E0,7.326827526E0,3.154777050E0,9.432258262E0
3.507191771E0,5.018773079E0,7.391468525E0,3.145200729E0,9.471756849E0
3.509597396E0,4.997226238E0,7.401045322E0,3.133230209E0,9.463872013E0
3.512002656E0,4.963708878E0,7.427380085E0,3.106894970E0,9.458180433E0
3.514407656E0,4.939767838E0,7.465685844E0,3.109289169E0,9.476573777E0
3.516812708E0,4.911038876E0,7.494414806E0,3.128441811E0,9.490611376E0
3.519217760E0,4.877521038E0,7.503991127E0,3.161959171E0,9.492000849E0
3.521623490E0,4.851186275E0,7.525537968E0,3.233782291E0,9.519720473E0
3.524028854E0,4.827245235E0,7.525537968E0,3.298422813E0,9.529722521E0
3.526433646E0,4.788939476E0,7.499203205E0,3.367851734E0,9.513906417E0
3.528839323E0,4.769786835E0,7.494414806E0,3.442068577E0,9.527064387E0
3.531245000E0,4.755422115E0,7.489626884E0,3.480374336E0,9.530034411E0
3.533650208E0,4.741057873E0,7.458503246E0,3.470798016E0,9.494911231E0
3.536055365E0,4.714722633E0,7.439350605E0,3.501921177E0,9.478185420E0
3.538460417E0,4.676417351E0,7.405833244E0,3.489950657E0,9.428414547E0
3.540865938E0,4.657264233E0,7.384285927E0,3.547409058E0,9.423475994E0
3.543271302E0,4.628535271E0,7.348374844E0,3.583320618E0,9.394793145E0
3.545676302E0,4.604594231E0,7.331616402E0,3.635990620E0,9.390171185E0
3.548082135E0,4.587835312E0,7.317251682E0,3.722178459E0,9.404521121E0
3.550487813E0,4.525588512E0,7.274157524E0,3.813154221E0,9.377337798E0
3.552892917E0,4.480100632E0,7.255005360E0,3.889765263E0,9.372122398E0
3.555298125E0,4.451371670E0,7.250216484E0,3.971164703E0,9.388849658E0
3.557703177E0,4.413066387E0,7.219093800E0,4.031017303E0,9.372276710E0
3.560108385E0,4.377154827E0,7.207123280E0,4.136357307E0,9.392101049E0
3.562513490E0,4.346031189E0,7.192758083E0,4.205786228E0,9.397467411E0
3.564918385E0,4.314908028E0,7.202334881E0,4.289579868E0,9.428284811E0
3.567324063E0,4.264632225E0,7.204728603E0,4.354220390E0,9.436865871E0
3.569729167E0,4.228720665E0,7.202334881E0,4.378161430E0,9.429952476E0
3.572133802E0,4.226325989E0,7.233458042E0,4.392525673E0,9.459335516E0
3.574539010E0,4.223932266E0,7.264581203E0,4.418860912E0,9.494318070E0
3.576944271E0,4.231114864E0,7.302886486E0,4.394919872E0,9.515766112E0
3.579349948E0,4.252661705E0,7.334010124E0,4.359008312E0,9.532774494E0
3.581755365E0,4.274208069E0,7.379498005E0,4.335067272E0,9.566538228E0
3.584160208E0,4.302937508E0,7.427380085E0,4.272820950E0,9.588443304E0
3.586565781E0,4.362790108E0,7.472867966E0,4.217756748E0,9.626378610E0
3.588971094E0,4.427430630E0,7.499203205E0,4.172268867E0,9.656501343E0
3.591375677E0,4.496859550E0,7.537508488E0,4.136357307E0,9.702846582E0
3.593780365E0,4.542346954E0,7.573420048E0,4.090869427E0,9.732667658E0
3.596185521E0,4.604594231E0,7.611725807E0,4.045381546E0,9.772705339E0
3.598591250E0,4.647687435E0,7.606937885E0,3.940041542E0,9.746303394E0
3.600996406E0,4.690781593E0,7.628484249E0,3.858642101E0,9.751221604E0
3.603401302E0,4.690781593E0,7.633272648E0,3.786818981E0,9.726781650E0
3.605806979E0,4.693175793E0,7.681154728E0,3.789213181E0,9.766482146E0
3.608212396E0,4.705146313E0,7.705095768E0,3.791607380E0,9.791996178E0
3.610617552E0,4.674022675E0,7.729036808E0,3.782030582E0,9.792254759E0
3.613022760E0,4.628535271E0,7.750583172E0,3.829912663E0,9.806279073E0
3.615427760E0,4.580653191E0,7.767342091E0,3.858642101E0,9.808318188E0
3.617833281E0,4.551923752E0,7.800859451E0,3.868218422E0,9.825300595E0
3.620238490E0,4.460947990E0,7.834376812E0,3.882583141E0,9.815903874E0
3.622643542E0,4.408277512E0,7.808041573E0,3.901735783E0,9.778648472E0
3.625049167E0,4.329272747E0,7.834376812E0,3.944829464E0,9.781704455E0
3.627454167E0,4.288573265E0,7.810435772E0,3.920888424E0,9.734892584E0
3.629858906E0,4.209567547E0,7.817618370E0,3.913706303E0,9.703232087E0
3.632263906E0,4.125774384E0,7.827194691E0,3.861036301E0,9.653734630E0
3.634669063E0,4.082680702E0,7.796071053E0,3.853853703E0,9.607246949E0
3.637074844E0,3.979733706E0,7.798465252E0,3.851459980E0,9.564940388E0
3.639480208E0,3.915093184E0,7.805647850E0,3.849065781E0,9.543133677E0
3.641885156E0,3.833693743E0,7.800859451E0,3.817942142E0,9.493539808E0
3.644290885E0,3.749900341E0,7.788888931E0,3.813154221E0,9.448210860E0
3.646696354E0,3.690047979E0,7.764948368E0,3.794001102E0,9.397091125E0
3.649101458E0,3.644560099E0,7.745795250E0,3.789213181E0,9.361532935E0
3.651506563E0,3.589495897E0,7.757765770E0,3.777242661E0,9.345318221E0
3.653911510E0,3.555978298E0,7.719460011E0,3.729360580E0,9.281334756E0
3.656317083E0,3.522461176E0,7.707489491E0,3.635990620E0,9.221364041E0
3.658722500E0,3.508096457E0,7.693125248E0,3.564167976E0,9.175740308E0
3.661127656E0,3.484155416E0,7.695518970E0,3.504315376E0,9.145522262E0
3.663533698E0,3.472184896E0,7.688336849E0,3.516285896E0,9.139521758E0
3.665938906E0,3.429091215E0,7.662001610E0,3.566562176E0,9.120597622E0
3.668343958E0,3.395573854E0,7.657213688E0,3.583320618E0,9.110599866E0
3.670749844E0,3.383603334E0,7.638060570E0,3.578532696E0,9.088159167E0
3.673155521E0,3.371632814E0,7.647637367E0,3.518680096E0,9.068372222E0
3.675561406E0,3.335721493E0,7.638060570E0,3.497132778E0,9.038636225E0
3.677966875E0,3.381209135E0,7.666790009E0,3.425310135E0,9.052347418E0
3.680372188E0,3.364450693E0,7.635666847E0,3.432492733E0,9.022468788E0
3.682778229E0,3.405150175E0,7.664395809E0,3.434886456E0,9.062916517E0
3.685183542E0,3.457820415E0,7.645243168E0,3.449251175E0,9.072133089E0
3.687588594E0,3.512884617E0,7.647637367E0,3.442068577E0,9.092554741E0
3.689994115E0,3.539219618E0,7.640454769E0,3.413339615E0,9.085896318E0
3.692399427E0,3.558372736E0,7.657213688E0,3.336728573E0,9.079025034E0
3.694805156E0,3.575131178E0,7.669184208E0,3.298422813E0,9.081714729E0
3.697210313E0,3.548796177E0,7.681154728E0,3.291240692E0,9.078896274E0
3.699614896E0,3.524855137E0,7.712277889E0,3.331940174E0,9.110744168E0
3.702020313E0,3.467396975E0,7.729036808E0,3.415733814E0,9.133897812E0
3.704425469E0,3.400362253E0,7.769736290E0,3.499527454E0,9.174854651E0
3.706830156E0,3.333327055E0,7.805647850E0,3.573744297E0,9.209280966E0
3.709235313E0,3.263898373E0,7.853529453E0,3.688661098E0,9.270230750E0
3.711640781E0,3.187287092E0,7.858317852E0,3.777242661E0,9.283292551E0
3.714046563E0,3.163346052E0,7.863106251E0,3.932858944E0,9.343584838E0
3.716451771E0,3.141799450E0,7.843953133E0,4.033411026E0,9.363060880E0
3.718856563E0,3.091523409E0,7.848741531E0,3.961587906E0,9.319572917E0
3.721262292E0,3.041247129E0,7.841558933E0,3.853853703E0,9.251563055E0
3.723667656E0,2.979000568E0,7.870288372E0,3.722178459E0,9.201657238E0
3.726072865E0,2.919148207E0,7.855923653E0,3.712602139E0,9.166262997E0
3.728478438E0,2.852113485E0,7.841558933E0,3.755695820E0,9.150401572E0
3.730883490E0,2.758743763E0,7.839165211E0,3.815548420E0,9.144484026E0
3.733288958E0,2.701285124E0,7.877470493E0,3.844277382E0,9.172238074E0
3.735694583E0,2.653403282E0,7.877470493E0,3.868218422E0,9.168326135E0
3.738099896E0,2.591156721E0,7.889441013E0,3.846671581E0,9.151735076E0
3.740505677E0,2.555245161E0,7.925352573E0,3.858642101E0,9.177669100E0
3.742910677E0,2.533698320E0,7.954082012E0,3.906523705E0,9.216722589E0
3.745315469E0,2.504969120E0,7.956475735E0,3.882583141E0,9.200805848E0
3.747720729E0,2.481028080E0,7.954082012E0,3.844277382E0,9.176131515E0
3.750125729E0,2.433146238E0,7.975628376E0,3.808365822E0,9.167033263E0
3.752531094E0,2.366111517E0,7.989993572E0,3.774848461E0,9.148112477E0
3.754936354E0,2.344564438E0,7.985205173E0,3.700631618E0,9.107972246E0
3.757341146E0,2.279923916E0,7.999569416E0,3.662325859E0,9.088662971E0
3.759746354E0,2.263165236E0,7.978023052E0,3.640779018E0,9.056822874E0
3.762151406E0,2.246406317E0,7.970840931E0,3.554591656E0,9.011979157E0
3.764556198E0,2.260771275E0,7.951687336E0,3.516285896E0,8.983578616E0
3.766961250E0,2.255982876E0,7.937323093E0,3.489950657E0,8.959370079E0
3.769366510E0,2.279923916E0,7.908593655E0,3.492344856E0,8.940938388E0
3.771772031E0,2.311047077E0,7.860712051E0,3.449251175E0,8.889829369E0
3.774177135E0,2.313441277E0,7.860712051E0,3.379822254E0,8.863746554E0
3.776581875E0,2.327805996E0,7.827194691E0,3.370245934E0,8.834150504E0
3.778987240E0,2.320623398E0,7.815224171E0,3.382216454E0,8.826234187E0
3.781392396E0,2.320623398E0,7.817618370E0,3.420522213E0,8.843100256E0
3.783797188E0,2.327805996E0,7.820012093E0,3.449251175E0,8.858250592E0
3.786202135E0,2.320623398E0,7.839165211E0,3.485162735E0,8.887303497E0
3.788607240E0,2.334988117E0,7.875076771E0,3.528256416E0,8.939664255E0
3.791012813E0,2.358929157E0,7.891835213E0,3.612049580E0,8.994026460E0
3.793417917E0,2.394840717E0,7.903805733E0,3.717390060E0,9.056732081E0
3.795822813E0,2.402022839E0,7.927746773E0,3.796395302E0,9.112162197E0
3.798228333E0,2.413993359E0,7.970840931E0,3.829912663E0,9.166782428E0
3.800633490E0,2.418781757E0,7.978023052E0,3.851459980E0,9.183305559E0
3.803038333E0,2.409205198E0,8.016327858E0,3.937647343E0,9.250451265E0
3.805443750E0,2.402022839E0,8.030693054E0,3.992711544E0,9.284583465E0
3.807849271E0,2.368505478E0,8.045057297E0,4.074110985E0,9.323687330E0
3.810255052E0,2.332593918E0,8.066603661E0,4.083687305E0,9.337429572E0
3.812660365E0,2.296682358E0,8.088150978E0,4.110022545E0,9.358697635E0
3.815065208E0,2.260771275E0,8.085756302E0,4.153115749E0,9.366905154E0
3.817470677E0,2.205706596E0,8.119274139E0,4.203392506E0,9.405118962E0
3.819875938E0,2.129095554E0,8.116880417E0,4.227333069E0,9.396123693E0
3.822280833E0,2.097972393E0,8.121667862E0,4.270426750E0,9.412731891E0
3.824686042E0,2.047696114E0,8.143215179E0,4.270426750E0,9.420273747E0
3.827091354E0,1.975873590E0,8.148003578E0,4.263244152E0,9.405811472E0
3.829496823E0,1.959114671E0,8.143215179E0,4.258456230E0,9.395984952E0
3.831902031E0,1.870533109E0,8.152791977E0,4.251274109E0,9.382976216E0
3.834307188E0,1.834621549E0,8.124062538E0,4.224938869E0,9.338968723E0
3.836713177E0,1.801104188E0,8.157579422E0,4.200997829E0,9.350853495E0
3.839118750E0,1.789133668E0,8.162367821E0,4.165086269E0,9.336658468E0
3.841523594E0,1.760404587E0,8.176733017E0,4.160298347E0,9.341630986E0
3.843928646E0,1.738857627E0,8.159974098E0,4.174663067E0,9.329341609E0
3.846333802E0,1.717310786E0,8.157579422E0,4.157904148E0,9.315762195E0
3.848739479E0,1.686187387E0,8.169549942E0,4.114810467E0,9.301421361E0
3.851144688E0,1.690975666E0,8.195885658E0,4.083687305E0,9.311736811E0
3.853549323E0,1.662246585E0,8.179126740E0,4.064534187E0,9.283405414E0
3.855954688E0,1.652670026E0,8.181520462E0,4.066928387E0,9.284853353E0
3.858360000E0,1.628728986E0,8.183915138E0,4.078898907E0,9.287983710E0
3.860765052E0,1.573664784E0,8.181520462E0,4.145934105E0,9.306044677E0
3.863170521E0,1.561694264E0,8.176733017E0,4.193815708E0,9.321262897E0
3.865575938E0,1.518600583E0,8.181520462E0,4.141145229E0,9.294757050E0
3.867981771E0,1.506630063E0,8.171944618E0,4.052563667E0,9.245208774E0
3.870387344E0,1.499447823E0,8.217432022E0,3.925676823E0,9.229597571E0
3.872792292E0,1.535359263E0,8.215038300E0,3.827518940E0,9.192066338E0
3.875197813E0,1.542541504E0,8.219825745E0,3.786818981E0,9.180684482E0
3.877603021E0,1.568876624E0,8.219825745E0,3.741331100E0,9.166486106E0
3.880007917E0,1.607182145E0,8.250949860E0,3.770060539E0,9.212739251E0
3.882413177E0,1.662246585E0,8.262920380E0,3.734148979E0,9.218610823E0
3.884818438E0,1.717310786E0,8.277284622E0,3.705419540E0,9.229990846E0
3.887224115E0,1.769980907E0,8.282073021E0,3.703025341E0,9.243265798E0
3.889629427E0,1.801104188E0,8.332348824E0,3.652749538E0,9.274405232E0
3.892034479E0,1.882503629E0,8.396989822E0,3.631202698E0,9.340176177E0
3.894440521E0,1.896868110E0,8.461630821E0,3.600079060E0,9.389242462E0
3.896846250E0,1.927991509E0,8.545423508E0,3.585714817E0,9.465662414E0
3.899251667E0,1.923203349E0,8.602881432E0,3.607261658E0,9.524737094E0
3.901657292E0,1.896868110E0,8.643581390E0,3.652749538E0,9.573514875E0
3.904062708E0,1.851380229E0,8.689069748E0,3.657537937E0,9.607555652E0
3.906468490E0,1.832227588E0,8.741739273E0,3.707813740E0,9.670726249E0
3.908873906E0,1.822651029E0,8.796803474E0,3.765272141E0,9.740794754E0
3.911278958E0,1.746039867E0,8.808774948E0,3.841883183E0,9.767458098E0
3.913684688E0,1.693369746E0,8.789621353E0,3.920888424E0,9.772323708E0
3.916089896E0,1.628728986E0,8.796803474E0,4.031017303E0,9.812523120E0
3.918494583E0,1.561694264E0,8.756104469E0,4.086081505E0,9.787967946E0
3.920899688E0,1.497053623E0,8.732163429E0,4.121993065E0,9.771523655E0
3.923305104E0,1.473112702E0,8.715404510E0,4.110022545E0,9.747852181E0
3.925710833E0,1.434807062E0,8.679493904E0,4.102839947E0,9.706986214E0
3.928115781E0,1.413260102E0,8.655552864E0,4.110022545E0,9.685462551E0
3.930520260E0,1.360589981E0,8.629217148E0,4.086081505E0,9.644203220E0
3.932925469E0,1.305525780E0,8.593305588E0,4.059746265E0,9.593270466E0
3.935330625E0,1.250461578E0,8.569364548E0,4.026228905E0,9.550297488E0
3.937735417E0,1.161879778E0,8.535847664E0,3.987923145E0,9.492849465E0
3.940140365E0,1.039780736E0,8.519088745E0,3.940041542E0,9.443513349E0
3.942545677E0,9.511991739E-1,8.466418266E0,3.858642101E0,9.352760929E0
3.944951771E0,8.674057722E-1,8.471206665E0,3.712602139E0,9.289625922E0
3.947357292E0,7.931885719E-1,8.454447746E0,3.545014858E0,9.201845747E0
3.949762083E0,7.429125309E-1,8.461630821E0,3.396581173E0,9.148107938E0
3.952167604E0,7.237597704E-1,8.468812943E0,3.348699093E0,9.135557261E0
3.954573021E0,7.405184507E-1,8.480782509E0,3.312787533E0,9.134911098E0
3.956978125E0,8.123413324E-1,8.502329826E0,3.260117054E0,9.142093531E0
3.959383594E0,8.697997332E-1,8.557394028E0,3.205052853E0,9.179210637E0
3.961789115E0,9.679577351E-1,8.583729744E0,3.102106571E0,9.178258205E0
3.964194740E0,1.078086376E0,8.643581390E0,3.008737087E0,9.215544929E0
3.966599896E0,1.176244378E0,8.672310829E0,2.944096088E0,9.233646502E0
3.969004792E0,1.283978939E0,8.691463470E0,2.905790806E0,9.253851057E0
3.971410313E0,1.339043140E0,8.736951828E0,2.910579205E0,9.305849509E0
3.973815417E0,1.348619580E0,8.777651787E0,2.929731846E0,9.351431674E0
3.976219896E0,1.382136941E0,8.818350792E0,2.951278687E0,9.401258378E0
3.978624844E0,1.358195901E0,8.820744514E0,3.035071850E0,9.426658529E0
3.981030156E0,1.346225381E0,8.835109711E0,3.116471291E0,9.464876105E0
3.983435677E0,1.329466820E0,8.815957069E0,3.209841251E0,9.475846238E0
3.985840625E0,1.274402499E0,8.794409752E0,3.367851734E0,9.503061081E0
3.988245469E0,1.228914618E0,8.780045509E0,3.494739056E0,9.529566168E0
3.990651042E0,1.161879778E0,8.768074989E0,3.600079060E0,9.549328399E0
3.993055938E0,1.090056896E0,8.722586632E0,3.686266899E0,9.532067207E0
3.995460573E0,1.025416136E0,8.677098274E0,3.722178459E0,9.497269355E0
3.997865885E0,9.655637741E-1,8.657946587E0,3.741331100E0,9.481029000E0
4.000271042E0,9.320464134E-1,8.610064507E0,3.736543179E0,9.432055781E0
4.002676563E0,9.296523333E-1,8.588518143E0,3.738936901E0,9.413105040E0
4.005081875E0,9.464108944E-1,8.571758270E0,3.753301620E0,9.405211666E0
4.007486875E0,9.607754946E-1,8.554999352E0,3.693449020E0,9.367639464E0
4.009892708E0,9.799282551E-1,8.552605629E0,3.578532696E0,9.322725926E0
4.012298021E0,1.001475334E0,8.554999352E0,3.477980137E0,9.289096435E0
4.014702865E0,1.049357176E0,8.540636063E0,3.351092815E0,9.234361802E0
4.017108125E0,1.018233895E0,8.528664589E0,3.336728573E0,9.214590469E0
4.019513542E0,1.030204415E0,8.557394028E0,3.331940174E0,9.240786709E0
4.021919167E0,1.015839815E0,8.574152946E0,3.377428055E0,9.271194613E0
4.024324479E0,9.966870546E-1,8.550211906E0,3.389398575E0,9.251352951E0
4.026729479E0,9.679577351E-1,8.581335068E0,3.394186974E0,9.278833921E0
4.029135104E0,9.248640537E-1,8.586123466E0,3.427704334E0,9.291181125E0
4.031540260E0,8.817702532E-1,8.612458229E0,3.487556934E0,9.333542141E0
4.033945000E0,8.243118525E-1,8.643581390E0,3.568955898E0,9.387674658E0
4.036350156E0,7.764298916E-1,8.622035027E0,3.612049580E0,9.380257648E0
4.038755208E0,7.572771311E-1,8.631611824E0,3.669508457E0,9.409754707E0
4.041160938E0,7.213656902E-1,8.681887627E0,3.738936901E0,9.480252653E0
4.043566354E0,7.189716101E-1,8.657946587E0,3.786818981E0,9.477180871E0
4.045971198E0,7.117892504E-1,8.669917107E0,3.825124741E0,9.502930382E0
4.048376979E0,6.998187304E-1,8.693858147E0,3.861036301E0,9.538370775E0
4.050806823E0,6.998187304E-1,8.693858147E0,3.861036301E0,9.538370775E0
4.053260208E0,6.998187304E-1,8.693858147E0,3.861036301E0,9.538370775E0
4.055713646E0,6.998187304E-1,8.693858147E0,3.861036301E0,9.538370775E0
4.058167083E0,6.998187304E-1,8.693858147E0,3.861036301E0,9.538370775E0
4.060624010E0,6.663013697E-1,8.648369789E0,3.861036301E0,9.494517304E0
4.063085260E0,6.615132093E-1,8.655552864E0,3.887371063E0,9.511458820E0
4.065548073E0,6.256016493E-1,8.648369789E0,3.887371063E0,9.502490790E0
4.068012396E0,6.112370491E-1,8.641187668E0,3.846671581E0,9.478429052E0
