"Time (s)","Acceleration x (m/s^2)","Acceleration y (m/s^2)","Acceleration z (m/s^2)","Absolute acceleration (m/s^2)"
1.090762000E-2,1.473112702E0,-2.989343882E0,9.348309517E0,9.924571966E0
1.331058900E-2,1.473112702E0,-2.989343882E0,9.348309517E0,9.924571966E0
1.573861000E-2,1.391713262E0,-3.070743322E0,9.391404152E0,9.978216389E0
1.819168200E-2,1.391713262E0,-3.070743322E0,9.391404152E0,9.978216389E0
2.064491200E-2,1.362984180E0,-3.135383844E0,9.439286232E0,1.003934671E1
2.309845300E-2,1.310313940E0,-3.166507006E0,9.475197792E0,1.007586534E1
2.555209900E-2,1.283978939E0,-3.221571207E0,9.508714676E0,1.012140197E1
2.800569300E-2,1.252855539E0,-3.240724325E0,9.542231560E0,1.015510336E1
3.045933900E-2,1.245673299E0,-3.252694845E0,9.609267235E0,1.022104410E1
3.291298500E-2,1.243279219E0,-3.286211967E0,9.697849274E0,1.031470857E1
3.536668200E-2,1.216944218E0,-3.264665127E0,9.774459839E0,1.037685197E1
3.782043200E-2,1.183426738E0,-3.257482767E0,9.819948196E0,1.041360050E1
4.027413000E-2,1.166668057E0,-3.200024605E0,9.853465080E0,1.042554775E1
4.272782800E-2,1.193003178E0,-3.135383844E0,9.942047119E0,1.049276843E1
4.518157800E-2,1.219338179E0,-3.075531244E0,1.002344608E1,1.055533748E1
4.763527600E-2,1.224126458E0,-3.020467043E0,1.007851124E1,1.059236024E1
5.008897400E-2,1.216944218E0,-2.960614681E0,1.014793873E1,1.064081073E1
5.254267200E-2,1.200185418E0,-2.891185760E0,1.028679657E1,1.075256173E1
5.499637000E-2,1.202579498E0,-2.850486040E0,1.040171432E1,1.085205644E1
5.745006800E-2,1.202579498E0,-2.759510279E0,1.050465965E1,1.092744109E1
5.990376600E-2,1.159485817E0,-2.706840038E0,1.055493546E1,1.095801318E1
6.235746400E-2,1.185820818E0,-2.646987915E0,1.062436485E1,1.101316687E1
6.481116200E-2,1.190608978E0,-2.594317675E0,1.074167633E1,1.111447904E1
6.726486000E-2,1.166668057E0,-2.536859035E0,1.081349850E1,1.116819224E1
6.971855700E-2,1.183426738E0,-2.465036392E0,1.082068062E1,1.116082579E1
7.217225500E-2,1.209761739E0,-2.443489313E0,1.078477001E1,1.112409222E1
7.462595300E-2,1.226520538E0,-2.412366152E0,1.074167633E1,1.107734054E1
7.707965100E-2,1.233702779E0,-2.405183792E0,1.068421745E1,1.102086359E1
7.953334900E-2,1.279190660E0,-2.390819073E0,1.060999966E1,1.095100166E1
8.198704700E-2,1.274402499E0,-2.388425112E0,1.052860069E1,1.087106751E1
8.444069300E-2,1.315102220E0,-2.383636713E0,1.045438385E1,1.080302548E1
8.689433900E-2,1.336649060E0,-2.381242752E0,1.038016701E1,1.073335059E1
8.934798500E-2,1.348619580E0,-2.378848553E0,1.028200912E1,1.063942700E1
9.180163000E-2,1.317496300E0,-2.371666431E0,1.016230392E1,1.051822320E1
9.425527600E-2,1.283978939E0,-2.393213272E0,1.008329868E1,1.044265215E1
9.670892200E-2,1.216944218E0,-2.417154312E0,1.001626396E1,1.037540997E1
9.916256800E-2,1.159485817E0,-2.429124832E0,9.949229240E0,1.030690144E1
1.016162140E-1,1.078086376E0,-2.457853794E0,9.865435600E0,1.022399800E1
1.040698600E-1,9.966870546E-1,-2.486582994E0,9.740942955E0,1.010259619E1
1.065235050E-1,9.200758934E-1,-2.517706394E0,9.717001915E0,1.007995592E1
1.089771510E-1,8.865585327E-1,-2.565588236E0,9.728971481E0,1.010055024E1
1.114307970E-1,8.458588123E-1,-2.575164795E0,9.690667152E0,1.006260308E1
1.138844430E-1,8.506469727E-1,-2.563194275E0,9.582931519E0,9.956211210E0
1.163380890E-1,8.626174927E-1,-2.517706394E0,9.479986191E0,9.846476152E0
1.187916820E-1,9.464108944E-1,-2.443489313E0,9.365068436E0,9.724754003E0
1.212452760E-1,1.075692296E0,-2.383636713E0,9.290851593E0,9.651878637E0
1.236989220E-1,1.216944218E0,-2.326178551E0,9.276487350E0,9.640813111E0
1.261525680E-1,1.396501541E0,-2.268720150E0,9.262123108E0,9.637646608E0
1.286062140E-1,1.602393985E0,-2.184926510E0,9.264516830E0,9.652608064E0
1.310598600E-1,1.817862868E0,-2.132256508E0,9.324368477E0,9.736271911E0
1.335135050E-1,2.023755074E0,-2.093950987E0,9.310005188E0,9.754814808E0
1.359671510E-1,2.203312635E0,-2.067615747E0,9.274092674E0,9.753892371E0
1.384200680E-1,2.332593918E0,-2.065221786E0,9.264516830E0,9.774323890E0
1.408493910E-1,2.399628639E0,-2.077192307E0,9.219028473E0,9.750047768E0
1.432549640E-1,2.406811237E0,-2.125074148E0,9.204665184E0,9.748566131E0
1.456602760E-1,2.354140997E0,-2.168168068E0,9.168752670E0,9.711279943E0
1.480659530E-1,2.234436035E0,-2.247173309E0,9.197482109E0,9.728112326E0
1.504713180E-1,2.117125273E0,-2.285478830E0,9.245364189E0,9.756146365E0
1.528771510E-1,1.997420192E0,-2.309419870E0,9.290851593E0,9.779725501E0
1.552827760E-1,1.868138909E0,-2.345331430E0,9.355492592E0,9.824243693E0
1.576879320E-1,1.750828147E0,-2.359695911E0,9.374646187E0,9.824334844E0
1.600939220E-1,1.695763946E0,-2.333360910E0,9.355492592E0,9.790067933E0
1.624993910E-1,1.683793426E0,-2.295055389E0,9.307610512E0,9.733141989E0
1.649046510E-1,1.700551987E0,-2.239990711E0,9.178328514E0,9.599539039E0
1.673103280E-1,1.736463547E0,-2.168168068E0,9.092142105E0,9.507013542E0
1.697161100E-1,1.789133668E0,-2.084374666E0,8.989195824E0,9.399535020E0
1.721224640E-1,1.870533109E0,-2.007763147E0,8.943707466E0,9.355207652E0
1.745280890E-1,1.980661511E0,-1.959881186E0,8.972436905E0,9.395146529E0
1.769332450E-1,2.093184233E0,-1.890452504E0,8.934130669E0,9.368773757E0
1.793388180E-1,2.172189474E0,-1.823417544E0,8.857520103E0,9.300479613E0
1.817440260E-1,2.260771275E0,-1.775535703E0,8.804849625E0,9.262234649E0
1.841489740E-1,2.363717318E0,-1.727653742E0,8.756967545E0,9.233440723E0
1.865542870E-1,2.466663361E0,-1.667801261E0,8.737814903E0,9.231218688E0
1.889597550E-1,2.581580162E0,-1.643860221E0,8.728239059E0,9.249269681E0
1.913653800E-1,2.715649843E0,-1.591190100E0,8.874279022E0,9.415915684E0
1.937706410E-1,2.813807964E0,-1.538519859E0,8.929343224E0,9.487767336E0
1.961759530E-1,2.962241888E0,-1.509790659E0,9.096929550E0,9.685477380E0
1.985820470E-1,3.105887890E0,-1.469091058E0,9.245364189E0,9.863139820E0
2.009874640E-1,3.235169172E0,-1.418814898E0,9.360280991E0,1.000470967E1
2.033923600E-1,3.364450693E0,-1.402056217E0,9.439286232E0,1.011856782E1
2.057979320E-1,3.491338015E0,-1.330233335E0,9.503927231E0,1.021193393E1
2.082037660E-1,3.594284058E0,-1.308686495E0,9.604478836E0,1.033815999E1
2.106097550E-1,3.673289299E0,-1.287139416E0,9.661936760E0,1.041646793E1
2.130153280E-1,3.757082701E0,-1.251228094E0,9.757700920E0,1.053062056E1
2.154205890E-1,3.797782421E0,-1.227287054E0,9.805583000E0,1.058672956E1
2.178265260E-1,3.809752941E0,-1.232075214E0,9.863041878E0,1.064480258E1
2.202323070E-1,3.802570581E0,-1.227287054E0,9.836707115E0,1.061727759E1
2.226375160E-1,3.757082701E0,-1.227287054E0,9.788825035E0,1.055665664E1
2.250429850E-1,3.658924580E0,-1.248834014E0,9.714608192E0,1.045566487E1
2.274485570E-1,3.611042738E0,-1.275169134E0,9.523079872E0,1.026424553E1
2.298546510E-1,3.520066977E0,-1.346991897E0,9.585326195E0,1.029969596E1
2.322602760E-1,3.493731976E0,-1.373327136E0,9.491955757E0,1.020732162E1
2.346653800E-1,3.448243856E0,-1.411632657E0,8.910189629E0,9.657876147E0
2.370715260E-1,3.429091215E0,-1.461908698E0,9.389009476E0,1.010194746E1
2.394772030E-1,3.488943577E0,-1.483455539E0,8.642050743E0,9.437076277E0
2.418824640E-1,3.488943577E0,-1.519367099E0,8.893431664E0,9.673382574E0
2.442878280E-1,3.551190138E0,-1.509790659E0,8.634868622E0,9.457873722E0
2.466929320E-1,3.591889858E0,-1.471485138E0,8.208719254E0,9.080198954E0
2.490987660E-1,3.625407457E0,-1.452332377E0,8.610927582E0,9.455206100E0
2.515042350E-1,3.704412699E0,-1.414026737E0,7.847210407E0,8.792090550E0
2.539093910E-1,3.737929821E0,-1.392479777E0,8.175201416E0,9.096429930E0
2.563155890E-1,3.783417940E0,-1.318262815E0,7.835239887E0,8.800173422E0
2.587210570E-1,3.790600061E0,-1.270380855E0,7.557524204E0,8.549777099E0
2.611263180E-1,3.814541101E0,-1.253622055E0,7.942974091E0,8.900175811E0
2.635322030E-1,3.821723461E0,-1.188981414E0,7.251080036E0,8.282355263E0
2.659377760E-1,3.792994261E0,-1.172222853E0,7.720323563E0,8.681261878E0
2.683437140E-1,3.852846861E0,-1.102793932E0,7.332479477E0,8.356185653E0
2.707491300E-1,3.828905582E0,-1.086035252E0,7.186439514E0,8.214919562E0
2.731542870E-1,3.864817381E0,-1.050123811E0,7.500065804E0,8.502385575E0
2.755605890E-1,3.962975264E0,-1.009424090E0,6.781836510E0,7.919432832E0
2.779662660E-1,4.051557064E0,-9.735126495E-1,7.315720558E0,8.419181006E0
2.803712660E-1,4.223932266E0,-9.447834492E-1,6.896753311E0,8.142445934E0
2.827767350E-1,4.372365952E0,-9.423893094E-1,6.913511753E0,8.234216805E0
2.851820470E-1,4.571076870E0,-9.136601686E-1,7.255867958E0,8.624218137E0
2.875878800E-1,4.750634193E0,-9.136601686E-1,6.724378109E0,8.283752839E0
2.899936100E-1,4.899068356E0,-8.921132684E-1,7.322902679E0,8.855599386E0
2.923988700E-1,5.083413601E0,-8.394430876E-1,6.808171272E0,8.537971340E0
2.948049120E-1,5.207906723E0,-8.155021667E-1,6.908723831E0,8.690097882E0
2.972106410E-1,5.365917206E0,-7.628319263E-1,7.160103798E0,8.980092784E0
2.996159530E-1,5.488016129E0,-7.245264053E-1,6.760289192E0,8.737549399E0
3.020217870E-1,5.564627647E0,-6.981912851E-1,7.543159962E0,9.399564571E0
3.044277760E-1,5.703485012E0,-6.431270242E-1,7.196015358E0,9.204672220E0
3.068340780E-1,5.717849731E0,-6.646738648E-1,7.614983082E0,9.545866343E0
3.092397030E-1,5.756155491E0,-6.335506439E-1,7.794540405E0,9.710281797E0
3.116446510E-1,5.777702332E0,-6.120036840E-1,7.339661598E0,9.360930783E0
3.140503800E-1,5.744184971E0,-6.694620848E-1,7.904668808E0,9.794265129E0
3.164555890E-1,5.768126011E0,-6.287623644E-1,7.234321594E0,9.273727876E0
3.188604320E-1,5.727426052E0,-6.527034044E-1,7.564706802E0,9.510742343E0
3.212660570E-1,5.727426052E0,-6.239742041E-1,7.478519440E0,9.440392259E0
3.236717350E-1,5.708273888E0,-6.335506439E-1,7.018852234E0,9.069182095E0
3.260775160E-1,5.667573452E0,-6.407328844E-1,7.471336842E0,9.399617102E0
3.284828280E-1,5.629268169E0,-6.407328844E-1,6.671708107E0,8.752764581E0
3.308878800E-1,5.564627647E0,-6.934030652E-1,6.990122795E0,8.961456654E0
3.332937140E-1,5.519139767E0,-7.005853653E-1,6.736348152E0,8.736710482E0
3.356994430E-1,5.476045609E0,-7.364968657E-1,6.279076099E0,8.363988271E0
3.381046510E-1,5.430558205E0,-7.700142860E-1,6.592702866E0,8.575990642E0
3.405100160E-1,5.404222965E0,-7.987434268E-1,5.675762653E0,7.877683582E0
3.429154850E-1,5.325217724E0,-8.585959077E-1,5.948689938E0,8.030071152E0
3.453212660E-1,5.327611446E0,-8.801427484E-1,5.517752171E0,7.720342220E0
3.477265780E-1,5.284518242E0,-9.376011491E-1,5.110755444E0,7.411143648E0
3.501317870E-1,5.248606682E0,-9.759067893E-1,5.371712208E0,7.573345245E0
3.525375160E-1,5.236636162E0,-1.014212251E0,4.454772472E0,6.949531104E0
3.549426720E-1,5.179177761E0,-1.066882491E0,4.806704998E0,7.146085185E0
3.573474640E-1,5.210300922E0,-1.069276571E0,4.256062508E0,6.812096311E0
3.597527760E-1,5.212695122E0,-1.131523132E0,4.014258385E0,6.675837431E0
3.621581930E-1,5.224665642E0,-1.143493533E0,4.284791470E0,6.853039214E0
3.645639220E-1,5.260577202E0,-1.133917212E0,3.437280655E0,6.385478764E0
3.669692350E-1,5.272547722E0,-1.167434573E0,3.865824223E0,6.641329677E0
3.693740780E-1,5.368311882E0,-1.169828653E0,3.233782291E0,6.375313282E0
3.717797550E-1,5.435346127E0,-1.193769693E0,3.078165531E0,6.359494998E0
3.741852760E-1,5.523927689E0,-1.212922454E0,3.171535969E0,6.484103515E0
3.765905890E-1,5.638844490E0,-1.179405093E0,2.338389397E0,6.217365079E0
3.789961100E-1,5.705879211E0,-1.208134174E0,2.819603443E0,6.478179477E0
3.814015780E-1,5.839949131E0,-1.186587334E0,2.175590515E0,6.343988449E0
3.838076200E-1,5.952471733E0,-1.215316534E0,2.175590515E0,6.453069665E0
3.862131930E-1,6.069782257E0,-1.210528374E0,2.283325195E0,6.597060674E0
3.886184010E-1,6.220610619E0,-1.193769693E0,1.596218705E0,6.532151001E0
3.910242870E-1,6.323556423E0,-1.236863494E0,2.209107876E0,6.811560375E0
3.934296510E-1,6.464808464E0,-1.217710733E0,1.486090064E0,6.744259158E0
3.958348600E-1,6.558178425E0,-1.253622055E0,1.687194467E0,6.886791537E0
3.982404320E-1,6.661124706E0,-1.263198614E0,1.759017348E0,7.004312609E0
4.006457970E-1,6.773647785E0,-1.263198614E0,1.234709740E0,7.000177369E0
4.030516820E-1,6.898140430E0,-1.277563095E0,1.845204949E0,7.254053361E0
4.054571510E-1,7.065727711E0,-1.265592575E0,1.167675018E0,7.272530343E0
4.078620990E-1,7.266831875E0,-1.303898215E0,1.610583305E0,7.556518685E0
4.102680370E-1,7.542153358E0,-1.272774935E0,1.732682347E0,7.842590225E0
4.126733490E-1,7.827050686E0,-1.251228094E0,1.426237702E0,8.053722628E0
4.150780370E-1,8.143072128E0,-1.246439815E0,2.082220554E0,8.496992311E0
4.174832450E-1,8.456698418E0,-1.215316534E0,1.404690862E0,8.658284982E0
4.198883490E-1,8.734414101E0,-1.203346133E0,1.873934150E0,9.013859373E0
4.222938180E-1,9.031281471E0,-1.172222853E0,1.770987868E0,9.277637062E0
4.246988180E-1,9.311391830E0,-1.160252333E0,1.478907824E0,9.499230055E0
4.271037140E-1,9.569954872E0,-1.198557854E0,2.173196316E0,9.886524132E0
4.295095470E-1,9.876399040E0,-1.162646294E0,1.533972144E0,1.006221024E1
4.319149120E-1,1.020678425E1,-1.167434573E0,2.223472595E0,1.051119301E1
4.343197550E-1,1.054435253E1,-1.141099453E0,2.149255276E0,1.082149604E1
4.367248070E-1,1.092740822E1,-1.100399852E0,2.122920513E0,1.118596986E1
4.391300680E-1,1.125061131E1,-1.107582092E0,2.953672886E0,1.168448443E1
4.415358490E-1,1.165042591E1,-1.081246972E0,2.422182560E0,1.194857679E1
4.439412660E-1,1.195447636E1,-1.095611691E0,3.274481773E0,1.244315478E1
4.463464220E-1,1.228246784E1,-1.052517891E0,3.135624409E0,1.272002164E1
4.487522030E-1,1.252427197E1,-1.088429332E0,3.209841251E0,1.297478892E1
4.511575680E-1,1.275410557E1,-1.107582092E0,3.856247902E0,1.337028776E1
4.535626200E-1,1.294563389E1,-1.100399852E0,3.272087574E0,1.339801753E1
4.559681930E-1,1.301266861E1,-1.169828653E0,4.143539906E0,1.370645710E1
4.583738700E-1,1.306533909E1,-1.212922454E0,3.832306862E0,1.366970527E1
4.607799120E-1,1.299351597E1,-1.279957175E0,4.033411026E0,1.366521687E1
4.631854850E-1,1.286423397E1,-1.327839255E0,4.607995033E0,1.372899454E1
4.655905890E-1,1.267270660E1,-1.378115177E0,4.102839947E0,1.339141478E1
4.679965260E-1,1.243329620E1,-1.481061459E0,5.017385960E0,1.348905332E1
4.704018910E-1,1.220106888E1,-1.526549339E0,4.631936073E0,1.313968289E1
4.728069430E-1,1.190898895E1,-1.627101541E0,4.902468681E0,1.298097363E1
4.752127240E-1,1.164324379E1,-1.730047822E0,5.228066444E0,1.287986297E1
4.776185570E-1,1.139665127E1,-1.816235304E0,4.713335514E0,1.246586950E1
4.800249120E-1,1.111893559E1,-1.943122625E0,5.520146370E0,1.256496996E1
4.824308490E-1,1.093219662E1,-2.000581026E0,4.909651279E0,1.214989395E1
4.848361100E-1,1.075263882E1,-2.122680187E0,5.180184364E0,1.212267804E1
4.872420990E-1,1.067123985E1,-2.175350428E0,5.096390724E0,1.202417182E1
4.896475680E-1,1.060659885E1,-2.225626230E0,4.232121468E0,1.163461230E1
4.920527240E-1,1.050604630E1,-2.309419870E0,4.663058758E0,1.172410107E1
4.944582970E-1,1.043901157E1,-2.326178551E0,3.765272141E0,1.133848948E1
4.968637660E-1,1.033367157E1,-2.398001671E0,4.004682064E0,1.133898843E1
4.992697030E-1,1.030973053E1,-2.409971714E0,3.844277382E0,1.126396803E1
5.016753280E-1,1.030733681E1,-2.417154312E0,3.255329132E0,1.107614530E1
5.040805890E-1,1.033367157E1,-2.453065872E0,3.851459980E0,1.129761233E1
5.064867350E-1,1.044380093E1,-2.414760113E0,2.975219727E0,1.112456636E1
5.088925680E-1,1.051083469E1,-2.412366152E0,3.396581173E0,1.130636635E1
5.112978280E-1,1.070475674E1,-2.335754871E0,3.171535969E0,1.140641083E1
5.137031930E-1,1.090586185E1,-2.271114349E0,2.709474564E0,1.146459923E1
5.161086620E-1,1.109499550E1,-2.213655710E0,3.200264931E0,1.175758871E1
5.185147030E-1,1.132722282E1,-2.108315468E0,2.288113117E0,1.174676265E1
5.209205890E-1,1.144453335E1,-2.048463106E0,2.687927723E0,1.193308427E1
5.233260050E-1,1.163366795E1,-1.928757906E0,2.273748875E0,1.200967405E1
5.257319430E-1,1.171267223E1,-1.835388064E0,1.912239671E0,1.200883012E1
5.281375680E-1,1.175337315E1,-1.773141623E0,2.355147839E0,1.211744746E1
5.305426200E-1,1.178210163E1,-1.653436542E0,1.519607544E0,1.199420603E1
5.329481930E-1,1.166239643E1,-1.600766420E0,2.146861553E0,1.196590816E1
5.353539220E-1,1.158817959E1,-1.478667498E0,1.749441028E0,1.181240482E1
5.377597550E-1,1.139904594E1,-1.409238577E0,1.687194467E0,1.160908381E1
5.401653800E-1,1.125061131E1,-1.330233335E0,2.185166836E0,1.153779570E1
5.425706930E-1,1.108541870E1,-1.260804415E0,1.529183984E0,1.126119617E1
5.449764740E-1,1.087952709E1,-1.229681253E0,2.355147839E0,1.119923868E1
5.473821510E-1,1.073109150E1,-1.179405093E0,1.905057549E0,1.096250726E1
5.497878280E-1,1.053477573E1,-1.167434573E0,2.005609512E0,1.078734781E1
5.521938180E-1,1.038155365E1,-1.150675774E0,2.335995197E0,1.070315769E1
5.545999120E-1,1.024030209E1,-1.131523132E0,1.536366224E0,1.041655186E1
5.570065260E-1,1.004638004E1,-1.155464053E0,2.170802593E0,1.034297989E1
5.594125680E-1,9.883582115E0,-1.124340773E0,1.402296782E0,1.004568434E1
5.618179320E-1,9.680082321E0,-1.165040493E0,1.404690862E0,9.850607571E0
5.642240780E-1,9.529254913E0,-1.193769693E0,1.488484263E0,9.718403711E0
5.666299120E-1,9.380820274E0,-1.193769693E0,7.391313910E-1,9.485314455E0
5.690352760E-1,9.220416069E0,-1.253622055E0,1.356808901E0,9.403646694E0
5.714412140E-1,9.103104591E0,-1.284745455E0,5.667562485E-1,9.210770691E0
5.738475160E-1,8.971429825E0,-1.330233335E0,7.846192718E-1,9.103389546E0
5.762539220E-1,8.866089821E0,-1.368538857E0,7.726487517E-1,9.004300828E0
5.786596510E-1,8.787083626E0,-1.428391337E0,1.621535718E-1,8.903899946E0
5.810649120E-1,8.710473061E0,-1.485849738E0,8.348953128E-1,8.875648741E0
5.834709530E-1,8.712866783E0,-1.526549339E0,3.526633978E-2,8.845656798E0
5.858767350E-1,8.672167778E0,-1.588795900E0,4.614159465E-1,8.828571292E0
5.882823070E-1,8.734414101E0,-1.634283781E0,4.278985262E-1,8.896289693E0
5.906883490E-1,8.734414101E0,-1.720471382E0,4.005452991E-2,8.902337661E0
5.930942350E-1,8.763142586E0,-1.768353343E0,7.894074321E-1,8.974569941E0
5.955004850E-1,8.822996140E0,-1.801870704E0,9.751290083E-2,9.005637550E0
5.979060050E-1,8.827783585E0,-1.866511464E0,7.606782317E-1,9.054957727E0
6.003111100E-1,8.849330902E0,-1.873693705E0,6.816729903E-1,9.071166605E0
6.027173070E-1,8.861300468E0,-1.911999345E0,5.308447480E-1,9.080758979E0
6.051230370E-1,8.868483543E0,-1.969457746E0,1.268227100E0,9.172631255E0
6.075283490E-1,8.911576271E0,-1.945516706E0,6.768848300E-1,9.146551260E0
6.099342870E-1,8.899606705E0,-1.974245787E0,1.459755182E0,9.232092456E0
6.123398600E-1,8.935517311E0,-1.945516706E0,1.270621300E0,9.232712676E0
6.147453280E-1,8.990582466E0,-1.928757906E0,1.284985900E0,9.284496158E0
6.171506930E-1,9.009735107E0,-1.933546185E0,1.945757031E0,9.418062326E0
6.195557450E-1,9.103104591E0,-1.897634745E0,1.337656021E0,9.394511933E0
6.219617870E-1,9.115076065E0,-1.883270025E0,2.149255276E0,9.552518825E0
6.243673070E-1,9.210839272E0,-1.837782264E0,1.821264029E0,9.567340613E0
6.267723070E-1,9.237174988E0,-1.840176344E0,1.957727551E0,9.619997292E0
6.291780370E-1,9.301815987E0,-1.818629503E0,2.527523041E0,9.809157285E0
6.315839740E-1,9.373639107E0,-1.780323863E0,1.933786511E0,9.735203821E0
6.339905370E-1,9.378426552E0,-1.787506223E0,2.800450325E0,9.949501752E0
6.363968390E-1,9.414338112E0,-1.732441783E0,2.350359917E0,9.856739235E0
6.388026200E-1,9.419125557E0,-1.756382823E0,2.582587719E0,9.923435202E0
6.412089740E-1,9.433490753E0,-1.732441783E0,2.970431328E0,1.004069542E1
6.436144950E-1,9.464613914E0,-1.722865462E0,2.405424118E0,9.916312174E0
6.460195470E-1,9.502920151E0,-1.744412303E0,3.202659130E0,1.017867826E1
6.484250680E-1,9.548407555E0,-1.706106782E0,2.573010921E0,1.003510201E1
6.508305890E-1,9.562771797E0,-1.722865462E0,2.795662403E0,1.011091480E1
6.532364740E-1,9.608260155E0,-1.725259542E0,2.901002407E0,1.018385971E1
6.556420990E-1,9.663323402E0,-1.744412303E0,2.259384155E0,1.007609102E1
6.580472550E-1,9.687264442E0,-1.799476743E0,2.903396606E0,1.027185089E1
6.604532970E-1,9.780634880E0,-1.823417544E0,2.142073154E0,1.017713848E1
6.628593390E-1,9.730359077E0,-1.878481984E0,2.462882519E0,1.021148239E1
6.652649120E-1,9.783028603E0,-1.916787505E0,2.470064640E0,1.027048890E1
6.676708490E-1,9.821334839E0,-1.959881186E0,2.012792110E0,1.021523785E1
6.700768390E-1,9.857245445E0,-2.022127867E0,2.824391365E0,1.045138629E1
6.724830890E-1,9.878792763E0,-2.058039427E0,2.166014194E0,1.032074078E1
6.748891820E-1,9.876399040E0,-2.125074148E0,2.783691883E0,1.047893786E1
6.772952240E-1,9.902733803E0,-2.134650469E0,2.831573963E0,1.051849231E1
6.797018910E-1,9.917098999E0,-2.172955990E0,2.628075123E0,1.048700954E1
6.821080370E-1,9.902733803E0,-2.192109108E0,3.430098057E0,1.070677598E1
6.845139220E-1,9.931463242E0,-2.192109108E0,2.821997166E0,1.055476065E1
6.869200160E-1,9.881186485E0,-2.237596750E0,3.535438538E0,1.073051775E1
6.893260570E-1,9.878792763E0,-2.216049910E0,3.394186974E0,1.067810512E1
6.917324640E-1,9.850063324E0,-2.220838070E0,3.293634892E0,1.062091804E1
6.941383490E-1,9.821334839E0,-2.228020430E0,3.940041542E0,1.081418607E1
6.965438700E-1,9.850063324E0,-2.182532549E0,3.212235451E0,1.058799567E1
6.989499640E-1,9.795000076E0,-2.158591509E0,3.892159462E0,1.075873827E1
7.013554850E-1,9.809363365E0,-2.089162588E0,3.451645374E0,1.060669910E1
7.037608490E-1,9.778240204E0,-2.070009947E0,3.315181732E0,1.053040135E1
7.061665780E-1,9.759087563E0,-2.031704187E0,3.693449020E0,1.063057748E1
7.085722030E-1,9.725570679E0,-1.950304866E0,2.857908726E0,1.032269618E1
7.109786620E-1,9.704023361E0,-1.940728426E0,3.475586414E0,1.048876528E1
7.133847030E-1,9.704023361E0,-1.866511464E0,2.850726604E0,1.028487125E1
7.157900680E-1,9.699235916E0,-1.840176344E0,2.812420845E0,1.026504444E1
7.181962660E-1,9.670506477E0,-1.789900184E0,3.082953930E0,1.030665043E1
7.206018910E-1,9.665719032E0,-1.770747423E0,2.328813076E0,1.009876434E1
7.230070990E-1,9.598683357E0,-1.775535703E0,3.042254448E0,1.022460568E1
7.254125680E-1,9.627412796E0,-1.744412303E0,2.434153080E0,1.008241800E1
7.278179850E-1,9.593895912E0,-1.765959263E0,2.546676159E0,1.008201420E1
7.302239740E-1,9.567561150E0,-1.751594663E0,2.620893002E0,1.007349941E1
7.326296510E-1,9.529254913E0,-1.765959263E0,2.580193043E0,1.002909305E1
7.350348600E-1,9.522072792E0,-1.777929664E0,2.611316681E0,1.003244133E1
7.374406410E-1,9.455038071E0,-1.789900184E0,2.647227764E0,9.980446003E0
7.398461620E-1,9.426308632E0,-1.801870704E0,2.666380882E0,9.960502973E0
7.422515780E-1,9.364061356E0,-1.821023583E0,2.675957203E0,9.907699981E0
7.446574120E-1,9.306603432E0,-1.830599904E0,2.702292442E0,9.862370298E0
7.470628800E-1,9.234780312E0,-1.852146864E0,2.723839283E0,9.804637466E0
7.494684010E-1,9.184504509E0,-1.871299624E0,2.757356644E0,9.770358285E0
7.518735050E-1,9.067193985E0,-1.885664225E0,2.793268204E0,9.673266438E0
7.542786620E-1,9.016917229E0,-1.897634745E0,2.821997166E0,9.636881339E0
7.566849120E-1,8.925941467E0,-1.926363826E0,2.860302925E0,9.568941503E0
7.590906930E-1,8.890030861E0,-1.945516706E0,2.922549725E0,9.558189204E0
7.614961620E-1,8.866089821E0,-1.964669466E0,2.975219727E0,9.556118838E0
7.639018910E-1,8.873271942E0,-1.933546185E0,3.027889729E0,9.572965686E0
7.663073070E-1,8.909182549E0,-1.959881186E0,3.109289169E0,9.637548811E0
7.687131410E-1,8.997764587E0,-1.959881186E0,3.118865490E0,9.722562614E0
7.711190260E-1,9.100710869E0,-1.964669466E0,3.111683369E0,9.816589928E0
7.735243910E-1,9.208445549E0,-1.962275386E0,3.082953930E0,9.907098417E0
7.759303800E-1,9.337726593E0,-1.950304866E0,3.030283928E0,1.000896836E1
7.783361100E-1,9.440672874E0,-1.957487226E0,3.001554966E0,1.009789051E1
7.807415780E-1,9.524466515E0,-1.950304866E0,2.963249207E0,1.016366063E1
7.831474640E-1,9.569954872E0,-1.928757906E0,2.968037128E0,1.020359680E1
7.855531410E-1,9.565165520E0,-1.928757906E0,2.944096088E0,1.019216367E1
7.879590260E-1,9.601078033E0,-1.921575665E0,2.963249207E0,1.023005368E1
7.903646510E-1,9.581924438E0,-1.904816985E0,3.030283928E0,1.022859836E1
7.927699640E-1,9.510101318E0,-1.904816985E0,3.109289169E0,1.018518699E1
7.951756930E-1,9.502920151E0,-1.902422786E0,3.255329132E0,1.022359387E1
7.975809010E-1,9.443066597E0,-1.904816985E0,3.382216454E0,1.020976115E1
7.999858490E-1,9.421519279E0,-1.897634745E0,3.492344856E0,1.022558144E1
8.023913180E-1,9.399973869E0,-1.902422786E0,3.564167976E0,1.023142290E1
8.047967350E-1,9.364061356E0,-1.907211065E0,3.607261658E0,1.021447188E1
8.072023070E-1,9.371243477E0,-1.904816985E0,3.647961140E0,1.023504531E1
8.096078280E-1,9.361667633E0,-1.907211065E0,3.628808498E0,1.021990832E1
8.120134010E-1,9.373639107E0,-1.926363826E0,3.628808498E0,1.023446329E1
8.144195470E-1,9.397578239E0,-1.919181585E0,3.628808498E0,1.025504685E1
8.168254320E-1,9.419125557E0,-1.943122625E0,3.597685337E0,1.026834902E1
8.192309010E-1,9.445460320E0,-1.945516706E0,3.647961140E0,1.031064384E1
8.216366300E-1,9.471796989E0,-1.952698946E0,3.705419540E0,1.035654891E1
8.240424640E-1,9.498131752E0,-1.991004586E0,3.765272141E0,1.040941306E1
8.264486100E-1,9.526860237E0,-2.007763147E0,3.844277382E0,1.046759989E1
8.288542350E-1,9.546013832E0,-2.002975225E0,3.870612621E0,1.049380445E1
8.312592870E-1,9.591500282E0,-2.007763147E0,3.925676823E0,1.055646385E1
8.336651200E-1,9.632200241E0,-2.010157347E0,3.932858944E0,1.059657461E1
8.360707450E-1,9.660929680E0,-2.019733667E0,3.894553661E0,1.061039276E1
8.384759530E-1,9.696841240E0,-2.031704187E0,3.805971622E0,1.061329223E1
8.408816300E-1,9.680082321E0,-2.034098387E0,3.705419540E0,1.056274983E1
8.432873070E-1,9.670506477E0,-2.050857067E0,3.604867458E0,1.052234668E1
8.456930890E-1,9.627412796E0,-2.029310226E0,3.530650616E0,1.045326126E1
8.480984530E-1,9.560378075E0,-2.058039427E0,3.451645374E0,1.037064178E1
8.505035570E-1,9.481372833E0,-2.084374666E0,3.425310135E0,1.029435758E1
8.529095470E-1,9.388002396E0,-2.103527308E0,3.396581173E0,1.020275354E1
8.553150680E-1,9.280268669E0,-2.103527308E0,3.367851734E0,1.009408931E1
8.577200680E-1,9.174927711E0,-2.105921507E0,3.336728573E0,9.987390123E0
8.601255370E-1,9.086346626E0,-2.115497828E0,3.358275414E0,9.915394083E0
8.625308490E-1,8.990582466E0,-2.081980467E0,3.303211212E0,9.801857990E0
8.649364220E-1,8.933123589E0,-2.077192307E0,3.310393333E0,9.750596338E0
8.673419950E-1,8.897212982E0,-2.093950987E0,3.267299652E0,9.706712966E0
8.697472550E-1,8.904395103E0,-2.072404146E0,3.250541210E0,9.703047421E0
8.721530890E-1,8.916365623E0,-2.058039427E0,3.219417572E0,9.700605740E0
8.745584530E-1,8.988188744E0,-2.055645227E0,3.173929691E0,9.751258579E0
8.769635570E-1,9.050435066E0,-2.048463106E0,3.152382851E0,9.800208856E0
8.793692350E-1,9.155776024E0,-2.062827587E0,3.164353371E0,9.904374009E0
8.817749120E-1,9.244357109E0,-2.031704187E0,3.190688610E0,9.988315878E0
8.841805890E-1,9.383214951E0,-2.055645227E0,3.260117054E0,1.014390277E1
8.865857450E-1,9.498131752E0,-2.048463106E0,3.382216454E0,1.028834758E1
8.889905890E-1,9.605865479E0,-2.074798107E0,3.492344856E0,1.042947321E1
8.913962140E-1,9.718388557E0,-2.072404146E0,3.619232178E0,1.057547997E1
8.938012660E-1,9.833304405E0,-2.048463106E0,3.741331100E0,1.071856497E1
8.962060050E-1,9.897945404E0,-2.062827587E0,3.877794743E0,1.082875214E1
8.986113700E-1,9.974556923E0,-2.070009947E0,4.007076263E0,1.094684371E1
9.010170470E-1,1.004159164E1,-2.055645227E0,4.081293106E0,1.103250622E1
9.034230890E-1,1.008947372E1,-2.053251028E0,4.155510426E0,1.110322416E1
9.058287140E-1,1.012299061E1,-2.043674707E0,4.224938869E0,1.115803090E1
9.082342870E-1,1.013256741E1,-2.036492586E0,4.284791470E0,1.118819298E1
9.106405890E-1,1.016608429E1,-2.036492586E0,4.349432468E0,1.124340405E1
9.130463180E-1,1.017805576E1,-2.053251028E0,4.438014030E0,1.129179470E1
9.154518390E-1,1.018523788E1,-2.048463106E0,4.526595592E0,1.133249044E1
9.178578280E-1,1.021157265E1,-2.024522066E0,4.562506676E0,1.136623828E1
9.202636620E-1,1.021396637E1,-2.017339706E0,4.567295551E0,1.136903501E1
9.226697550E-1,1.020917892E1,-2.019733667E0,4.579266071E0,1.136997520E1
9.250754320E-1,1.020678425E1,-2.005369186E0,4.588841915E0,1.136914334E1
9.274808490E-1,1.020199680E1,-1.988610506E0,4.560112953E0,1.135032778E1
9.298873070E-1,1.022354412E1,-1.979034066E0,4.538566113E0,1.135940195E1
9.322931410E-1,1.018523788E1,-1.993398666E0,4.483501911E0,1.130550744E1
9.346985050E-1,1.015172100E1,-1.974245787E0,4.421255112E0,1.124733668E1
9.371043390E-1,1.012538528E1,-1.981428146E0,4.311126232E0,1.118191817E1
9.395101200E-1,1.007750320E1,-1.991004586E0,4.227333069E0,1.110812833E1
9.419163180E-1,1.000568104E1,-2.002975225E0,4.177056789E0,1.102603130E1
9.443218390E-1,9.941040039E0,-2.002975225E0,4.150722027E0,1.095740298E1
9.467268390E-1,9.821334839E0,-2.010157347E0,4.086081505E0,1.082568301E1
9.491328800E-1,9.723176956E0,-2.017339706E0,4.069322586E0,1.073169213E1
9.515386100E-1,9.636988640E0,-2.046068907E0,4.090869427E0,1.066738772E1
9.539438700E-1,9.548407555E0,-2.067615747E0,4.045381546E0,1.057413039E1
9.563492870E-1,9.467007637E0,-2.046068907E0,4.040593147E0,1.049461884E1
9.587546510E-1,9.416731834E0,-2.043674707E0,4.076504707E0,1.046275945E1
9.611604850E-1,9.371243477E0,-2.026916027E0,4.124386787E0,1.043739236E1
9.635660050E-1,9.313785553E0,-2.024522066E0,4.191421986E0,1.041217120E1
9.659710570E-1,9.287450790E0,-2.014945745E0,4.217756748E0,1.039741413E1
9.683767350E-1,9.304209709E0,-2.002975225E0,4.253668308E0,1.042467852E1
9.707821510E-1,9.313785553E0,-1.967063546E0,4.313520908E0,1.045095225E1
9.731872550E-1,9.344908714E0,-1.943122625E0,4.287185192E0,1.046341251E1
9.755928280E-1,9.371243477E0,-1.909605265E0,4.301550388E0,1.048666450E1
9.779985050E-1,9.416731834E0,-1.888058305E0,4.294367790E0,1.052051317E1
9.804043910E-1,9.438279152E0,-1.871299624E0,4.291974068E0,1.053583965E1
9.828098070E-1,9.467007637E0,-1.830599904E0,4.323096752E0,1.056714224E1
9.852150680E-1,9.457431793E0,-1.797082543E0,4.313520908E0,1.054888546E1
9.876212660E-1,9.507707596E0,-1.763565183E0,4.294367790E0,1.058056050E1
9.900269950E-1,9.502920151E0,-1.689348102E0,4.265638828E0,1.055249084E1
9.924322030E-1,9.548407555E0,-1.672589421E0,4.282397270E0,1.059757371E1
9.948377760E-1,9.560378075E0,-1.607948661E0,4.275214672E0,1.059546074E1
9.972436620E-1,9.591500282E0,-1.572037220E0,4.289579868E0,1.062396697E1
9.996498600E-1,9.605865479E0,-1.512184858E0,4.299155712E0,1.063212559E1
1.002055120E0,9.605865479E0,-1.471485138E0,4.330279350E0,1.063904316E1
1.004460068E0,9.622624397E0,-1.454726458E0,4.356614590E0,1.066260850E1
1.006866110E0,9.641777992E0,-1.397268057E0,4.435619831E0,1.070471691E1
1.009271735E0,9.653747559E0,-1.378115177E0,4.531383991E0,1.075302210E1
1.011677151E0,9.701629639E0,-1.342203856E0,4.586447716E0,1.081474140E1
1.014083037E0,9.692053795E0,-1.306292295E0,4.651088238E0,1.082935493E1
1.016488662E0,9.727964401E0,-1.282351375E0,4.715729237E0,1.088649708E1
1.018894599E0,9.771059036E0,-1.263198614E0,4.775581837E0,1.094876465E1
1.021300380E0,9.804575920E0,-1.239257574E0,4.804310799E0,1.098848809E1
1.023705901E0,9.864428520E0,-1.205740213E0,4.811493397E0,1.104134178E1
1.026112151E0,9.883582115E0,-1.198557854E0,4.737276554E0,1.102558504E1
1.028517932E0,9.893157959E0,-1.184193254E0,4.555325031E0,1.095572335E1
1.030923349E0,9.924281120E0,-1.172222853E0,4.380555153E0,1.091122017E1
1.033329078E0,9.931463242E0,-1.155464053E0,4.181845188E0,1.083775293E1
1.035734599E0,9.905127525E0,-1.143493533E0,4.098052025E0,1.078022074E1
1.038140849E0,9.840487480E0,-1.145887733E0,4.141145229E0,1.073765972E1
1.040546839E0,9.713601112E0,-1.172222853E0,4.265638828E0,1.067351056E1
1.042952255E0,9.546013832E0,-1.229681253E0,4.433225155E0,1.059679109E1
1.045358453E0,9.419125557E0,-1.215316534E0,4.665453434E0,1.058127479E1
1.047764287E0,9.261116028E0,-1.229681253E0,4.880921841E0,1.054057798E1
1.050169599E0,9.182110786E0,-1.234469295E0,5.110755444E0,1.058087398E1
1.052575172E0,9.136622429E0,-1.217710733E0,5.323830605E0,1.064442864E1
1.054980693E0,9.131834984E0,-1.188981414E0,5.500993729E0,1.072683639E1
1.057386735E0,9.134228706E0,-1.162646294E0,5.608727932E0,1.078163761E1
1.059792307E0,9.177321434E0,-1.160252333E0,5.649427891E0,1.083907052E1
1.062197672E0,9.246750832E0,-1.126734972E0,5.714068413E0,1.092806069E1
1.064604182E0,9.349698067E0,-1.114764452E0,5.682945251E0,1.099797347E1
1.067009860E0,9.447855949E0,-1.098005652E0,5.575211048E0,1.102499781E1
1.069415068E0,9.548407555E0,-1.076458812E0,5.395653248E0,1.102015991E1
1.071821162E0,9.629806519E0,-1.069276571E0,5.137090683E0,1.096659595E1
1.074227099E0,9.715994835E0,-1.064488292E0,4.871345997E0,1.092079222E1
1.076632985E0,9.761482239E0,-1.050123811E0,4.533777714E0,1.081408507E1
1.079038505E0,9.790211678E0,-1.052517891E0,4.222544670E0,1.071381921E1
1.081443870E0,9.761482239E0,-1.062094212E0,3.877794743E0,1.055707685E1
1.083850224E0,9.689660072E0,-1.047729731E0,3.545014858E0,1.037084279E1
1.086256318E0,9.577136993E0,-1.062094212E0,3.228993893E0,1.016247995E1
1.088661630E0,9.483766556E0,-1.066882491E0,3.025495529E0,1.001167766E1
1.091067203E0,9.340120316E0,-1.076458812E0,2.946490288E0,9.852837972E0
1.093472880E0,9.177321434E0,-1.059700131E0,2.929731846E0,9.691724396E0
1.095878766E0,9.064799309E0,-1.040547371E0,3.008737087E0,9.607592008E0
1.098284339E0,8.940306664E0,-1.030970931E0,3.106894970E0,9.520755256E0
1.100689599E0,8.851724625E0,-1.009424090E0,3.243358612E0,9.481104414E0
1.103095537E0,8.815813065E0,-9.854831696E-1,3.372640133E0,9.490228582E0
1.105501162E0,8.803842545E0,-9.232365489E-1,3.461221695E0,9.504739076E0
1.107906578E0,8.806236267E0,-8.825368881E-1,3.528256416E0,9.527710212E0
1.110312412E0,8.870877266E0,-8.322608471E-1,3.588108540E0,9.605188414E0
1.112718037E0,8.969036102E0,-7.436791658E-1,3.614443779E0,9.698498396E0
1.115124130E0,9.086346626E0,-6.694620848E-1,3.655143738E0,9.816819762E0
1.117529807E0,9.177321434E0,-5.808804631E-1,3.712602139E0,9.916857640E0
1.119935172E0,9.337726593E0,-5.258161426E-1,3.736543179E0,1.007131449E1
1.122341318E0,9.428702354E0,-4.396286011E-1,3.791607380E0,1.017201985E1
1.124746787E0,9.522072792E0,-3.438646793E-1,3.858642101E0,1.027994319E1
1.127151682E0,9.591500282E0,-2.864062786E-1,3.944829464E0,1.037499811E1
1.129557047E0,9.658535957E0,-2.337361127E-1,4.042987823E0,1.047318958E1
1.131962464E0,9.687264442E0,-1.762777418E-1,4.169874668E0,1.054808139E1
1.134368297E0,9.696841240E0,-1.188193709E-1,4.315915108E0,1.061461122E1
1.136773610E0,9.725570679E0,-9.966658056E-2,4.447590351E0,1.069475191E1
1.139178245E0,9.725570679E0,-7.333149016E-2,4.576871395E0,1.074894666E1
1.141583557E0,9.742329597E0,-6.136099994E-2,4.698970318E0,1.081651853E1
1.143988610E0,9.754300117E0,-1.826722175E-2,4.763611317E0,1.085535339E1
1.146393557E0,9.759087563E0,-3.902629018E-3,4.816281319E0,1.088284756E1
1.148798974E0,9.754300117E0,8.855648339E-4,4.854587078E0,1.089556732E1
1.151204599E0,9.739935875E0,-2.544951811E-2,4.866557598E0,1.088808438E1
1.153610797E0,9.751905441E0,-2.305542305E-2,4.873739719E0,1.090199661E1
1.156016422E0,9.732752800E0,-3.502591327E-2,4.864163399E0,1.088061531E1
1.158421370E0,9.754300117E0,-6.375509501E-2,4.861769199E0,1.089895570E1
1.160827151E0,9.766270638E0,-9.248428047E-2,4.830646038E0,1.089604225E1
1.163232672E0,9.778240204E0,-1.236075610E-1,4.818675518E0,1.090178399E1
1.165637828E0,9.780634880E0,-1.499426663E-1,4.789946556E0,1.089159720E1
1.168043557E0,9.806969643E0,-1.906423420E-1,4.768399239E0,1.090644898E1
1.170449182E0,9.806969643E0,-2.074010372E-1,4.756428719E0,1.090152663E1
1.172854964E0,9.806969643E0,-2.361302078E-1,4.684606075E0,1.087096799E1
1.175260380E0,9.811758995E0,-2.457066029E-1,4.651088238E0,1.086110529E1
1.177665797E0,9.826122284E0,-2.576770782E-1,4.600812435E0,1.085295129E1
1.180071995E0,9.835700035E0,-2.624652982E-1,4.584053993E0,1.085465035E1
1.182477412E0,9.850063324E0,-2.648593783E-1,4.552930355E0,1.085463370E1
1.184882255E0,9.823728561E0,-2.385243177E-1,4.505048275E0,1.081008773E1
1.187287516E0,9.838093758E0,-2.241597176E-1,4.418860912E0,1.078724562E1
1.189692828E0,9.818941116E0,-2.097951323E-1,4.327885151E0,1.073248380E1
1.192098245E0,9.795000076E0,-1.786718369E-1,4.215362549E0,1.066504719E1
1.194503245E0,9.763876915E0,-1.523367465E-1,4.110022545E0,1.059475267E1
1.196908141E0,9.715994835E0,-1.164252684E-1,4.004682064E0,1.050959509E1
1.199313818E0,9.677688599E0,-6.375509501E-2,3.918494225E0,1.044108799E1
1.201719235E0,9.670506477E0,-8.690826595E-3,3.913706303E0,1.043244305E1
1.204124443E0,9.625019073E0,5.594983697E-2,3.858642101E0,1.036982360E1
1.206530016E0,9.615441322E0,1.158023179E-1,3.846671581E0,1.035697853E1
1.208935432E0,9.574742317E0,1.828370839E-1,3.973558426E0,1.036813804E1
1.211341110E0,9.538830757E0,2.139603347E-1,3.454039097E0,1.014718963E1
1.213746422E0,9.481372833E0,2.714186907E-1,4.433225155E0,1.047012818E1
1.216151474E0,9.450249672E0,3.504239917E-1,3.707813740E0,1.015765222E1
1.218557464E0,9.397578239E0,3.767590523E-1,4.174663067E0,1.029000660E1
1.220963193E0,9.359273911E0,4.533702135E-1,4.203392506E0,1.026986179E1
1.223368297E0,9.313785553E0,5.227991343E-1,3.784424782E0,1.006686601E1
1.225773714E0,9.282662392E0,5.491341949E-1,4.490684032E0,1.032645208E1
1.228179339E0,9.268298149E0,6.209571362E-1,3.774848461E0,1.002678509E1
1.230585380E0,9.206051826E0,6.257452965E-1,4.294367790E0,1.017764915E1
1.232991005E0,9.186898232E0,7.071446776E-1,4.184239388E0,1.011963497E1
1.235396266E0,9.141410828E0,7.262974977E-1,3.968770504E0,9.992198922E0
1.237801995E0,9.086346626E0,7.502384782E-1,4.636723995E0,1.022857577E1
1.240207255E0,9.064799309E0,8.172732592E-1,3.975952625E0,9.932105586E0
1.242612307E0,8.983399391E0,8.220614195E-1,4.682211876E0,1.016367835E1
1.245017776E0,8.992977142E0,8.771256804E-1,4.483501911E0,1.008686159E1
1.247423297E0,8.952276230E0,8.843079805E-1,4.380555153E0,1.000572405E1
1.249829235E0,8.921154022E0,9.250077009E-1,4.981474400E0,1.025951829E1
1.252234703E0,8.940306664E0,9.752836823E-1,4.351826191E0,9.990928520E0
1.254639755E0,8.961853981E0,9.992247224E-1,5.082026482E0,1.035085842E1
1.257045745E0,9.019311905E0,1.080624223E0,4.789946556E0,1.026933902E1
1.259451370E0,9.031281471E0,1.094988823E0,4.804310799E0,1.028807308E1
1.261856526E0,9.076769829E0,1.138082504E0,5.256795406E0,1.055068151E1
1.264262412E0,9.158169746E0,1.190752625E0,4.564900875E0,1.030185832E1
1.266668245E0,9.194080353E0,1.231452465E0,5.218489647E0,1.064331823E1
1.269074495E0,9.280268669E0,1.276940346E0,4.653482914E0,1.045986933E1
1.271480120E0,9.304209709E0,1.308063507E0,4.651088238E0,1.048389099E1
1.273884860E0,9.361667633E0,1.346369147E0,4.892892361E0,1.064865843E1
1.276290641E0,9.419125557E0,1.375098348E0,4.198604107E0,1.040380210E1
1.278696162E0,9.423914909E0,1.377492428E0,4.806704998E0,1.066827402E1
1.281101370E0,9.490948677E0,1.437344909E0,4.165086269E0,1.046384302E1
1.283506839E0,9.467007637E0,1.427768469E0,4.284791470E0,1.048914650E1
1.285912151E0,9.486160278E0,1.454103589E0,4.399708271E0,1.055741857E1
1.288318349E0,9.481372833E0,1.463679910E0,3.794001102E0,1.031664839E1
1.290723870E0,9.431097031E0,1.444527149E0,4.461955070E0,1.053286727E1
1.293128505E0,9.445460320E0,1.482832789E0,3.786818981E0,1.028374989E1
1.295534235E0,9.354485512E0,1.466073990E0,4.078898907E0,1.030985880E1
1.297939912E0,9.316179276E0,1.478044510E0,4.165086269E0,1.031134111E1
1.300345328E0,9.275479317E0,1.490015030E0,3.698237419E0,1.009611912E1
1.302751474E0,9.179717064E0,1.475650430E0,4.409284592E0,1.029011857E1
1.305157360E0,9.129439354E0,1.528320670E0,3.786818981E0,1.000112119E1
1.307563141E0,9.048040390E0,1.501985550E0,4.284791470E0,1.012336078E1
1.309968453E0,9.007340431E0,1.545079350E0,4.291974068E0,1.009655848E1
1.312373297E0,8.969036102E0,1.595355392E0,4.071716785E0,9.978358834E0
1.314778974E0,8.921154022E0,1.628872752E0,4.299155712E0,1.003608267E1
1.317184182E0,8.906788826E0,1.681542873E0,4.303944588E0,1.003406262E1
1.319589078E0,8.892424583E0,1.712666154E0,4.351826191E0,1.004723004E1
1.321994599E0,8.885241508E0,1.791671395E0,4.354220390E0,1.005568686E1
1.324400120E0,8.880454063E0,1.844341636E0,4.382949352E0,1.007344556E1
1.326805797E0,8.878059387E0,1.897011757E0,4.414072990E0,1.009468338E1
1.329211266E0,8.844542503E0,1.961652637E0,4.418860912E0,1.007969964E1
1.331616422E0,8.827783585E0,2.007140398E0,4.378161430E0,1.005617587E1
1.334022151E0,8.815813065E0,2.071780920E0,4.373373508E0,1.005670085E1
1.336427776E0,8.794266701E0,2.129239082E0,4.351826191E0,1.004047693E1
1.338833089E0,8.763142586E0,2.177121162E0,4.325491428E0,1.001211270E1
1.341238453E0,8.770325661E0,2.241761923E0,4.277609348E0,1.001209521E1
1.343644130E0,8.734414101E0,2.284855604E0,4.232121468E0,9.971028379E0
1.346050380E0,8.729625702E0,2.349496365E0,4.181845188E0,9.960638897E0
1.348456162E0,8.729625702E0,2.409348965E0,4.133963585E0,9.954947627E0
1.350861578E0,8.720049858E0,2.447654486E0,4.076504707E0,9.932178645E0
1.353267880E0,8.743990898E0,2.505112648E0,4.021440506E0,9.945096779E0
1.355674130E0,8.705684662E0,2.548206568E0,3.987923145E0,9.908876483E0
1.358079964E0,8.686532021E0,2.584117889E0,3.954405785E0,9.887913274E0
1.360485953E0,8.648226738E0,2.641576529E0,3.918494225E0,9.855168657E0
1.362891735E0,8.629074097E0,2.684670210E0,3.899341583E0,9.842420367E0
1.365297932E0,8.621891975E0,2.708611250E0,3.877794743E0,9.834169421E0
1.367704026E0,8.552462578E0,2.725369930E0,3.863430023E0,9.772325667E0
1.370109651E0,8.526127815E0,2.770857573E0,3.851459980E0,9.757369071E0
1.372515849E0,8.483034134E0,2.823527813E0,3.863430023E0,9.739623657E0
1.374921578E0,8.463880539E0,2.821133852E0,3.858642101E0,9.720349215E0
1.377326787E0,8.435152054E0,2.849862814E0,3.846671581E0,9.698989148E0
1.379732151E0,8.408816338E0,2.883380413E0,3.837095261E0,9.682219521E0
1.382137412E0,8.387269974E0,2.900139093E0,3.810760021E0,9.658105213E0
1.384543297E0,8.327416420E0,2.931262493E0,3.765272141E0,9.597678799E0
1.386948974E0,8.303475380E0,2.967173815E0,3.726966381E0,9.572988156E0
1.389354443E0,8.246017456E0,3.010267735E0,3.681478977E0,9.519023226E0
1.391760693E0,8.188559532E0,3.041390896E0,3.676690578E0,9.477374077E0
1.394166370E0,8.167012215E0,3.084484577E0,3.683872700E0,9.475497438E0
1.396571526E0,8.164618492E0,3.144337177E0,3.652749538E0,9.481056407E0
1.398977620E0,8.123918533E0,3.187430859E0,3.662325859E0,9.464163910E0
1.401383922E0,8.116736412E0,3.254465580E0,3.693449020E0,9.492866894E0
1.403790380E0,8.121524811E0,3.314318180E0,3.691054821E0,9.516709302E0
1.406196214E0,8.111948013E0,3.376564741E0,3.695843220E0,9.532268729E0
1.408601526E0,8.145465851E0,3.414870501E0,3.681478977E0,9.568868372E0
1.411007672E0,8.152647972E0,3.474722624E0,3.688661098E0,9.599249292E0
1.413413662E0,8.188559532E0,3.534575224E0,3.683872700E0,9.649696746E0
1.415819391E0,8.195741653E0,3.613580465E0,3.657537937E0,9.675005364E0
1.418225485E0,8.207712173E0,3.692585707E0,3.674296379E0,9.721223287E0
1.420631110E0,8.226864815E0,3.733285427E0,3.669508457E0,9.751103377E0
1.423036787E0,8.267564774E0,3.805108309E0,3.650355339E0,9.805945677E0
1.425442099E0,8.289112091E0,3.860172749E0,3.650355339E0,9.845578043E0
1.427847307E0,8.286717415E0,3.943966150E0,3.671902180E0,9.884706375E0
1.430253193E0,8.308264732E0,3.982271910E0,3.691054821E0,9.925202170E0
1.432658714E0,8.325022697E0,4.037336349E0,3.691054821E0,9.961424266E0
1.435064182E0,8.310658455E0,4.085217953E0,3.695843220E0,9.970722480E0
1.437469860E0,8.265171051E0,4.128312111E0,3.693449020E0,9.949752713E0
1.439875276E0,8.272352219E0,4.152253151E0,3.674296379E0,9.958587819E0
1.442281318E0,8.248412132E0,4.185770035E0,3.667114258E0,9.950110576E0
1.444687151E0,8.212500572E0,4.221681595E0,3.624020100E0,9.919742074E0
1.447092568E0,8.202923775E0,4.240834713E0,3.595291138E0,9.909528540E0
1.449498714E0,8.152647972E0,4.267169476E0,3.556985378E0,9.865421900E0
1.451904391E0,8.104765892E0,4.281534195E0,3.499527454E0,9.811496197E0
1.454309651E0,8.040124893E0,4.291110516E0,3.430098057E0,9.737700470E0
1.456715276E0,7.985061169E0,4.305475235E0,3.375033855E0,9.679316732E0
1.459120901E0,7.894085407E0,4.310263634E0,3.360669613E0,9.601513279E0
1.461526839E0,7.786351204E0,4.310263634E0,3.346304893E0,9.508069946E0
1.463932516E0,7.690587044E0,4.322234154E0,3.315181732E0,9.424291330E0
1.466337880E0,7.590034962E0,4.331809998E0,3.327151775E0,9.351104080E0
1.468744026E0,7.551729679E0,4.355751038E0,3.351092815E0,9.339754349E0
1.471150016E0,7.496665001E0,4.343780518E0,3.396581173E0,9.306190358E0
1.473555432E0,7.484694481E0,4.382086754E0,3.434886456E0,9.328546551E0
1.475961057E0,7.415265560E0,4.398845196E0,3.477980137E0,9.296899925E0
1.478366682E0,7.422448158E0,4.413209438E0,3.518680096E0,9.324712533E0
1.480772880E0,7.386536598E0,4.434756756E0,3.564167976E0,9.323694749E0
1.483178766E0,7.350625038E0,4.441938877E0,3.607261658E0,9.315301718E0
1.485583922E0,7.329078197E0,4.470668316E0,3.676690578E0,9.339181764E0
1.487989755E0,7.314713478E0,4.501791000E0,3.717390060E0,9.358960644E0
1.490395172E0,7.341048717E0,4.552067757E0,3.748513699E0,9.416138916E0
1.492800380E0,7.350625038E0,4.597555161E0,3.758090019E0,9.449467842E0
1.495205693E0,7.396112919E0,4.633466721E0,3.736543179E0,9.493853542E0
1.497610641E0,7.460753441E0,4.686137199E0,3.717390060E0,9.562516019E0
1.500016318E0,7.508635521E0,4.736413002E0,3.681478977E0,9.610749345E0
1.502421735E0,7.549335480E0,4.755565643E0,3.638384819E0,9.635648129E0
1.504826839E0,7.594823360E0,4.784295082E0,3.592896938E0,9.668491595E0
1.507232828E0,7.633128643E0,4.820206642E0,3.554591656E0,9.702276372E0
1.509638505E0,7.633128643E0,4.856118202E0,3.533044338E0,9.712308643E0
1.512043557E0,7.623552799E0,4.860906124E0,3.530650616E0,9.706310288E0
1.514449078E0,7.611582279E0,4.901605606E0,3.504315376E0,9.707839542E0
1.516854807E0,7.578064442E0,4.927941322E0,3.509103298E0,9.696673260E0
1.519260797E0,7.537364960E0,4.942305565E0,3.530650616E0,9.680069659E0
1.521666266E0,7.494271278E0,4.949487686E0,3.525862217E0,9.648483545E0
1.524071370E0,7.429630756E0,4.975822926E0,3.528256416E0,9.612846628E0
1.526477047E0,7.360201836E0,4.990187645E0,3.564167976E0,9.580075008E0
1.528882412E0,7.324290276E0,4.997369766E0,3.607261658E0,9.572422331E0
1.531287307E0,7.285984516E0,5.042857647E0,3.621626377E0,9.572468920E0
1.533692568E0,7.250072956E0,5.057222366E0,3.657537937E0,9.566432966E0
1.536098037E0,7.211767673E0,5.102710247E0,3.674296379E0,9.568056162E0
1.538503818E0,7.168673515E0,5.114680767E0,3.686266899E0,9.546643545E0
1.540909443E0,7.127974033E0,5.150592327E0,3.695843220E0,9.539175659E0
1.543314703E0,7.108821392E0,5.200868130E0,3.729360580E0,9.565171260E0
1.545720641E0,7.087274075E0,5.227203369E0,3.700631618E0,9.552370556E0
1.548126162E0,7.072909832E0,5.267903328E0,3.712602139E0,9.568713268E0
1.550531370E0,7.072909832E0,5.287055492E0,3.712602139E0,9.579270531E0
1.552936943E0,7.051362514E0,5.332543850E0,3.679084778E0,9.575667184E0
1.555342464E0,7.036998272E0,5.342120171E0,3.683872700E0,9.572278238E0
1.557748349E0,7.034604073E0,5.387607574E0,3.791607380E0,9.637855382E0
1.560153870E0,7.003480434E0,5.433095455E0,3.844277382E0,9.661559554E0
1.562558818E0,7.025027752E0,5.437884331E0,3.901735783E0,9.702842008E0
1.564964495E0,7.022633553E0,5.440278053E0,3.913706303E0,9.707270694E0
1.567369860E0,7.060939312E0,5.473795891E0,3.868218422E0,9.735626286E0
1.569774599E0,7.094456673E0,5.488160133E0,3.865824223E0,9.767078071E0
1.572179807E0,7.087274075E0,5.533648014E0,3.832306862E0,9.774317881E0
1.574585276E0,7.075303555E0,5.533648014E0,3.779636860E0,9.745092895E0
1.576991110E0,7.070515633E0,5.555194855E0,3.770060539E0,9.750166032E0
1.579396839E0,7.010663033E0,5.533648014E0,3.738936901E0,9.682474149E0
1.581802151E0,6.929263592E0,5.533648014E0,3.607261658E0,9.573311388E0
1.584208089E0,6.862229347E0,5.528859615E0,3.470798016E0,9.471268084E0
1.586613714E0,6.768859386E0,5.519283295E0,3.425310135E0,9.381508141E0
1.589018662E0,6.677883625E0,5.536042213E0,3.475586414E0,9.344602400E0
1.591423974E0,6.579725742E0,5.528859615E0,3.545014858E0,9.296677355E0
1.593829391E0,6.512690544E0,5.521677494E0,3.604867458E0,9.268178347E0
1.596235224E0,6.416926861E0,5.531253815E0,3.679084778E0,9.236199646E0
1.598640953E0,6.282856941E0,5.497736454E0,3.765272141E0,9.158420811E0
1.601046162E0,6.194275856E0,5.509706974E0,3.779636860E0,9.111069043E0
1.603452099E0,6.100905418E0,5.514495373E0,3.777242661E0,9.049766199E0
1.605857828E0,5.997959614E0,5.492948055E0,3.767666340E0,8.963442838E0
1.608262985E0,5.906983852E0,5.524071693E0,3.719784260E0,8.901944801E0
1.610668766E0,5.830372810E0,5.502524853E0,3.705419540E0,8.831826585E0
1.613074755E0,5.741790771E0,5.536042213E0,3.650355339E0,8.771602975E0
1.615480901E0,5.655602932E0,5.531253815E0,3.619232178E0,8.699393935E0
1.617886474E0,5.588568687E0,5.536042213E0,3.585714817E0,8.645068774E0
1.620291630E0,5.523927689E0,5.552800655E0,3.556985378E0,8.602297205E0
1.622697464E0,5.514351845E0,5.591105938E0,3.559379578E0,8.621932780E0
1.625103089E0,5.478440285E0,5.600682735E0,3.583320618E0,8.615169279E0
1.627508193E0,5.480834007E0,5.646170616E0,3.588108540E0,8.648312375E0
1.629913610E0,5.507169247E0,5.703629017E0,3.602473736E0,8.708508144E0
1.632318870E0,5.550262928E0,5.761086941E0,3.624020100E0,8.782315355E0
1.634724443E0,5.595750809E0,5.806575298E0,3.602473736E0,8.832132292E0
1.637129755E0,5.638844490E0,5.830516338E0,3.573744297E0,8.863584842E0
1.639534860E0,5.669967651E0,5.878397942E0,3.595291138E0,8.923576295E0
1.641940797E0,5.734608650E0,5.926280022E0,3.609655857E0,9.002007925E0
1.644346318E0,5.739396572E0,5.974162102E0,3.638384819E0,9.048156161E0
1.646751370E0,5.734608650E0,5.988526821E0,3.640779018E0,9.055576278E0
1.649156891E0,5.717849731E0,6.031620502E0,3.667114258E0,9.084160854E0
1.651562412E0,5.674756050E0,6.045985222E0,3.686266899E0,9.074434262E0
1.653968401E0,5.602932930E0,6.069926262E0,3.705419540E0,9.053562625E0
1.656373974E0,5.547868729E0,6.086684704E0,3.729360580E0,9.040724996E0
1.658778870E0,5.480834007E0,6.103443623E0,3.736543179E0,9.014062369E0
1.661184651E0,5.409011364E0,6.115414143E0,3.748513699E0,8.983710203E0
1.663590120E0,5.341976166E0,6.108231544E0,3.770060539E0,8.947656589E0
1.665995016E0,5.282123566E0,6.117808342E0,3.767666340E0,8.917607186E0
1.668400276E0,5.179177761E0,6.120202065E0,3.729360580E0,8.842447960E0
1.670805745E0,5.128901482E0,6.144143105E0,3.703025341E0,8.818646244E0
1.673211735E0,5.095384121E0,6.153719902E0,3.655143738E0,8.785857028E0
1.675617307E0,5.011590481E0,6.177660465E0,3.609655857E0,8.735510482E0
1.678022360E0,4.961314678E0,6.187236786E0,3.568955898E0,8.696780357E0
1.680428193E0,4.894279957E0,6.184842587E0,3.556985378E0,8.652074843E0
1.682833922E0,4.841609478E0,6.201601505E0,3.521073818E0,8.619687025E0
1.685239391E0,4.776968956E0,6.235118866E0,3.516285896E0,8.605835589E0
1.687645172E0,4.705146313E0,6.230330467E0,3.516285896E0,8.562691520E0
1.690050641E0,4.650081635E0,6.232724667E0,3.506709576E0,8.530365058E0
1.692456578E0,4.595017433E0,6.247089386E0,3.552197456E0,8.529854499E0
1.694862464E0,4.527982712E0,6.251877785E0,3.597685337E0,8.516568737E0
1.697267620E0,4.494465828E0,6.239907265E0,3.628808498E0,8.503229790E0
1.699673349E0,4.429824829E0,6.261454105E0,3.667114258E0,8.501581177E0
1.702078922E0,4.369972229E0,6.254271507E0,3.703025341E0,8.480858804E0
1.704484078E0,4.336454868E0,6.249483585E0,3.700631618E0,8.459051973E0
1.706889599E0,4.290966988E0,6.263848305E0,3.698237419E0,8.445422031E0
1.709295068E0,4.233508587E0,6.261454105E0,3.698237419E0,8.414592235E0
1.711701162E0,4.216750145E0,6.256665707E0,3.681478977E0,8.395244786E0
1.714107047E0,4.178444386E0,6.275818825E0,3.638384819E0,8.371567565E0
1.716512412E0,4.120985985E0,6.278212547E0,3.604867458E0,8.330278967E0
1.718918505E0,4.070710182E0,6.292577267E0,3.607261658E0,8.317424284E0
1.721324287E0,4.030010223E0,6.292577267E0,3.621626377E0,8.303835781E0
1.723730016E0,3.962975264E0,6.311730385E0,3.585714817E0,8.270457311E0
1.726136214E0,3.893546343E0,6.338065147E0,3.588108540E0,8.258649758E0
1.728542047E0,3.857634783E0,6.362006187E0,3.604867458E0,8.267498911E0
1.730948037E0,3.783417940E0,6.371582508E0,3.592896938E0,8.235303478E0
1.733353662E0,3.687654018E0,6.373976707E0,3.585714817E0,8.190465309E0
1.735758662E0,3.620619059E0,6.414676189E0,3.554591656E0,8.178757535E0
1.738164287E0,3.606254578E0,6.426646709E0,3.540226936E0,8.175577458E0
1.740569703E0,3.534431696E0,6.443405628E0,3.473192215E0,8.128514481E0
1.742975068E0,3.503308535E0,6.467346668E0,3.458827496E0,8.127929088E0
1.745380693E0,3.486549616E0,6.481711388E0,3.410945415E0,8.111914655E0
1.747786266E0,3.467396975E0,6.520016670E0,3.394186974E0,8.127359003E0
1.750192360E0,3.450638056E0,6.508046150E0,3.358275414E0,8.095652008E0
1.752598089E0,3.421908855E0,6.527199268E0,3.319969654E0,8.083068044E0
1.755003141E0,3.429091215E0,6.558321953E0,3.291240692E0,8.099538178E0
1.757409130E0,3.397967815E0,6.572686672E0,3.307999134E0,8.104890723E0
1.759814912E0,3.378815174E0,6.567898750E0,3.331940174E0,8.102808852E0
1.762220120E0,3.328539133E0,6.587051392E0,3.353487015E0,8.106435342E0
1.764625693E0,3.292627573E0,6.594233513E0,3.427704334E0,8.128620360E0
1.767031474E0,3.268686771E0,6.622962475E0,3.463615894E0,8.157486146E0
1.769437568E0,3.227986813E0,6.634932995E0,3.509103298E0,8.170436994E0
1.771843245E0,3.156163931E0,6.644509792E0,3.516285896E0,8.153229277E0
1.774248557E0,3.170528650E0,6.680421352E0,3.545014858E0,8.200451921E0
1.776654651E0,3.165740490E0,6.704362392E0,3.556985378E0,8.223292097E0
1.779060380E0,3.146587610E0,6.745061874E0,3.537832737E0,8.240942528E0
1.781465901E0,3.170528650E0,6.761820793E0,3.549803257E0,8.268952505E0
1.783871630E0,3.204046011E0,6.797732353E0,3.537832737E0,8.306102363E0
1.786277255E0,3.230381012E0,6.828855038E0,3.545014858E0,8.344803949E0
1.788683141E0,3.261504412E0,6.859978676E0,3.523468018E0,8.373263720E0
1.791088505E0,3.268686771E0,6.898283958E0,3.533044338E0,8.411482454E0
1.793493610E0,3.285445452E0,6.912648678E0,3.528256416E0,8.427778883E0
1.795899703E0,3.292627573E0,6.958136559E0,3.509103298E0,8.459956658E0
1.798305589E0,3.314174414E0,7.003624439E0,3.499527454E0,8.501835080E0
1.800710745E0,3.333327055E0,6.991654396E0,3.511497974E0,8.504405827E0
1.803116162E0,3.342903614E0,7.041930199E0,3.523468018E0,8.554449858E0
1.805521943E0,3.323750973E0,7.070659161E0,3.533044338E0,8.574610416E0
1.807928193E0,3.335721493E0,7.116147041E0,3.559379578E0,8.627616680E0
1.810334026E0,3.302203894E0,7.130511761E0,3.583320618E0,8.636488591E0
1.812739547E0,3.299809933E0,7.164029121E0,3.619232178E0,8.678185317E0
1.815145745E0,3.268686771E0,7.183182240E0,3.667114258E0,8.702307009E0
1.817551370E0,3.239957333E0,7.195152760E0,3.686266899E0,8.709541343E0
1.819956370E0,3.237563372E0,7.247822762E0,3.722178459E0,8.767403484E0
1.822361839E0,3.230381012E0,7.257399082E0,3.722178459E0,8.772674359E0
1.824767516E0,3.204046011E0,7.286128044E0,3.703025341E0,8.778722538E0
1.827173662E0,3.213622332E0,7.307675362E0,3.719784260E0,8.807172226E0
1.829579235E0,3.261504412E0,7.345980644E0,3.659931660E0,8.831531147E0
1.831984391E0,3.242351532E0,7.357951164E0,3.640779018E0,8.826525967E0
1.834390328E0,3.249533892E0,7.389074802E0,3.628808498E0,8.850206103E0
1.836795901E0,3.251927853E0,7.415409565E0,3.626414299E0,8.872103158E0
1.839201110E0,3.261504412E0,7.424986362E0,3.628808498E0,8.884598169E0
1.841606578E0,3.247139692E0,7.432168007E0,3.659931660E0,8.898097393E0
1.844011995E0,3.227986813E0,7.444138527E0,3.700631618E0,8.917946605E0
1.846417880E0,3.204046011E0,7.472867966E0,3.722178459E0,8.942274820E0
1.848823297E0,3.177711010E0,7.492020607E0,3.750907421E0,8.960888713E0
1.851228193E0,3.175316572E0,7.496808529E0,3.758090019E0,8.967051580E0
1.853633922E0,3.160952091E0,7.527932167E0,3.777242661E0,8.996051520E0
1.856039339E0,3.153769970E0,7.561449528E0,3.784424782E0,9.024613837E0
1.858444599E0,3.141799450E0,7.594967365E0,3.825124741E0,9.065650134E0
1.860850432E0,3.141799450E0,7.626090050E0,3.849065781E0,9.101838310E0
1.863255953E0,3.175316572E0,7.681154728E0,3.865824223E0,9.166644436E0
1.865661787E0,3.184893131E0,7.714671612E0,3.880188942E0,9.204106071E0
1.868067464E0,3.201651812E0,7.762553692E0,3.856247902E0,9.240046646E0
1.870472620E0,3.256716251E0,7.839165211E0,3.858642101E0,9.324582072E0
1.872878245E0,3.297415972E0,7.870288372E0,3.832306862E0,9.354195157E0
1.875283662E0,3.328539133E0,7.949293613E0,3.782030582E0,9.411386563E0
1.877688870E0,3.366844654E0,7.985205173E0,3.779636860E0,9.454353462E0
1.880094651E0,3.390785694E0,8.013934135E0,3.755695820E0,9.477648392E0
1.882500901E0,3.390785694E0,8.035480499E0,3.772454262E0,9.502514701E0
1.884907568E0,3.405150175E0,8.061815262E0,3.774848461E0,9.530865330E0
1.887313766E0,3.397967815E0,8.088150978E0,3.796395302E0,9.559131174E0
1.889719599E0,3.395573854E0,8.102515221E0,3.853853703E0,9.593375999E0
1.892126318E0,3.388391733E0,8.100121498E0,3.896947384E0,9.606214954E0
1.894532412E0,3.364450693E0,8.107303619E0,3.932858944E0,9.618486363E0
1.896938089E0,3.376421213E0,8.114485741E0,3.942435265E0,9.632647344E0
1.899344391E0,3.357268095E0,8.102515221E0,3.987923145E0,9.634600821E0
1.901750380E0,3.316568613E0,8.095333099E0,4.031017303E0,9.632400835E0
1.904156474E0,3.333327055E0,8.116880417E0,4.040593147E0,9.660290365E0
1.906562412E0,3.302203894E0,8.085756302E0,4.038199425E0,9.622424857E0
1.908967985E0,3.292627573E0,8.090544701E0,4.071716785E0,9.637281124E0
1.911374078E0,3.280657053E0,8.088150978E0,4.107628345E0,9.646424600E0
1.913779703E0,3.271080732E0,8.066603661E0,4.172268867E0,9.652869588E0
1.916184964E0,3.261504412E0,8.076180458E0,4.167480946E0,9.655568303E0
1.918590797E0,3.235169172E0,8.071392059E0,4.181845188E0,9.648912816E0
1.920996943E0,3.251927853E0,8.068998337E0,4.165086269E0,9.645294840E0
1.923403505E0,3.251927853E0,8.078574181E0,4.119598866E0,9.633768233E0
1.925809651E0,3.247139692E0,8.073785782E0,4.081293106E0,9.611809739E0
1.928215328E0,3.237563372E0,8.073785782E0,4.054958344E0,9.597422602E0
1.930621839E0,3.242351532E0,8.095333099E0,3.990317345E0,9.590093532E0
1.933028089E0,3.244745731E0,8.124062538E0,3.978346825E0,9.610203455E0
1.935433818E0,3.244745731E0,8.124062538E0,3.978346825E0,9.610203455E0
1.937839651E0,3.242351532E0,8.145608902E0,3.954405785E0,9.617749890E0
1.940245745E0,3.225592852E0,8.174338341E0,3.944829464E0,9.632545668E0
1.942651943E0,3.225592852E0,8.191097260E0,3.935253143E0,9.642859579E0
1.945057464E0,3.184893131E0,8.191097260E0,3.944829464E0,9.633239231E0
1.947462880E0,3.125040770E0,8.205461502E0,3.995105743E0,9.646571835E0
1.949868974E0,3.093917370E0,8.234190941E0,4.038199425E0,9.678909016E0
1.952274547E0,3.065188169E0,8.265314102E0,4.064534187E0,9.707277367E0
1.954679755E0,3.036458969E0,8.262920380E0,4.102839947E0,9.712323713E0
1.957085432E0,2.981394768E0,8.308407784E0,4.143539906E0,9.751270564E0
1.959491266E0,2.952665567E0,8.325166702E0,4.157904148E0,9.762929964E0
1.961897412E0,2.959847927E0,8.320378304E0,4.189027309E0,9.774320675E0
1.964303193E0,2.911965847E0,8.317984581E0,4.251274109E0,9.784771031E0
1.966708662E0,2.907177687E0,8.327560425E0,4.263244152E0,9.796693086E0
1.969114807E0,2.859295607E0,8.337136269E0,4.299155712E0,9.806434233E0
1.971520641E0,2.842537165E0,8.332348824E0,4.342249870E0,9.816475355E0
1.973926162E0,2.835354567E0,8.325166702E0,4.359008312E0,9.815731741E0
1.976331839E0,2.828172445E0,8.313196182E0,4.387737751E0,9.816314620E0
1.978737412E0,2.806625605E0,8.308407784E0,4.433225155E0,9.826508661E0
1.981143297E0,2.785078764E0,8.308407784E0,4.481107235E0,9.842084417E0
1.983548766E0,2.782684565E0,8.310802460E0,4.505048275E0,9.854350860E0
1.985954078E0,2.792260885E0,8.308407784E0,4.528989315E0,9.866007549E0
1.988359912E0,2.777896404E0,8.291648865E0,4.526595592E0,9.846736362E0
1.990765276E0,2.777896404E0,8.289255142E0,4.536171913E0,9.849127620E0
1.993170380E0,2.751561165E0,8.308407784E0,4.505048275E0,9.843586171E0
1.995575953E0,2.730014324E0,8.303619385E0,4.478713512E0,9.821504356E0
1.997981735E0,2.732408524E0,8.286861420E0,4.428437233E0,9.785151243E0
2.000387932E0,2.713255644E0,8.303619385E0,4.394919872E0,9.778914651E0
2.002793662E0,2.694103003E0,8.298831940E0,4.363796711E0,9.755589387E0
2.005198766E0,2.667768002E0,8.313196182E0,4.347037792E0,9.753099735E0
2.007604755E0,2.607915401E0,8.322772980E0,4.313520908E0,9.730171398E0
2.010010693E0,2.586368322E0,8.322772980E0,4.303944588E0,9.720174391E0
2.012416422E0,2.497786999E0,8.346714020E0,4.263244152E0,9.699578626E0
2.014822412E0,2.464269400E0,8.337136269E0,4.234515190E0,9.670138765E0
2.017228037E0,2.416387320E0,8.341925621E0,4.224938869E0,9.657989397E0
2.019633974E0,2.380475998E0,8.339531898E0,4.196209908E0,9.634450470E0
2.022039755E0,2.313441277E0,8.375442505E0,4.196209908E0,9.649260349E0
2.024445120E0,2.258376837E0,8.382624626E0,4.172268867E0,9.632055288E0
2.026851162E0,2.200918674E0,8.389807701E0,4.191421986E0,9.633324168E0
2.029256943E0,2.148248434E0,8.399383545E0,4.205786228E0,9.636039283E0
2.031662255E0,2.109942913E0,8.404171944E0,4.203392506E0,9.630704736E0
2.034068037E0,2.093184233E0,8.394596100E0,4.205786228E0,9.619735012E0
2.036474026E0,2.071637154E0,8.373048782E0,4.193815708E0,9.591022709E0
2.038880328E0,2.059666634E0,8.349107742E0,4.244091988E0,9.589689439E0
2.041286370E0,2.030937672E0,8.332348824E0,4.265638828E0,9.578539521E0
2.043692047E0,2.040513992E0,8.298831940E0,4.320703030E0,9.576157036E0
2.046098297E0,2.016572952E0,8.270102501E0,4.402102470E0,9.583301519E0
2.048504287E0,2.011784554E0,8.246161461E0,4.449984550E0,9.583778922E0
2.050909807E0,2.014178991E0,8.188703537E0,4.545748234E0,9.579958749E0
2.053315589E0,2.026149511E0,8.145608902E0,4.593630314E0,9.568576994E0
2.055721318E0,2.026149511E0,8.121667862E0,4.612782955E0,9.557433614E0
2.058127360E0,2.035725594E0,8.090544701E0,4.651088238E0,9.551634103E0
2.060533141E0,2.033331633E0,8.068998337E0,4.689394474E0,9.551627726E0
2.062938766E0,2.066849232E0,8.047451019E0,4.718123436E0,9.554790548E0
2.065345328E0,2.071637154E0,8.028298378E0,4.742064476E0,9.551566931E0
2.067751422E0,2.088395834E0,8.004357338E0,4.734881878E0,9.531539223E0
2.070156787E0,2.121913433E0,7.997175694E0,4.751640797E0,9.541248658E0
2.072562412E0,2.138671875E0,8.011539459E0,4.756428719E0,9.559408771E0
2.074967985E0,2.148248434E0,7.994781971E0,4.751640797E0,9.545134905E0
2.077373870E0,2.162612915E0,7.970840931E0,4.758822918E0,9.531925059E0
2.079779443E0,2.174583435E0,7.982811451E0,4.734881878E0,9.532743476E0
2.082184651E0,2.179371595E0,7.989993572E0,4.730093956E0,9.537475907E0
2.084590641E0,2.174583435E0,8.013934135E0,4.737276554E0,9.560007458E0
2.086995901E0,2.196130514E0,8.009145737E0,4.718123436E0,9.551444573E0
2.089400797E0,2.155430555E0,8.037874222E0,4.710940838E0,9.562754125E0
2.091806318E0,2.150642395E0,8.045057297E0,4.703758717E0,9.564180868E0
2.094211839E0,2.138671875E0,8.068998337E0,4.689394474E0,9.574605584E0
2.096617880E0,2.126701355E0,8.068998337E0,4.641512394E0,9.548572151E0
2.099023714E0,2.076425314E0,8.088150978E0,4.634329796E0,9.550222039E0
2.101428974E0,2.052484512E0,8.095333099E0,4.619965553E0,9.544170597E0
2.103834860E0,2.026149511E0,8.097726822E0,4.607995033E0,9.534782627E0
2.106240380E0,1.990238070E0,8.100121498E0,4.622359276E0,9.536205804E0
2.108645432E0,1.959114671E0,8.085756302E0,4.627147198E0,9.519877964E0
2.111051057E0,1.911232829E0,8.080968857E0,4.643906593E0,9.514238647E0
2.113456735E0,1.884897590E0,8.064209938E0,4.696576595E0,9.520617237E0
2.115862516E0,1.858562589E0,8.047451019E0,4.737276554E0,9.521423841E0
2.118267776E0,1.822651029E0,8.037874222E0,4.804310799E0,9.539962318E0
2.120672776E0,1.825045109E0,8.013934135E0,4.837828159E0,9.537217166E0
2.123078453E0,1.817862868E0,8.013934135E0,4.880921841E0,9.557780273E0
2.125483610E0,1.817862868E0,7.968446255E0,4.912045479E0,9.535667355E0
2.127888662E0,1.798710108E0,7.951687336E0,4.926409721E0,9.525450240E0
2.130294547E0,1.810680628E0,7.913382053E0,4.931198597E0,9.498257707E0
2.132700537E0,1.837015748E0,7.901411533E0,4.943168640E0,9.499570900E0
2.135106787E0,1.841803908E0,7.884652615E0,4.947957039E0,9.489060404E0
2.137512464E0,1.865744948E0,7.863106251E0,4.943168640E0,9.473350006E0
2.139917620E0,1.882503629E0,7.815224171E0,4.959927559E0,9.445762549E0
2.142323610E0,1.892079949E0,7.810435772E0,4.921621799E0,9.423652934E0
2.144729235E0,1.918414950E0,7.788888931E0,4.895287037E0,9.397390163E0
2.147134755E0,1.913626790E0,7.781706810E0,4.904862881E0,9.395456788E0
2.149540901E0,1.920809150E0,7.786494732E0,4.935986519E0,9.417163634E0
2.151947151E0,1.918414950E0,7.772130013E0,4.981474400E0,9.428754321E0
2.154353610E0,1.894474149E0,7.776918888E0,5.031750202E0,9.454523245E0
2.156759599E0,1.870533109E0,7.805647850E0,5.046114922E0,9.481049956E0
2.159165328E0,1.870533109E0,7.786494732E0,5.036538601E0,9.460185802E0
2.161571735E0,1.856168628E0,7.793677330E0,5.022173882E0,9.455633178E0
2.163977568E0,1.837015748E0,7.820012093E0,4.971898079E0,9.447062321E0
2.166383193E0,1.865744948E0,7.822406292E0,4.912045479E0,9.423334611E0
2.168788974E0,1.877715468E0,7.853529453E0,4.880921841E0,9.435419348E0
2.171194495E0,1.887291789E0,7.879864693E0,4.816281319E0,9.426065118E0
2.173600797E0,1.889685988E0,7.913382053E0,4.813887596E0,9.453361436E0
2.176007151E0,1.911232829E0,7.920564175E0,4.777976036E0,9.445485841E0
2.178413193E0,1.949538350E0,7.958870411E0,4.787552357E0,9.490256876E0
2.180819547E0,1.925597310E0,8.009145737E0,4.811493397E0,9.539644078E0
2.183225328E0,1.959114671E0,8.006752014E0,4.842616558E0,9.560185314E0
2.185630797E0,1.973479390E0,8.037874222E0,4.907257557E0,9.622017441E0
2.188036735E0,2.009390593E0,8.061815262E0,4.912045479E0,9.651875810E0
2.190442776E0,2.045302153E0,8.059421539E0,4.962321281E0,9.683086747E0
2.192848922E0,2.095578194E0,8.095333099E0,5.010203362E0,9.748230797E0
2.195254651E0,2.153036594E0,8.100121498E0,5.038932323E0,9.779487401E0
2.197660380E0,2.224859715E0,8.112092018E0,5.091602802E0,9.832622069E0
2.200066735E0,2.267953396E0,8.133638382E0,5.141879082E0,9.886283752E0
2.202472620E0,2.330199957E0,8.112092018E0,5.208913326E0,9.918096934E0
2.204878557E0,2.361323118E0,8.121667862E0,5.261583805E0,9.961003959E0
2.207285172E0,2.404416800E0,8.119274139E0,5.345377445E0,1.001383507E1
2.209691682E0,2.409205198E0,8.104909897E0,5.366923809E0,1.001487420E1
2.212098401E0,2.425963879E0,8.119274139E0,5.407623768E0,1.005237823E1
2.214504599E0,2.399628639E0,8.090544701E0,5.505781651E0,1.007614821E1
2.216910068E0,2.428357840E0,8.066603661E0,5.733221531E0,1.019003658E1
2.219316110E0,2.423569679E0,8.064209938E0,5.184972286E0,9.888837622E0
2.221721787E0,2.402022839E0,8.009145737E0,5.884049416E0,1.022439077E1
2.224126787E0,2.387658119E0,7.999569416E0,5.323830605E0,9.901373361E0
2.226532255E0,2.323017597E0,7.949293613E0,5.601545811E0,9.998249606E0
2.228937932E0,2.334988117E0,7.944505215E0,5.659004211E0,1.002953944E1
2.231343974E0,2.313441277E0,7.915776253E0,5.161031723E0,9.728708685E0
2.233749443E0,2.255982876E0,7.867894173E0,5.726038933E0,9.989030949E0
2.236154495E0,2.275135756E0,7.855923653E0,5.022173882E0,9.597604370E0
2.238560589E0,2.179371595E0,7.805647850E0,5.297495365E0,9.682006820E0
2.240966057E0,2.165007114E0,7.784100533E0,5.151455402E0,9.582117181E0
2.243370953E0,2.129095554E0,7.764948368E0,4.675029278E0,9.310390421E0
2.245776526E0,2.071637154E0,7.741007328E0,5.120331764E0,9.509609473E0
2.248182151E0,2.054878712E0,7.733824730E0,4.387737751E0,9.126160970E0
2.250587985E0,1.973479390E0,7.685942650E0,4.754034996E0,9.250361294E0
2.252993974E0,1.939962029E0,7.685942650E0,4.521807194E0,9.126001720E0
2.255399547E0,1.925597310E0,7.685942650E0,4.184239388E0,8.960440763E0
2.257805745E0,1.894474149E0,7.659607887E0,4.629541874E0,9.148294008E0
2.260211735E0,1.889685988E0,7.671577930E0,3.894553661E0,8.808607682E0
2.262617151E0,1.860956550E0,7.666790009E0,4.351826191E0,9.010062126E0
2.265022724E0,1.892079949E0,7.709883690E0,4.038199425E0,8.906701277E0
2.267428245E0,1.870533109E0,7.717066288E0,3.849065781E0,8.824245780E0
2.269834026E0,1.863350749E0,7.731430531E0,4.244091988E0,9.014400194E0
2.272239443E0,1.865744948E0,7.757765770E0,3.590503216E0,8.749608408E0
2.274644651E0,1.796316028E0,7.741007328E0,4.189027309E0,8.983200739E0
2.277050485E0,1.772374988E0,7.786494732E0,3.877794743E0,8.877392938E0
2.279456005E0,1.707734466E0,7.781706810E0,3.884976864E0,8.863654050E0
2.281861318E0,1.657458305E0,7.772130013E0,4.303944588E0,9.037539044E0
2.284266787E0,1.611970425E0,7.776918888E0,3.731754780E0,8.775244144E0
2.286672360E0,1.513812423E0,7.748188972E0,4.380555153E0,9.028583712E0
2.289078505E0,1.513812423E0,7.776918888E0,3.995105743E0,8.873159829E0
2.291484235E0,1.449171662E0,7.743401051E0,4.105233669E0,8.883315925E0
2.293889547E0,1.420442581E0,7.712277889E0,4.438014030E0,9.010707847E0
2.296296162E0,1.398895621E0,7.685942650E0,3.880188942E0,8.722756995E0
2.298702412E0,1.362984180E0,7.642848969E0,4.543354511E0,8.995161835E0
2.301107828E0,1.384531021E0,7.623696327E0,4.002287865E0,8.721007969E0
2.303513662E0,1.365378261E0,7.571026325E0,4.227333069E0,8.778100152E0
2.305919599E0,1.355801821E0,7.544690609E0,4.382949352E0,8.830107586E0
2.308325693E0,1.353407741E0,7.480050087E0,3.884976864E0,8.536738666E0
2.310731214E0,1.339043140E0,7.427380085E0,4.208180428E0,8.641052828E0
2.313136422E0,1.317496300E0,7.391468525E0,4.165086269E0,8.585892329E0
2.315542360E0,1.267220140E0,7.343586445E0,4.150722027E0,8.530099771E0
2.317947828E0,1.236096859E0,7.281340122E0,4.074110985E0,8.434703891E0
2.320352776E0,1.183426738E0,7.219093800E0,4.124386787E0,8.397998601E0
2.322758037E0,1.154697537E0,7.199940681E0,4.098052025E0,8.364598174E0
2.325163557E0,1.104421377E0,7.187970161E0,4.078898907E0,8.338109972E0
2.327569599E0,1.046963215E0,7.128117561E0,4.045381546E0,8.262645085E0
2.329974964E0,9.607754946E-1,7.113753319E0,4.031017303E0,8.232719862E0
2.332380016E0,9.057112932E-1,7.085024357E0,4.052563667E0,8.212256411E0
2.334786162E0,8.721939325E-1,7.077841759E0,4.062140465E0,8.207164637E0
2.337191630E0,8.147355318E-1,7.087418079E0,4.062140465E0,8.209523383E0
2.339596682E0,8.003709316E-1,7.101782799E0,4.031017303E0,8.205182085E0
2.342002203E0,7.620652914E-1,7.113753319E0,4.009469986E0,8.201346192E0
2.344407464E0,7.596712112E-1,7.113753319E0,3.999893665E0,8.196446545E0
2.346813297E0,7.620652914E-1,7.125723839E0,3.992711544E0,8.203561983E0
2.349218557E0,7.716417313E-1,7.156846523E0,3.944829464E0,8.208383679E0
2.351623193E0,7.548830509E-1,7.171211720E0,3.906523705E0,8.201039776E0
2.354029130E0,7.572771311E-1,7.183182240E0,3.832306862E0,8.176683412E0
2.356434703E0,7.477008104E-1,7.187970161E0,3.808365822E0,8.168820097E0
2.358839755E0,7.548830509E-1,7.226275444E0,3.777242661E0,8.188801337E0
2.361245224E0,7.740358114E-1,7.255005360E0,3.777242661E0,8.215947683E0
2.363650641E0,7.668534517E-1,7.266975880E0,3.746119499E0,8.211602399E0
2.366056474E0,7.764298916E-1,7.307675362E0,3.714995861E0,8.234449394E0
2.368462151E0,7.788239717E-1,7.305281162E0,3.671902180E0,8.213194583E0
2.370867568E0,7.884004116E-1,7.317251682E0,3.650355339E0,8.215159249E0
2.373273766E0,8.027650118E-1,7.314857006E0,3.602473736E0,8.193252205E0
2.375679495E0,8.099473715E-1,7.360345364E0,3.571350098E0,8.221024275E0
2.378084964E0,8.147355318E-1,7.362739086E0,3.554591656E0,8.216376493E0
2.380490901E0,8.243118525E-1,7.357951164E0,3.537832737E0,8.205802571E0
2.382896526E0,8.338882923E-1,7.317251682E0,3.516285896E0,8.160993100E0
2.385302307E0,8.314942122E-1,7.341192722E0,3.482768536E0,8.167874257E0
2.387707828E0,8.434647322E-1,7.341192722E0,3.475586414E0,8.166042142E0
2.390113141E0,8.506469727E-1,7.331616402E0,3.470798016E0,8.156141134E0
2.392519287E0,8.362823725E-1,7.302886486E0,3.482768536E0,8.133953277E0
2.394924964E0,8.482528925E-1,7.302886486E0,3.468403816E0,8.129053391E0
2.397330380E0,8.554352522E-1,7.331616402E0,3.475586414E0,8.158680620E0
2.399736422E0,8.745880127E-1,7.307675362E0,3.470798016E0,8.137165492E0
2.402142203E0,9.009230137E-1,7.326827526E0,3.444462776E0,8.146065780E0
2.404548141E0,8.985290527E-1,7.334010124E0,3.499527454E0,8.175680483E0
2.406953662E0,9.200758934E-1,7.345980644E0,3.528256416E0,8.201131911E0
2.409358974E0,9.368345737E-1,7.372315884E0,3.564167976E0,8.242086742E0
2.411765224E0,9.488050938E-1,7.372315884E0,3.604867458E0,8.261134425E0
2.414170901E0,9.679577351E-1,7.365133762E0,3.645567417E0,8.274799049E0
2.416576005E0,9.631696939E-1,7.386680126E0,3.753301620E0,8.341343549E0
2.418981578E0,9.823224545E-1,7.398650646E0,3.796395302E0,8.373625623E0
2.421387151E0,1.020628095E0,7.403439045E0,3.858642101E0,8.410809133E0
2.423793193E0,1.023022175E0,7.420197487E0,3.894553661E0,8.442360649E0
2.426198922E0,1.046963215E0,7.458503246E0,3.947223663E0,8.503292145E0
2.428604287E0,1.116391897E0,7.460897446E0,3.968770504E0,8.524227876E0
2.431010485E0,1.164273858E0,7.487232685E0,3.966376305E0,8.552562650E0
2.433416214E0,1.204973698E0,7.520749569E0,3.975952625E0,8.591963394E0
2.435821422E0,1.233702779E0,7.549479008E0,3.952012062E0,8.610171611E0
2.438226891E0,1.245673299E0,7.566237450E0,3.973558426E0,8.636481788E0
2.440632360E0,1.303131700E0,7.592572689E0,3.952012062E0,8.658158673E0
2.443038349E0,1.310313940E0,7.585390568E0,3.932858944E0,8.644214953E0
2.445443818E0,1.362984180E0,7.556661129E0,3.916100502E0,8.619553146E0
2.447848662E0,1.372560501E0,7.551873207E0,3.896947384E0,8.608188554E0
2.450254391E0,1.422836661E0,7.535114765E0,3.858642101E0,8.584377529E0
2.452659912E0,1.468324542E0,7.511173725E0,3.777242661E0,8.534709708E0
2.455065068E0,1.556906104E0,7.513567448E0,3.698237419E0,8.517899531E0
2.457470589E0,1.640699506E0,7.499203205E0,3.635990620E0,8.494137470E0
2.459876318E0,1.726887107E0,7.520749569E0,3.547409058E0,8.492816034E0
2.462282307E0,1.846592069E0,7.508779049E0,3.442068577E0,8.464012120E0
2.464687828E0,1.925597310E0,7.515961647E0,3.343910694E0,8.448629665E0
2.467093193E0,2.062060833E0,7.539902687E0,3.202659130E0,8.447440613E0
2.469499391E0,2.184159994E0,7.537508488E0,3.106894970E0,8.440224253E0
2.471905120E0,2.296682358E0,7.573420048E0,3.018313408E0,8.470044681E0
2.474310537E0,2.423569679E0,7.616513729E0,2.917761326E0,8.508719206E0
2.476716318E0,2.514545441E0,7.650031090E0,2.841149807E0,8.539206443E0
2.479122047E0,2.622279882E0,7.702701092E0,2.805238724E0,8.606818238E0
2.481528193E0,2.744378805E0,7.755371571E0,2.726233482E0,8.666588269E0
2.483933714E0,2.825778484E0,7.805647850E0,2.654410362E0,8.715449316E0
2.486338662E0,2.914359808E0,7.882258892E0,2.608922482E0,8.799430371E0
2.488744443E0,2.979000568E0,7.934929371E0,2.616104603E0,8.870262217E0
2.491149755E0,3.046035528E0,7.999569416E0,2.632863522E0,8.955635857E0
2.493554651E0,3.108281851E0,8.059421539E0,2.668775082E0,9.040909913E0
2.495960120E0,3.192075491E0,8.107303619E0,2.687927723E0,9.118260435E0
2.498365641E0,3.218410730E0,8.176733017E0,2.731021404E0,9.201935034E0
2.500771578E0,3.280657053E0,8.229402542E0,2.757356644E0,9.278404634E0
2.503177099E0,3.316568613E0,8.298831940E0,2.795662403E0,9.364078556E0
2.505582255E0,3.357268095E0,8.346714020E0,2.841149807E0,9.434564972E0
2.507988141E0,3.419514894E0,8.353896141E0,2.881849766E0,9.475532751E0
2.510393818E0,3.479367495E0,8.394596100E0,2.915367126E0,9.543301699E0
2.512799078E0,3.500914097E0,8.449659348E0,2.953672886E0,9.611312404E0
2.515204599E0,3.534431696E0,8.471206665E0,3.025495529E0,9.664738640E0
2.517610016E0,3.579919338E0,8.492753983E0,3.121259689E0,9.730619442E0
2.520015537E0,3.627801418E0,8.543029785E0,3.209841251E0,9.820762796E0
2.522420537E0,3.656530619E0,8.559788704E0,3.307999134E0,9.878413693E0
2.524825537E0,3.737929821E0,8.571758270E0,3.396581173E0,9.949066431E0
2.527231735E0,3.790600061E0,8.571758270E0,3.477980137E0,9.997001275E0
2.529637360E0,3.848058462E0,8.607670784E0,3.580926418E0,1.008576146E1
2.532042568E0,3.907911062E0,8.605276108E0,3.669508457E0,1.013843371E1
2.534448141E0,3.965369463E0,8.617246628E0,3.750907421E0,1.020050984E1
2.536853662E0,4.046769142E0,8.631611824E0,3.861036301E0,1.028536166E1
2.539259651E0,4.125774384E0,8.655552864E0,3.894553661E0,1.034930712E1
2.541665172E0,4.185626507E0,8.657946587E0,3.954405785E0,1.039792448E1
2.544070068E0,4.238296509E0,8.672310829E0,4.021440506E0,1.045677370E1
2.546475797E0,4.341243267E0,8.693858147E0,4.057352066E0,1.053051131E1
2.548881266E0,4.401095867E0,8.724980354E0,4.098052025E0,1.059664840E1
2.551286214E0,4.475312710E0,8.760892868E0,4.126780987E0,1.066827020E1
2.553691370E0,4.532771111E0,8.806380272E0,4.117204189E0,1.072612315E1
2.556096682E0,4.642899513E0,8.837503433E0,4.133963585E0,1.080498208E1
2.558502620E0,4.724298477E0,8.897356987E0,4.093263626E0,1.087367300E1
2.560908401E0,4.805697918E0,8.971573830E0,4.076504707E0,1.096365633E1
2.563313818E0,4.891885757E0,9.031425476E0,4.066928387E0,1.104704028E1
2.565719495E0,4.973285198E0,9.079307556E0,4.038199425E0,1.111190560E1
2.568124495E0,5.078625679E0,9.153524399E0,4.023834705E0,1.121475338E1
2.570529078E0,5.164813042E0,9.237318993E0,4.007076263E0,1.131636055E1
2.572934078E0,5.224665642E0,9.301959038E0,3.980741024E0,1.138726798E1
2.575339287E0,5.286911964E0,9.366600037E0,3.956799984E0,1.146040577E1
2.577744860E0,5.346764565E0,9.471940041E0,3.947223663E0,1.157091674E1
2.580150172E0,5.409011364E0,9.548550606E0,3.928071022E0,1.165598407E1
2.582555380E0,5.480834007E0,9.639526367E0,3.896947384E0,1.175356154E1
2.584961474E0,5.526322365E0,9.687408447E0,3.892159462E0,1.181249451E1
2.587367151E0,5.605327129E0,9.795144081E0,3.839489460E0,1.192083131E1
2.589772151E0,5.655602932E0,9.871754646E0,3.801183701E0,1.199526498E1
2.592177203E0,5.713061810E0,9.965125084E0,3.741331100E0,1.208057745E1
2.594582620E0,5.792067051E0,1.001779461E1,3.700631618E0,1.214902975E1
2.596988870E0,5.859101772E0,1.009440613E1,3.655143738E0,1.223054309E1
2.599394287E0,5.930924892E0,1.016862297E1,3.607261658E0,1.231215253E1
2.601798974E0,5.981200695E0,1.023086929E1,3.580926418E0,1.238016487E1
2.604204860E0,6.062600136E0,1.025720501E1,3.556985378E0,1.243452934E1
2.606610589E0,6.129634857E0,1.030029774E1,3.552197456E0,1.250146646E1
2.609015849E0,6.220610619E0,1.029790401E1,3.530650616E0,1.253827410E1
2.611421266E0,6.278069019E0,1.031705666E1,3.552197456E0,1.258864232E1
2.613826943E0,6.325951099E0,1.030987453E1,3.542621136E0,1.260402058E1
2.616233141E0,6.392985821E0,1.027396297E1,3.549803257E0,1.261053869E1
2.618638818E0,6.448050022E0,1.027875042E1,3.549803257E0,1.264243499E1
2.621044026E0,6.510296822E0,1.025241566E1,3.561773777E0,1.265631162E1
2.623449755E0,6.562966824E0,1.023326397E1,3.585714817E0,1.267476137E1
2.625855120E0,6.644366264E0,1.019016933E1,3.595291138E0,1.268515954E1
2.628260432E0,6.661124706E0,1.017341042E1,3.614443779E0,1.268593968E1
2.630666526E0,6.713795185E0,1.013749981E1,3.621626377E0,1.268700618E1
2.633072307E0,6.737736225E0,1.010637569E1,3.638384819E0,1.267965943E1
2.635478141E0,6.754494667E0,1.011834621E1,3.681478977E0,1.271052382E1
2.637883453E0,6.809558868E0,1.009919357E1,3.688661098E0,1.272674442E1
2.640288245E0,6.840682030E0,1.009440613E1,3.681478977E0,1.273755287E1
2.642694287E0,6.859835148E0,1.008722401E1,3.722178459E0,1.275398130E1
2.645100276E0,6.888564110E0,1.010398197E1,3.719784260E0,1.278200149E1
2.647505693E0,6.905322552E0,1.009201145E1,3.731754780E0,1.278507600E1
2.649911318E0,6.931658268E0,1.010398197E1,3.741331100E0,1.281155324E1
2.652316891E0,6.934051991E0,1.011116505E1,3.743725300E0,1.281921272E1
2.654722724E0,6.938840389E0,1.011834621E1,3.758090019E0,1.283166695E1
2.657128141E0,6.917293072E0,1.011116505E1,3.767666340E0,1.281717253E1
2.659533297E0,6.905322552E0,1.010876942E1,3.817942142E0,1.282370387E1
2.661939182E0,6.886170387E0,1.010876942E1,3.834701061E0,1.281840450E1
2.664344703E0,6.831105709E0,1.008961773E1,3.899341583E0,1.279332857E1
2.666749964E0,6.819135189E0,1.007046509E1,3.932858944E0,1.278210668E1
2.669155537E0,6.802376747E0,1.004173565E1,3.980741024E0,1.276538614E1
2.671560953E0,6.732947826E0,1.002018833E1,4.014258385E0,1.272206866E1
2.673966682E0,6.723371029E0,9.996247292E0,4.040593147E0,1.270649719E1
2.676372203E0,6.661124706E0,9.938788414E0,4.038199425E0,1.262763446E1
2.678777412E0,6.663518429E0,9.871754646E0,4.069322586E0,1.258623867E1
2.681183193E0,6.661124706E0,9.797537804E0,4.088475227E0,1.253307460E1
2.683588662E0,6.656336784E0,9.723320961E0,4.088475227E0,1.247258672E1
2.685993870E0,6.634789467E0,9.653891563E0,4.112416267E0,1.241491124E1
2.688399651E0,6.615637302E0,9.582068443E0,4.119598866E0,1.235126663E1
2.690805745E0,6.577331066E0,9.495881081E0,4.133963585E0,1.226876915E1
2.693212151E0,6.553390026E0,9.409693718E0,4.141145229E0,1.219173247E1
2.695617880E0,6.505507946E0,9.325900078E0,4.165086269E0,1.210958255E1
2.698023297E0,6.503114223E0,9.251682281E0,4.155510426E0,1.204792042E1
2.700429651E0,6.471991062E0,9.189436913E0,4.119598866E0,1.197094457E1
2.702835745E0,6.421715260E0,9.122401237E0,4.107628345E0,1.188819759E1
2.705241474E0,6.390591621E0,9.098461151E0,4.069322586E0,1.183980755E1
2.707646943E0,6.359467983E0,9.067337990E0,4.050169945E0,1.179251152E1
2.710052151E0,6.335526943E0,9.021849632E0,4.007076263E0,1.172984794E1
2.712457828E0,6.306797981E0,9.038607597E0,3.959194183E0,1.171099256E1
2.714862880E0,6.270886421E0,9.033820152E0,3.908917904E0,1.167105660E1
2.717267932E0,6.237369061E0,9.060154915E0,3.837095261E0,1.164965579E1
2.719673974E0,6.196669579E0,9.110430717E0,3.789213181E0,1.165147193E1
2.722079495E0,6.146393776E0,9.127189636E0,3.712602139E0,1.161323218E1
2.724484599E0,6.115270138E0,9.163100243E0,3.671902180E0,1.161214022E1
2.726889964E0,6.057811737E0,9.215771675E0,3.628808498E0,1.161015856E1
2.729295537E0,5.995564938E0,9.239712715E0,3.549803257E0,1.157238926E1
2.731701839E0,5.959653854E0,9.249288559E0,3.518680096E0,1.155196618E1
2.734107880E0,5.897407055E0,9.287594795E0,3.482768536E0,1.153986585E1
2.736513453E0,5.818402290E0,9.282805443E0,3.466009617E0,1.149075736E1
2.738919807E0,5.768126011E0,9.299564362E0,3.475586414E0,1.148184985E1
2.741325901E0,5.674756050E0,9.244501114E0,3.458827496E0,1.138539172E1
2.743731578E0,5.593356609E0,9.215771675E0,3.442068577E0,1.131653312E1
2.746137360E0,5.509562969E0,9.167889595E0,3.437280655E0,1.123478447E1
2.748542985E0,5.437740326E0,9.096066475E0,3.420522213E0,1.113586177E1
2.750949130E0,5.382676125E0,9.019455910E0,3.384610653E0,1.103536934E1
2.753354964E0,5.291700363E0,8.928480148E0,3.370245934E0,1.091230535E1
2.755760432E0,5.215089321E0,8.837503433E0,3.336728573E0,1.079038373E1
2.758166526E0,5.126507759E0,8.727375984E0,3.310393333E0,1.064926652E1
2.760571943E0,5.054684639E0,8.641187668E0,3.312787533E0,1.054488133E1
2.762977203E0,4.985255718E0,8.531058311E0,3.336728573E0,1.042906938E1
2.765383193E0,4.872733116E0,8.401777267E0,3.341516972E0,1.027127669E1
2.767789026E0,4.810486794E0,8.313196182E0,3.319969654E0,1.016229366E1
2.770195276E0,4.726693153E0,8.198279381E0,3.310393333E0,1.002557315E1
2.772601318E0,4.611776352E0,8.095333099E0,3.293634892E0,9.881848507E0
2.775006474E0,4.537559032E0,8.016327858E0,3.272087574E0,9.775352239E0
2.777412360E0,4.475312710E0,7.925352573E0,3.238570690E0,9.660640630E0
2.779818037E0,4.403489590E0,7.855923653E0,3.217023373E0,9.563236711E0
2.782223089E0,4.346031189E0,7.810435772E0,3.205052853E0,9.495433525E0
2.784628349E0,4.324484348E0,7.772130013E0,3.142806530E0,9.433154440E0
2.787033662E0,4.286178589E0,7.736218452E0,3.097318649E0,9.370901006E0
2.789439703E0,4.288573265E0,7.695518970E0,3.075771809E0,9.331304576E0
2.791845172E0,4.250267029E0,7.695518970E0,3.008737087E0,9.291839479E0
2.794250224E0,4.235902786E0,7.712277889E0,2.982401848E0,9.290684767E0
2.796656422E0,4.219144344E0,7.721854210E0,2.965643406E0,9.285647648E0
2.799062151E0,4.207173824E0,7.743401051E0,2.984796047E0,9.304277450E0
2.801467203E0,4.171262264E0,7.774524212E0,3.003948689E0,9.320212622E0
2.803872672E0,4.116197586E0,7.815224171E0,3.003948689E0,9.329765224E0
2.806278453E0,4.092256546E0,7.860712051E0,3.047042370E0,9.371329937E0
2.808684651E0,4.075498104E0,7.891835213E0,3.061407089E0,9.394836943E0
2.811090328E0,4.046769142E0,7.922958851E0,3.087742329E0,9.417206068E0
2.813495380E0,4.027616024E0,7.932534695E0,3.102106571E0,9.421775984E0
2.815901057E0,4.030010223E0,7.958870411E0,3.133230209E0,9.455248921E0
2.818306578E0,4.003674984E0,7.970840931E0,3.152382851E0,9.460509297E0
2.820711630E0,3.998886824E0,7.987598896E0,3.094924450E0,9.453644234E0
2.823117047E0,3.974945784E0,8.001963615E0,3.056619167E0,9.443227013E0
2.825522724E0,3.984522104E0,7.985205173E0,3.025495529E0,9.423032487E0
2.827928818E0,3.984522104E0,7.975628376E0,2.996766567E0,9.405725610E0
2.830334547E0,3.989310503E0,7.934929371E0,2.996766567E0,9.373276496E0
2.832740120E0,3.967763186E0,7.913382053E0,3.006342888E0,9.348949555E0
2.835146474E0,3.946216822E0,7.889441013E0,3.059012890E0,9.336673207E0
2.837552255E0,3.907911062E0,7.855923653E0,3.063801289E0,9.293771228E0
2.839957672E0,3.900728464E0,7.810435772E0,3.133230209E0,9.275544245E0
2.842363610E0,3.848058462E0,7.788888931E0,3.181111813E0,9.251692660E0
2.844769495E0,3.828905582E0,7.757765770E0,3.200264931E0,9.224160847E0
2.847175432E0,3.797782421E0,7.714671612E0,3.217023373E0,9.180879521E0
2.849581005E0,3.740324259E0,7.688336849E0,3.245752811E0,9.145242500E0
2.851986370E0,3.704412699E0,7.630878448E0,3.279270172E0,9.094316478E0
2.854392203E0,3.642165899E0,7.618907928E0,3.339122295E0,9.080906792E0
2.856797568E0,3.603860378E0,7.582996845E0,3.372640133E0,9.047892144E0
2.859202932E0,3.565554857E0,7.556661129E0,3.372640133E0,9.010605436E0
2.861608610E0,3.524855137E0,7.520749569E0,3.434886456E0,8.988032197E0
2.864013818E0,3.474579096E0,7.494414806E0,3.494739056E0,8.969512487E0
2.866419443E0,3.436273336E0,7.489626884E0,3.523468018E0,8.961992646E0
2.868824912E0,3.366844654E0,7.475262165E0,3.523468018E0,8.923565108E0
2.871230120E0,3.314174414E0,7.451321125E0,3.525862217E0,8.884685865E0
2.873636057E0,3.261504412E0,7.427380085E0,3.466009617E0,8.821372264E0
2.876041474E0,3.182499170E0,7.432168007E0,3.434886456E0,8.784296626E0
2.878446422E0,3.115464449E0,7.422591686E0,3.403763294E0,8.739942256E0
2.880851891E0,3.058005810E0,7.424986362E0,3.372640133E0,8.709565057E0
2.883257516E0,2.971818447E0,7.427380085E0,3.363063335E0,8.678010994E0
2.885663505E0,2.916754246E0,7.436956882E0,3.334334373E0,8.656417776E0
2.888069026E0,2.842537165E0,7.463291645E0,3.298422813E0,8.640621087E0
2.890474235E0,2.763531685E0,7.480050087E0,3.228993893E0,8.603177218E0
2.892880328E0,2.715649843E0,7.468079567E0,3.188294411E0,8.562253660E0
2.895285797E0,2.651009083E0,7.480050087E0,3.154777050E0,8.540000978E0
2.897691005E0,2.603127241E0,7.484838486E0,3.090136051E0,8.505763893E0
2.900096682E0,2.552851200E0,7.499203205E0,3.123653889E0,8.515416113E0
2.902501995E0,2.469057560E0,7.520749569E0,3.159565449E0,8.522955657E0
2.904907724E0,2.423569679E0,7.511173725E0,3.207447052E0,8.519339018E0
2.907313193E0,2.366111517E0,7.535114765E0,3.264905453E0,8.546112909E0
2.909718245E0,2.361323118E0,7.551873207E0,3.319969654E0,8.580724579E0
2.912124443E0,2.351746798E0,7.559055805E0,3.360669613E0,8.600240573E0
2.914530432E0,2.315835476E0,7.547085285E0,3.401369095E0,8.595981734E0
2.916935745E0,2.311047077E0,7.544690609E0,3.473192215E0,8.621273638E0
2.919341474E0,2.327805996E0,7.518355846E0,3.513891697E0,8.619268545E0
2.921747307E0,2.351746798E0,7.518355846E0,3.549803257E0,8.640456631E0
2.924153453E0,2.358929157E0,7.506385326E0,3.590503216E0,8.648819618E0
2.926559339E0,2.375687599E0,7.489626884E0,3.583320618E0,8.635889594E0
2.928964755E0,2.402022839E0,7.453715324E0,3.609655857E0,8.623062174E0
2.931370901E0,2.430752277E0,7.410621166E0,3.600079060E0,8.589902906E0
2.933776578E0,2.397234678E0,7.401045322E0,3.624020100E0,8.582291515E0
2.936181787E0,2.375687599E0,7.367527485E0,3.671902180E0,8.567801260E0
2.938587307E0,2.344564438E0,7.343586445E0,3.743725300E0,8.569756321E0
2.940992880E0,2.299076557E0,7.357951164E0,3.813154221E0,8.600310661E0
2.943398974E0,2.265559196E0,7.357951164E0,3.884976864E0,8.623528804E0
2.945804651E0,2.222465515E0,7.369921684E0,3.949617863E0,8.651854128E0
2.948210120E0,2.155430555E0,7.367527485E0,3.975952625E0,8.644914193E0
2.950616422E0,2.129095554E0,7.398650646E0,4.040593147E0,8.694795699E0
2.953022464E0,2.090790033E0,7.446532726E0,4.074110985E0,8.741889551E0
2.955428141E0,2.062060833E0,7.477656364E0,4.105233669E0,8.776125743E0
2.957833974E0,2.033331633E0,7.515961647E0,4.112416267E0,8.805457658E0
2.960239755E0,2.030937672E0,7.563843727E0,4.095657825E0,8.838034441E0
2.962646057E0,2.014178991E0,7.618907928E0,4.078898907E0,8.873674060E0
2.965051787E0,1.997420192E0,7.669184208E0,4.086081505E0,8.916397025E0
2.967456891E0,2.002208471E0,7.721854210E0,4.078898907E0,8.959536120E0
2.969862672E0,2.030937672E0,7.786494732E0,4.038199425E0,9.003402836E0
2.972268037E0,2.059666634E0,7.824800491E0,4.031017303E0,9.039846784E0
2.974673089E0,2.086001873E0,7.863106251E0,4.009469986E0,9.069492450E0
2.977078557E0,2.109942913E0,7.918169975E0,3.983135223E0,9.111237076E0
2.979483974E0,2.148248434E0,7.951687336E0,3.968770504E0,9.143054311E0
2.981890172E0,2.188948154E0,7.978023052E0,3.928071022E0,9.158061356E0
2.984295797E0,2.205706596E0,8.011539459E0,3.868218422E0,9.165861654E0
2.986700745E0,2.198524475E0,8.016327858E0,3.837095261E0,9.155234690E0
2.989106787E0,2.208101034E0,8.045057297E0,3.873006344E0,9.197762512E0
2.991512516E0,2.179371595E0,8.054634094E0,3.815548420E0,9.175249353E0
2.993917776E0,2.117125273E0,8.037874222E0,3.762877941E0,9.124083068E0
2.996323505E0,2.088395834E0,8.064209938E0,3.695843220E0,9.113294475E0
2.998729391E0,2.023755074E0,8.092939377E0,3.707813740E0,9.129027061E0
3.001135537E0,1.995026231E0,8.114485741E0,3.777242661E0,9.170200140E0
3.003540849E0,1.937567830E0,8.138426781E0,3.880188942E0,9.221931782E0
3.005945797E0,1.901656508E0,8.174338341E0,3.916100502E0,9.261314590E0
3.008351630E0,1.868138909E0,8.198279381E0,3.959194183E0,9.293919860E0
3.010757412E0,1.851380229E0,8.217432022E0,3.966376305E0,9.310528384E0
3.013162672E0,1.875321269E0,8.274890900E0,3.995105743E0,9.378247126E0
3.015568037E0,1.918414950E0,8.320378304E0,3.973558426E0,9.417970992E0
3.017973610E0,1.954326510E0,8.380230904E0,3.966376305E0,9.475220478E0
3.020379755E0,2.021361113E0,8.432900429E0,3.978346825E0,9.540804675E0
3.022785276E0,2.066849232E0,8.504723549E0,3.971164703E0,9.611052881E0
3.025190328E0,2.112336874E0,8.543029785E0,3.937647343E0,9.641078341E0
3.027596057E0,2.172189474E0,8.607670784E0,3.949617863E0,9.716474911E0
3.030001474E0,2.198524475E0,8.665128708E0,3.937647343E0,9.768471323E0
3.032406735E0,2.222465515E0,8.691463470E0,3.944829464E0,9.800131107E0
3.034812255E0,2.232041836E0,8.741739273E0,3.949617863E0,9.848832293E0
3.037217568E0,2.217677116E0,8.796803474E0,3.980741024E0,9.906974425E0
3.039623349E0,2.222465515E0,8.820744514E0,3.999893665E0,9.937003376E0
3.042028766E0,2.196130514E0,8.854262352E0,4.026228905E0,9.971532993E0
3.044433870E0,2.179371595E0,8.868626595E0,4.040593147E0,9.986420340E0
3.046839807E0,2.148248434E0,8.871020317E0,4.052563667E0,9.986653347E0
3.049245485E0,2.157824993E0,8.887779236E0,4.052563667E0,1.000360439E1
3.051650797E0,2.148248434E0,8.885385513E0,4.052563667E0,9.999415950E0
3.054056526E0,2.129095554E0,8.885385513E0,4.126780987E0,1.002563938E1
3.056462255E0,2.133883953E0,8.897356987E0,4.119598866E0,1.003431696E1
3.058868401E0,2.155430555E0,8.892567635E0,4.148327827E0,1.004650505E1
3.061274339E0,2.136277914E0,8.861444473E0,4.172268867E0,1.002480469E1
3.063679912E0,2.157824993E0,8.837503433E0,4.169874668E0,1.000727387E1
3.066086214E0,2.160218954E0,8.825533867E0,4.174663067E0,9.999220254E0
3.068492099E0,2.186553955E0,8.808774948E0,4.181845188E0,9.993165838E0
3.070897776E0,2.232041836E0,8.801592827E0,4.181845188E0,9.996893329E0
3.073303766E0,2.217677116E0,8.765680313E0,4.179451466E0,9.961077135E0
3.075709547E0,2.234436035E0,8.744133949E0,4.165086269E0,9.939845399E0
3.078115953E0,2.222465515E0,8.734558105E0,4.174663067E0,9.932757421E0
3.080522151E0,2.229647636E0,8.710617065E0,4.129174709E0,9.894253990E0
3.082927724E0,2.241618156E0,8.686676025E0,4.100445747E0,9.863916446E0
3.085333714E0,2.215283155E0,8.672310829E0,4.035805225E0,9.818562950E0
3.087739130E0,2.181765556E0,8.665128708E0,3.990317345E0,9.786071172E0
3.090144026E0,2.150642395E0,8.641187668E0,3.997499466E0,9.760911279E0
3.092549287E0,2.129095554E0,8.655552864E0,4.014258385E0,9.775781996E0
3.094954807E0,2.143460274E0,8.667522430E0,4.016652584E0,9.790498711E0
3.097360693E0,2.138671875E0,8.679493904E0,4.026228905E0,9.803981386E0
3.099766214E0,2.131489754E0,8.679493904E0,4.014258385E0,9.797506488E0
3.102171526E0,2.150642395E0,8.703434944E0,4.045381546E0,9.835657293E0
3.104577568E0,2.143460274E0,8.729769707E0,4.062140465E0,9.864293499E0
3.106983401E0,2.162612915E0,8.780045509E0,4.059746265E0,9.911994426E0
3.109389078E0,2.138671875E0,8.799198151E0,4.052563667E0,9.920840577E0
3.111794703E0,2.124307394E0,8.811168671E0,4.090869427E0,9.944073004E0
3.114200380E0,2.105154753E0,8.873415947E0,4.095657825E0,9.997179608E0
3.116606578E0,2.071637154E0,8.859050751E0,4.119598866E0,9.987269673E0
3.119012151E0,2.028543472E0,8.899750710E0,4.057352066E0,9.989126944E0
3.121417047E0,1.995026231E0,8.914114952E0,4.054958344E0,9.994211435E0
3.123822828E0,1.939962029E0,8.909326553E0,4.045381546E0,9.975202462E0
3.126228453E0,1.925597310E0,8.875809669E0,4.031017303E0,9.936650481E0
3.128633557E0,1.877715468E0,8.871020317E0,3.932858944E0,9.883733926E0
3.131038974E0,1.822651029E0,8.842291832E0,3.844277382E0,9.812576125E0
3.133444287E0,1.758010387E0,8.813562393E0,3.724572659E0,9.728408095E0
3.135849964E0,1.712522507E0,8.772862434E0,3.662325859E0,9.659631428E0
3.138255485E0,1.650276065E0,8.724980354E0,3.626414299E0,9.591640837E0
3.140660641E0,1.590423584E0,8.689069748E0,3.592896938E0,9.536156913E0
3.143066266E0,1.528176904E0,8.662734985E0,3.542621136E0,9.483062089E0
3.145471578E0,1.509024143E0,8.605276108E0,3.513891697E0,9.416759826E0
3.147876474E0,1.492265463E0,8.566970825E0,3.504315376E0,9.375503804E0
3.150281630E0,1.492265463E0,8.547817230E0,3.549803257E0,9.375134067E0
3.152686735E0,1.532965183E0,8.533453941E0,3.561773777E0,9.373155865E0
3.155092099E0,1.554512024E0,8.514300346E0,3.561773777E0,9.359276172E0
3.157497255E0,1.626335025E0,8.519088745E0,3.590503216E0,9.386775378E0
3.159902464E0,1.722098947E0,8.531058311E0,3.592896938E0,9.415598181E0
3.162308349E0,1.765192747E0,8.547817230E0,3.619232178E0,9.448805554E0
3.164713662E0,1.827439308E0,8.545423508E0,3.635990620E0,9.464894354E0
3.167118766E0,1.884897590E0,8.576546669E0,3.662325859E0,9.514337727E0
3.169524391E0,1.923203349E0,8.586123466E0,3.679084778E0,9.537079852E0
3.171930016E0,1.959114671E0,8.629217148E0,3.707813740E0,9.594237938E0
3.174336057E0,1.995026231E0,8.643581390E0,3.750907421E0,9.631247863E0
3.176741630E0,2.009390593E0,8.665128708E0,3.815548420E0,9.678869553E0
3.179146526E0,2.006996632E0,8.684281349E0,3.839489460E0,9.704970754E0
3.181552255E0,1.995026231E0,8.684281349E0,3.892159462E0,9.723465303E0
3.183957568E0,1.961508870E0,8.703434944E0,3.906523705E0,9.739518691E0
3.186362255E0,1.916020989E0,8.708222389E0,3.935253143E0,9.746306527E0
3.188767672E0,1.882503629E0,8.696251869E0,3.978346825E0,9.746581962E0
3.191173193E0,1.844198108E0,8.686676025E0,3.956799984E0,9.721917154E0
3.193578922E0,1.781951427E0,8.660340309E0,3.940041542E0,9.679915935E0
3.195984182E0,1.724493027E0,8.657946587E0,3.940041542E0,9.667359652E0
3.198389026E0,1.681399345E0,8.631611824E0,3.894553661E0,9.617659521E0
3.200794703E0,1.647881866E0,8.636399269E0,3.880188942E0,9.610347195E0
3.203199964E0,1.628728986E0,8.648369789E0,3.875400543E0,9.615913243E0
3.205605016E0,1.655064106E0,8.634005547E0,3.901735783E0,9.618151126E0
3.208010537E0,1.700551987E0,8.657946587E0,3.961587906E0,9.671923019E0
3.210416005E0,1.748434067E0,8.665128708E0,4.071716785E0,9.732438276E0
3.212821891E0,1.829833388E0,8.696251869E0,4.081293106E0,9.779061316E0
3.215227307E0,1.937567830E0,8.720192909E0,3.657537937E0,9.652643018E0
3.217632203E0,2.038120031E0,8.732163429E0,4.177056789E0,9.892037952E0
3.220037880E0,2.186553955E0,8.775257111E0,3.944829464E0,9.866500649E0
3.222443245E0,2.248800755E0,8.808774948E0,3.935253143E0,9.906454372E0
3.224848089E0,2.325411558E0,8.813562393E0,4.236909389E0,1.005175717E1
3.227253193E0,2.409205198E0,8.847079277E0,3.746119499E0,9.904973131E0
3.229658193E0,2.445116758E0,8.813562393E0,4.275214672E0,1.009628340E1
3.232063662E0,2.495392561E0,8.842291832E0,3.887371063E0,9.976209834E0
3.234468922E0,2.478633881E0,8.837503433E0,3.928071022E0,9.983728502E0
3.236874078E0,2.504969120E0,8.823138237E0,4.160298347E0,1.007128199E1
3.239279964E0,2.521727800E0,8.811168671E0,3.712602139E0,9.888337529E0
3.241685172E0,2.495392561E0,8.753710747E0,4.239303589E0,1.004122158E1
3.244089912E0,2.538486481E0,8.789621353E0,3.889765263E0,9.941409907E0
3.246495120E0,2.557639122E0,8.768074989E0,4.090869427E0,1.000779044E1
3.248900485E0,2.593550682E0,8.782439232E0,4.291974068E0,1.011329745E1
3.251306266E0,2.651009083E0,8.799198151E0,3.899341583E0,9.982915508E0
3.253711630E0,2.660585403E0,8.792016029E0,4.397314072E0,1.018403808E1
3.256116787E0,2.696496964E0,8.827927589E0,3.971164703E0,1.004855962E1
3.258522724E0,2.694103003E0,8.830321312E0,4.196209908E0,1.014105236E1
3.260928193E0,2.715649843E0,8.873415947E0,4.303944588E0,1.022918392E1
3.263333297E0,2.718043804E0,8.890173912E0,3.980741024E0,1.011282618E1
3.265739026E0,2.686920643E0,8.882991791E0,4.476319313E0,1.030361685E1
3.268144860E0,2.686920643E0,8.906932831E0,4.007076263E0,1.012964240E1
3.270551110E0,2.648615122E0,8.861444473E0,4.265638828E0,1.018508885E1
3.272957307E0,2.641432762E0,8.882991791E0,4.222544670E0,1.018403622E1
3.275363037E0,2.639038563E0,8.859050751E0,3.896947384E0,1.003162518E1
3.277769391E0,2.593550682E0,8.789621353E0,4.359008312E0,1.014814772E1
3.280175276E0,2.607915401E0,8.801592827E0,3.817942142E0,9.942129613E0
3.282580693E0,2.576792240E0,8.765680313E0,4.198604107E0,1.005511243E1
3.284986682E0,2.591156721E0,8.744133949E0,4.059746265E0,9.982760711E0
3.287392724E0,2.552851200E0,8.717798233E0,3.822730541E0,9.855471783E0
3.289798922E0,2.579186201E0,8.698645592E0,4.248879910E0,1.001856362E1
3.292204547E0,2.603127241E0,8.689069748E0,3.712602139E0,9.801000926E0
3.294609964E0,2.583974361E0,8.660340309E0,4.136357307E0,9.939208698E0
3.297016266E0,2.588762760E0,8.686676025E0,3.853853703E0,9.849478228E0
3.299421839E0,2.586368322E0,8.667522430E0,3.700631618E0,9.772917709E0
3.301826578E0,2.557639122E0,8.679493904E0,4.009469986E0,9.897018838E0
3.304232047E0,2.560033321E0,8.691463470E0,3.468403816E0,9.701810805E0
3.306637776E0,2.548062801E0,8.677098274E0,3.908917904E0,9.852121481E0
3.309043453E0,2.545668840E0,8.698645592E0,3.573744297E0,9.742613267E0
3.311448818E0,2.538486481E0,8.724980354E0,3.822730541E0,9.858116686E0
3.313853922E0,2.526515961E0,8.744133949E0,3.571350098E0,9.777407782E0
3.316259755E0,2.538486481E0,8.753710747E0,3.621626377E0,9.807524819E0
3.318665432E0,2.576792240E0,8.768074989E0,3.580926418E0,9.815397663E0
3.321070849E0,2.583974361E0,8.782439232E0,3.564167976E0,9.824024416E0
3.323476526E0,2.631856441E0,8.782439232E0,3.566562176E0,9.837594876E0
3.325882151E0,2.679738522E0,8.772862434E0,3.568955898E0,9.842843087E0
3.328288141E0,2.715649843E0,8.765680313E0,3.628808498E0,9.868138454E0
3.330693714E0,2.763531685E0,8.741739273E0,3.609655857E0,9.853158291E0
3.333099026E0,2.809019566E0,8.736951828E0,3.561773777E0,9.844346124E0
3.335505172E0,2.830566645E0,8.703434944E0,3.545014858E0,9.814734724E0
3.337910849E0,2.840142965E0,8.672310829E0,3.513891697E0,9.778692246E0
3.340316266E0,2.859295607E0,8.641187668E0,3.528256416E0,9.761879379E0
3.342721995E0,2.883236647E0,8.610064507E0,3.552197456E0,9.750095955E0
3.345127724E0,2.904783726E0,8.598093987E0,3.614443779E0,9.768786646E0
3.347533974E0,2.907177687E0,8.574152946E0,3.671902180E0,9.769884670E0
3.349939703E0,2.931118727E0,8.559788704E0,3.741331100E0,9.790760851E0
3.352344703E0,2.959847927E0,8.526270866E0,3.815548420E0,9.798796068E0
3.354750380E0,3.005335569E0,8.531058311E0,3.880188942E0,9.842096526E0
3.357155797E0,2.998153448E0,8.531058311E0,3.944829464E0,9.865574464E0
3.359560797E0,3.005335569E0,8.514300346E0,4.035805225E0,9.890049347E0
3.361966318E0,3.029276609E0,8.526270866E0,4.095657825E0,9.932181265E0
3.364371891E0,3.024488688E0,8.535847664E0,4.193815708E0,9.979795457E0
3.366777620E0,3.017306089E0,8.543029785E0,4.268033028E0,1.001516849E1
3.369182985E0,2.990971088E0,8.523877144E0,4.332673550E0,1.001870499E1
3.371588141E0,2.916754246E0,8.492753983E0,4.366190910E0,9.984886009E0
3.373994130E0,2.902389526E0,8.511906624E0,4.414072990E0,1.001800677E1
3.376399651E0,2.880842686E0,8.519088745E0,4.476319313E0,1.004547471E1
3.378804807E0,2.840142965E0,8.495147705E0,4.485896111E0,1.001784460E1
3.381210432E0,2.816201925E0,8.502329826E0,4.507442951E0,1.002684635E1
3.383615953E0,2.816201925E0,8.504723549E0,4.519413471E0,1.003426201E1
3.386021891E0,2.799443245E0,8.526270866E0,4.521807194E0,1.004892619E1
3.388427568E0,2.773108244E0,8.543029785E0,4.524201393E0,1.005693221E1
3.390832880E0,2.797049284E0,8.543029785E0,4.497866154E0,1.005174823E1
3.393238870E0,2.792260885E0,8.557394028E0,4.497866154E0,1.006262954E1
3.395644651E0,2.825778484E0,8.564577103E0,4.449984550E0,1.005680702E1
3.398050068E0,2.799443245E0,8.576546669E0,4.416466713E0,1.004486005E1
3.400455589E0,2.835354567E0,8.566970825E0,4.409284592E0,1.004360569E1
3.402860953E0,2.794655085E0,8.574152946E0,4.375767231E0,1.002364877E1
3.405267203E0,2.744378805E0,8.557394028E0,4.315915108E0,9.969339536E0
3.407672880E0,2.698891163E0,8.550211906E0,4.205786228E0,9.903472873E0
3.410077880E0,2.646220922E0,8.543029785E0,4.131569386E0,9.851685575E0
3.412483870E0,2.579186201E0,8.535847664E0,3.990317345E0,9.769110979E0
3.414889287E0,2.507363081E0,8.550211906E0,3.892159462E0,9.723265837E0
3.417294287E0,2.418781757E0,8.559788704E0,3.834701061E0,9.686352258E0
3.419699807E0,2.392446518E0,8.562182426E0,3.827518940E0,9.679084124E0
3.422105328E0,2.334988117E0,8.578940392E0,3.827518940E0,9.679890959E0
3.424511005E0,2.294288397E0,8.581335068E0,3.813154221E0,9.666603121E0
3.426916474E0,2.265559196E0,8.593305588E0,3.844277382E0,9.682774808E0
3.429321943E0,2.196130514E0,8.612458229E0,3.853853703E0,9.687601062E0
3.431727932E0,2.184159994E0,8.638793945E0,3.863430023E0,9.712126814E0
3.434133349E0,2.145854473E0,8.631611824E0,3.849065781E0,9.691476744E0
3.436538349E0,2.117125273E0,8.650763512E0,3.870612621E0,9.710796611E0
3.438943766E0,2.083607674E0,8.653157234E0,3.873006344E0,9.706633258E0
3.441349287E0,2.083607674E0,8.648369789E0,3.839489460E0,9.689035053E0
3.443755485E0,2.062060833E0,8.669917107E0,3.772454262E0,9.677343059E0
3.446161214E0,2.054878712E0,8.703434944E0,3.703025341E0,9.679085857E0
3.448566110E0,2.069243193E0,8.710617065E0,3.681478977E0,9.680387622E0
3.450971943E0,2.093184233E0,8.710617065E0,3.662325859E0,9.678269504E0
3.453377620E0,2.148248434E0,8.736951828E0,3.703025341E0,9.729424200E0
3.455782828E0,2.220071316E0,8.734558105E0,3.741331100E0,9.758011086E0
3.458188297E0,2.263165236E0,8.777651787E0,3.746119499E0,9.808287265E0
3.460593662E0,2.318229437E0,8.780045509E0,3.767666340E0,9.831515474E0
3.462999443E0,2.385264158E0,8.760892868E0,3.774848461E0,9.833219709E0
3.465404703E0,2.440328360E0,8.765680313E0,3.772454262E0,9.850064214E0
3.467809807E0,2.492998600E0,8.782439232E0,3.774848461E0,9.879056726E0
3.470215797E0,2.514545441E0,8.780045509E0,3.765272141E0,9.878735355E0
3.472621266E0,2.519333601E0,8.765680313E0,3.772454262E0,9.869934362E0
3.475026474E0,2.502574921E0,8.751316071E0,3.798789501E0,9.863022654E0
3.477432047E0,2.481028080E0,8.732163429E0,3.870612621E0,9.868526767E0
3.479837516E0,2.445116758E0,8.705828667E0,3.937647343E0,9.862814777E0
3.482243453E0,2.392446518E0,8.657946587E0,3.973558426E0,9.822067298E0
3.484648974E0,2.342170477E0,8.629217148E0,3.966376305E0,9.781681457E0
3.487054078E0,2.289500237E0,8.622035027E0,4.016652584E0,9.783393957E0
3.489460172E0,2.275135756E0,8.581335068E0,4.083687305E0,9.772003697E0
3.491866005E0,2.251194715E0,8.566970825E0,4.148327827E0,9.781078189E0
3.494271318E0,2.270347357E0,8.533453941E0,4.198604107E0,9.777657681E0
3.496677203E0,2.294288397E0,8.533453941E0,4.244091988E0,9.802852249E0
3.499083349E0,2.325411558E0,8.521482468E0,4.268033028E0,9.810163520E0
3.501489912E0,2.385264158E0,8.533453941E0,4.296761990E0,9.847410059E0
3.503895849E0,2.459481239E0,8.533453941E0,4.282397270E0,9.859402138E0
3.506301110E0,2.514545441E0,8.543029785E0,4.282397270E0,9.881559748E0
3.508706995E0,2.583974361E0,8.552605629E0,4.303944588E0,9.917052262E0
3.511112464E0,2.646220922E0,8.545423508E0,4.315915108E0,9.932465520E0
3.513517724E0,2.713255644E0,8.569364548E0,4.303944588E0,9.965927150E0
3.515923505E0,2.768319845E0,8.569364548E0,4.303944588E0,9.981059189E0
3.518329391E0,2.792260885E0,8.562182426E0,4.301550388E0,9.980532275E0
3.520735693E0,2.794655085E0,8.564577103E0,4.260850430E0,9.965787695E0
3.523141474E0,2.785078764E0,8.552605629E0,4.234515190E0,9.941571589E0
3.525546943E0,2.725226164E0,8.559788704E0,4.189027309E0,9.911850993E0
3.527952932E0,2.679738522E0,8.540636063E0,4.189027309E0,9.882884837E0
3.530358401E0,2.627068281E0,8.526270866E0,4.200997829E0,9.861397741E0
3.532763714E0,2.564821720E0,8.509512901E0,4.160298347E0,9.813164760E0
3.535169443E0,2.519333601E0,8.480782509E0,4.121993065E0,9.760201872E0
3.537575120E0,2.459481239E0,8.442477226E0,4.057352066E0,9.684346930E0
3.539981057E0,2.449904919E0,8.432900429E0,4.026228905E0,9.660557072E0
3.542386630E0,2.411599159E0,8.435295105E0,3.971164703E0,9.630169423E0
3.544791891E0,2.409205198E0,8.401777267E0,3.901735783E0,9.571712128E0
3.547198349E0,2.437934399E0,8.452054024E0,3.858642101E0,9.605720182E0
3.549604443E0,2.497786999E0,8.456841469E0,3.801183701E0,9.602401004E0
3.552009599E0,2.502574921E0,8.459236145E0,3.741331100E0,9.582229166E0
3.554415068E0,2.560033321E0,8.514300346E0,3.729360580E0,9.641328297E0
3.556820797E0,2.595944881E0,8.545423508E0,3.693449020E0,9.664613723E0
3.559227099E0,2.662979603E0,8.588518143E0,3.700631618E0,9.723619626E0
3.561632985E0,2.662979603E0,8.619640350E0,3.683872700E0,9.744771839E0
3.564038505E0,2.694103003E0,8.681887627E0,3.686266899E0,9.809277619E0
3.566444651E0,2.679738522E0,8.710617065E0,3.669508457E0,9.824517318E0
3.568850172E0,2.703679323E0,8.724980354E0,3.710207939E0,9.859046963E0
3.571255276E0,2.682132483E0,8.768074989E0,3.734148979E0,9.900345563E0
3.573660953E0,2.686920643E0,8.780045509E0,3.791607380E0,9.934033834E0
3.576066891E0,2.674950123E0,8.801592827E0,3.851459980E0,9.972819984E0
3.578473141E0,2.653403282E0,8.813562393E0,3.899341583E0,9.996214074E0
3.580878610E0,2.670161963E0,8.818350792E0,3.942435265E0,1.002176987E1
3.583283557E0,2.703679323E0,8.820744514E0,3.952012062E0,1.003662369E1
3.585689547E0,2.732408524E0,8.827927589E0,3.947223663E0,1.004882762E1
3.588095380E0,2.777896404E0,8.820744514E0,3.923282623E0,1.004561540E1
3.590500745E0,2.806625605E0,8.818350792E0,3.863430023E0,1.002828747E1
3.592906266E0,2.864084005E0,8.801592827E0,3.817942142E0,1.001237712E1
3.595311630E0,2.880842686E0,8.789621353E0,3.774848461E0,9.990304250E0
3.597717464E0,2.921542406E0,8.760892868E0,3.770060539E0,9.975069441E0
3.600122828E0,2.938300848E0,8.780045509E0,3.753301620E0,9.990499691E0
3.602527724E0,2.935906887E0,8.734558105E0,3.726966381E0,9.939936265E0
3.604933557E0,2.931118727E0,8.734558105E0,3.717390060E0,9.934935891E0
3.607338974E0,2.897601366E0,8.729769707E0,3.667114258E0,9.902156320E0
3.609743974E0,2.888024807E0,8.710617065E0,3.607261658E0,9.860419546E0
3.612149339E0,2.847325087E0,8.720192909E0,3.583320618E0,9.848310067E0
3.614554964E0,2.844931126E0,8.708222389E0,3.566562176E0,9.830927527E0
3.616960901E0,2.873660326E0,8.758499146E0,3.612049580E0,9.900309749E0
3.619366318E0,2.892813206E0,8.765680313E0,3.631202698E0,9.919231453E0
3.621771526E0,2.895207167E0,8.799198151E0,3.681478977E0,9.968018865E0
3.624177307E0,2.926330328E0,8.844685555E0,3.731754780E0,1.003582909E1
3.626582412E0,2.976606607E0,8.911720276E0,3.791607380E0,1.013189181E1
3.628987255E0,3.041247129E0,8.964390755E0,3.906523705E0,1.024062562E1
3.631392880E0,3.034065008E0,9.009879112E0,4.002287865E0,1.031512386E1
3.633798870E0,3.024488688E0,9.069731712E0,4.095657825E0,1.040105659E1
3.636205120E0,2.974212408E0,9.103248596E0,4.222544670E0,1.046637272E1
3.638610693E0,2.952665567E0,9.141554832E0,4.291974068E0,1.052175366E1
3.641015797E0,2.928724766E0,9.191830635E0,4.337461948E0,1.057736996E1
3.643421422E0,2.864084005E0,9.189436913E0,4.390131950E0,1.057931881E1
3.645826526E0,2.818596125E0,9.196619034E0,4.428437233E0,1.058930319E1
3.648231370E0,2.765925884E0,9.182253838E0,4.421255112E0,1.055990664E1
3.650636630E0,2.696496964E0,9.153524399E0,4.404496193E0,1.050988542E1
3.653042047E0,2.655797482E0,9.117613792E0,4.363796711E0,1.045116564E1
3.655447880E0,2.615097761E0,9.088883400E0,4.327885151E0,1.040082341E1
3.657853349E0,2.588762760E0,9.072125435E0,4.258456230E0,1.035082615E1
3.660258662E0,2.552851200E0,9.031425476E0,4.198604107E0,1.028163274E1
3.662664912E0,2.545668840E0,8.976361275E0,4.155510426E0,1.021390026E1
3.665070693E0,2.543274641E0,8.914114952E0,4.093263626E0,1.013333600E1
3.667475797E0,2.514545441E0,8.880598068E0,4.038199425E0,1.007447346E1
3.669881318E0,2.471451759E0,8.820744514E0,4.035805225E0,1.001006151E1
3.672286839E0,2.435540199E0,8.756104469E0,4.023834705E0,9.939439988E0
3.674692724E0,2.380475998E0,8.684281349E0,3.992711544E0,9.850134720E0
3.677098245E0,2.337382078E0,8.619640350E0,3.978346825E0,9.776952399E0
3.679503245E0,2.277529716E0,8.586123466E0,3.947223663E0,9.720557208E0
3.681909026E0,2.265559196E0,8.540636063E0,3.916100502E0,9.664940040E0
3.684314599E0,2.251194715E0,8.507117271E0,3.966376305E0,9.652515885E0
3.686719755E0,2.267953396E0,8.497541428E0,4.009469986E0,9.665799113E0
3.689125016E0,2.294288397E0,8.499936104E0,4.062140465E0,9.696064056E0
3.691530537E0,2.363717318E0,8.514300346E0,4.119598866E0,9.749439202E0
3.693936682E0,2.445116758E0,8.554999352E0,4.155510426E0,9.820126107E0
3.696342307E0,2.519333601E0,8.586123466E0,4.227333069E0,9.896408583E0
3.698747620E0,2.593550682E0,8.610064507E0,4.265638828E0,9.952657462E0
3.701153505E0,2.641432762E0,8.679493904E0,4.339855671E0,1.005709345E1
3.703558662E0,2.710861683E0,8.744133949E0,4.402102470E0,1.015810788E1
3.705963401E0,2.722832203E0,8.753710747E0,4.476319313E0,1.020189696E1
3.708368714E0,2.763531685E0,8.784833908E0,4.528989315E0,1.026265845E1
3.710774130E0,2.713255644E0,8.803986549E0,4.615176678E0,1.030396968E1
3.713179807E0,2.689314604E0,8.794409752E0,4.660665035E0,1.030998809E1
3.715585224E0,2.627068281E0,8.799198151E0,4.679817677E0,1.030670022E1
3.717990380E0,2.550457001E0,8.784833908E0,4.715729237E0,1.029156159E1
3.720396266E0,2.476239920E0,8.763286591E0,4.766005516E0,1.027821797E1
3.722801630E0,2.402022839E0,8.741739273E0,4.823463917E0,1.026905660E1
3.725206526E0,2.349352598E0,8.717798233E0,4.818675518E0,1.023421211E1
3.727611891E0,2.315835476E0,8.698645592E0,4.787552357E0,1.019559643E1
3.730017307E0,2.291894436E0,8.662734985E0,4.725306034E0,1.013036399E1
3.732423193E0,2.265559196E0,8.650763512E0,4.684606075E0,1.009524650E1
3.734829078E0,2.284711838E0,8.648369789E0,4.593630314E0,1.005562766E1
3.737234547E0,2.315835476E0,8.648369789E0,4.519413471E0,1.002908232E1
3.739640328E0,2.354140997E0,8.660340309E0,4.435619831E0,1.001090392E1
3.742045537E0,2.428357840E0,8.679493904E0,4.320703030E0,9.994949269E0
3.744450328E0,2.478633881E0,8.674704552E0,4.253668308E0,9.974358077E0
3.746855432E0,2.514545441E0,8.708222389E0,4.215362549E0,9.996267172E0
3.749260849E0,2.569609642E0,8.744133949E0,4.153115749E0,1.001554505E1
3.751666682E0,2.605521202E0,8.744133949E0,4.081293106E0,9.995277519E0
3.754071735E0,2.588762760E0,8.756104469E0,4.078898907E0,1.000042371E1
3.756476422E0,2.610309362E0,8.729769707E0,4.009469986E0,9.954820122E0
3.758881995E0,2.574397802E0,8.732163429E0,3.947223663E0,9.922639611E0
3.761287255E0,2.514545441E0,8.708222389E0,3.870612621E0,9.855846895E0
3.763692151E0,2.440328360E0,8.693858147E0,3.853853703E0,9.817869440E0
3.766097464E0,2.344564438E0,8.689069748E0,3.856247902E0,9.791198260E0
3.768502828E0,2.306258917E0,8.667522430E0,3.908917904E0,9.783885448E0
3.770908245E0,2.208101034E0,8.645976067E0,3.932858944E0,9.751717377E0
3.773313453E0,2.160218954E0,8.638793945E0,3.928071022E0,9.732679421E0
3.775718401E0,2.153036594E0,8.626822472E0,3.913706303E0,9.714665695E0
3.778124130E0,2.145854473E0,8.622035027E0,3.877794743E0,9.694404133E0
3.780530068E0,2.186553955E0,8.634005547E0,3.894553661E0,9.720834234E0
3.782935745E0,2.224859715E0,8.645976067E0,3.906523705E0,9.744938704E0
3.785341370E0,2.277529716E0,8.653157234E0,3.954405785E0,9.782719297E0
3.787746943E0,2.370899677E0,8.681887627E0,3.999893665E0,9.848628705E0
3.790153089E0,2.454693079E0,8.696251869E0,4.038199425E0,9.897341526E0
3.792559078E0,2.509757519E0,8.741739273E0,4.026228905E0,9.946225792E0
3.794964651E0,2.538486481E0,8.765680313E0,4.016652584E0,9.970685179E0
3.797370901E0,2.533698320E0,8.830321312E0,4.026228905E0,1.003019047E1
3.799777099E0,2.476239920E0,8.808774948E0,4.007076263E0,9.989141125E0
3.802182672E0,2.413993359E0,8.794409752E0,4.054958344E0,9.980565815E0
3.804588557E0,2.339776516E0,8.763286591E0,4.105233669E0,9.956037841E0
3.806994443E0,2.232041836E0,8.710617065E0,4.203392506E0,9.925994609E0
3.809400380E0,2.138671875E0,8.665128708E0,4.270426750E0,9.894186047E0
3.811805797E0,2.042908192E0,8.605276108E0,4.323096752E0,9.844461199E0
3.814210797E0,1.983055711E0,8.571758270E0,4.291974068E0,9.789207894E0
3.816616474E0,1.920809150E0,8.502329826E0,4.311126232E0,9.724450095E0
3.819021787E0,1.892079949E0,8.459236145E0,4.315915108E0,9.683272479E0
3.821426839E0,1.844198108E0,8.387413025E0,4.347037792E0,9.625305267E0
3.823832203E0,1.870533109E0,8.344319344E0,4.351826191E0,9.595048234E0
3.826237724E0,1.851380229E0,8.320378304E0,4.330279350E0,9.560733399E0
3.828643610E0,1.858562589E0,8.289255142E0,4.268033028E0,9.506950701E0
3.831048610E0,1.810680628E0,8.205461502E0,4.212968349E0,9.399854526E0
3.833453297E0,1.860956550E0,8.181520462E0,4.169874668E0,9.369540602E0
3.835858974E0,1.889685988E0,8.138426781E0,4.131569386E0,9.320663559E0
3.838264391E0,1.925597310E0,8.138426781E0,4.117204189E0,9.321656816E0
3.840669547E0,1.956720471E0,8.128850937E0,4.110022545E0,9.316611931E0
3.843075120E0,1.992632031E0,8.133638382E0,4.136357307E0,9.340027169E0
3.845480745E0,2.050090313E0,8.191097260E0,4.174663067E0,9.419381950E0
3.847886474E0,2.124307394E0,8.253343582E0,4.236909389E0,9.517445212E0
3.850291682E0,2.179371595E0,8.291648865E0,4.325491428E0,9.602654713E0
3.852696630E0,2.251194715E0,8.356289864E0,4.421255112E0,9.718176511E0
3.855102464E0,2.308652878E0,8.420930862E0,4.471531391E0,9.810022818E0
3.857508089E0,2.363717318E0,8.485571861E0,4.550536156E0,9.914608851E0
3.859913557E0,2.411599159E0,8.540636063E0,4.548142433E0,9.972154955E0
3.862319391E0,2.452298880E0,8.574152946E0,4.533777714E0,1.000424954E1
3.864725120E0,2.490604401E0,8.657946587E0,4.483501911E0,1.006304818E1
3.867131370E0,2.495392561E0,8.677098274E0,4.476319313E0,1.007752217E1
3.869537203E0,2.526515961E0,8.720192909E0,4.430831432E0,1.010234203E1
3.871942412E0,2.545668840E0,8.732163429E0,4.402102470E0,1.010493019E1
3.874348401E0,2.562427521E0,8.741739273E0,4.339855671E0,1.009050978E1
3.876753974E0,2.540880680E0,8.729769707E0,4.258456230E0,1.003989060E1
3.879159078E0,2.540880680E0,8.739345551E0,4.174663067E0,1.001299391E1
3.881564339E0,2.540880680E0,8.732163429E0,4.090869427E0,9.972059238E0
3.883969599E0,2.504969120E0,8.727375984E0,4.042987823E0,9.939200793E0
3.886375432E0,2.516939640E0,8.710617065E0,3.999893665E0,9.910044609E0
3.888780849E0,2.519333601E0,8.689069748E0,4.014258385E0,9.897537333E0
3.891186214E0,2.473845959E0,8.674704552E0,4.026228905E0,9.878306134E0
3.893592307E0,2.445116758E0,8.634005547E0,4.033411026E0,9.838346012E0
3.895997776E0,2.457087278E0,8.593305588E0,4.021440506E0,9.800722553E0
3.898402985E0,2.445116758E0,8.564577103E0,4.021440506E0,9.772541156E0
3.900808662E0,2.449904919E0,8.547817230E0,4.062140465E0,9.775898867E0
3.903214235E0,2.469057560E0,8.521482468E0,4.126780987E0,9.784795859E0
3.905620016E0,2.457087278E0,8.511906624E0,4.179451466E0,9.795797406E0
3.908025328E0,2.464269400E0,8.471206665E0,4.253668308E0,9.794266696E0
3.910430380E0,2.488210440E0,8.471206665E0,4.268033028E0,9.806561042E0
3.912836474E0,2.497786999E0,8.447265625E0,4.282397270E0,9.794598655E0
3.915242203E0,2.514545441E0,8.435295105E0,4.289579868E0,9.791712707E0
3.917647412E0,2.545668840E0,8.449659348E0,4.308732510E0,9.820506544E0
3.920052880E0,2.567215681E0,8.432900429E0,4.368585110E0,9.838137113E0
3.922458453E0,2.600733280E0,8.452054024E0,4.402102470E0,9.878235519E0
3.924864860E0,2.624674082E0,8.452054024E0,4.428437233E0,9.896321922E0
3.927270849E0,2.624674082E0,8.461630821E0,4.461955070E0,9.919533923E0
3.929676162E0,2.646220922E0,8.504723549E0,4.438014030E0,9.951320332E0
3.932081995E0,2.615097761E0,8.543029785E0,4.397314072E0,9.957834366E0
3.934487412E0,2.572003841E0,8.535847664E0,4.378161430E0,9.931978484E0
3.936892620E0,2.524122000E0,8.566970825E0,4.351826191E0,9.934916818E0
3.939298245E0,2.473845959E0,8.583729744E0,4.318308830E0,9.922102665E0
3.941703974E0,2.378081799E0,8.617246628E0,4.349432468E0,9.941316577E0
3.944109964E0,2.306258917E0,8.643581390E0,4.327885151E0,9.937852853E0
3.946515641E0,2.227253675E0,8.669917107E0,4.339855671E0,9.947988179E0
3.948920745E0,2.141066074E0,8.674704552E0,4.347037792E0,9.936367574E0
3.951326787E0,2.071637154E0,8.686676025E0,4.323096752E0,9.921652402E0
3.953732724E0,2.004602432E0,8.732163429E0,4.272820950E0,9.926031832E0
3.956138089E0,1.983055711E0,8.724980354E0,4.234515190E0,9.898934843E0
3.958543870E0,1.954326510E0,8.768074989E0,4.193815708E0,9.913960930E0
3.960949599E0,1.985449672E0,8.777651787E0,4.129174709E0,9.901477923E0
3.963355537E0,2.009390593E0,8.799198151E0,4.078898907E0,9.904592619E0
3.965761110E0,2.057272673E0,8.827927589E0,4.016652584E0,9.914543578E0
3.968166422E0,2.088395834E0,8.825533867E0,4.014258385E0,9.917949162E0
3.970572516E0,2.100366354E0,8.796803474E0,4.002287865E0,9.890075750E0
3.972978193E0,2.148248434E0,8.792016029E0,4.033411026E0,9.908729570E0
3.975383557E0,2.150642395E0,8.796803474E0,4.045381546E0,9.918373149E0
3.977789026E0,2.162612915E0,8.777651787E0,4.074110985E0,9.915767536E0
3.980194547E0,2.121913433E0,8.746527672E0,4.119598866E0,9.898250236E0
3.982600901E0,2.133883953E0,8.698645592E0,4.155510426E0,9.873609409E0
3.985006943E0,2.133883953E0,8.679493904E0,4.210574150E0,9.880081469E0
3.987412880E0,2.117125273E0,8.634005547E0,4.246485710E0,9.851949659E0
3.989819703E0,2.086001873E0,8.586123466E0,4.294367790E0,9.824180104E0
3.992226005E0,2.064455032E0,8.540636063E0,4.325491428E0,9.793585402E0
3.994631891E0,2.026149511E0,8.509512901E0,4.349432468E0,9.769066202E0
3.997037880E0,1.968690991E0,8.461630821E0,4.315915108E0,9.700621815E0
3.999443714E0,1.968690991E0,8.432900429E0,4.299155712E0,9.668107038E0
4.001849964E0,1.971085191E0,8.401777267E0,4.277609348E0,9.631873121E0
4.004255901E0,1.963903069E0,8.365866661E0,4.258456230E0,9.590572961E0
4.006661318E0,1.951932549E0,8.373048782E0,4.210574150E0,9.573239852E0
4.009067516E0,1.947144389E0,8.339531898E0,4.172268867E0,9.526121512E0
4.011473505E0,1.954326510E0,8.337136269E0,4.129174709E0,9.506698536E0
4.013879287E0,1.954326510E0,8.310802460E0,4.054958344E0,9.451535156E0
4.016285485E0,1.954326510E0,8.320378304E0,4.038199425E0,9.452784871E0
4.018691370E0,1.951932549E0,8.317984581E0,4.009469986E0,9.437942452E0
4.021097568E0,1.951932549E0,8.298831940E0,3.992711544E0,9.413946979E0
4.023503401E0,1.944749951E0,8.291648865E0,3.944829464E0,9.385902874E0
4.025908505E0,1.966297030E0,8.291648865E0,3.918494225E0,9.379358288E0
4.028314235E0,1.966297030E0,8.296437263E0,3.913706303E0,9.381593271E0
4.030719755E0,1.971085191E0,8.301225662E0,3.963982582E0,9.407905305E0
4.033125068E0,1.968690991E0,8.313196182E0,3.954405785E0,9.413941794E0
4.035530537E0,1.973479390E0,8.327560425E0,3.952012062E0,9.426626272E0
4.037935693E0,1.966297030E0,8.349107742E0,3.935253143E0,9.437168082E0
4.040341474E0,1.975873590E0,8.370655060E0,3.937647343E0,9.459228783E0
4.042746839E0,1.956720471E0,8.385018349E0,3.983135223E0,9.486972853E0
4.045152099E0,1.987843871E0,8.428112984E0,4.028623104E0,9.550623845E0
4.047558193E0,1.983055711E0,8.464024544E0,4.052563667E0,9.591428137E0
4.049963453E0,1.995026231E0,8.483176231E0,4.124386787E0,9.641316041E0
4.052368141E0,2.004602432E0,8.487965584E0,4.200997829E0,9.680515143E0
4.054773297E0,2.002208471E0,8.516695023E0,4.217756748E0,9.712487058E0
4.057178557E0,2.006996632E0,8.511906624E0,4.248879910E0,9.722837566E0
4.059584287E0,2.035725594E0,8.509512901E0,4.236909389E0,9.721491125E0
4.061989860E0,2.047696114E0,8.485571861E0,4.258456230E0,9.712488798E0
4.064394964E0,2.066849232E0,8.497541428E0,4.299155712E0,9.744886654E0
4.066800797E0,2.107548714E0,8.504723549E0,4.344644070E0,9.779980384E0
4.069206422E0,2.131489754E0,8.475995064E0,4.394919872E0,9.782691939E0
4.071611578E0,2.162612915E0,8.459236145E0,4.488289833E0,9.817347728E0
4.074017099E0,2.203312635E0,8.440083504E0,4.598418236E0,9.860783254E0
4.076422724E0,2.212889194E0,8.435295105E0,4.634329796E0,9.875631360E0
4.078828610E0,2.227253675E0,8.420930862E0,4.663058758E0,9.880124114E0
4.081233662E0,2.208101034E0,8.351501465E0,4.617571354E0,9.795164731E0
4.083638245E0,2.215283155E0,8.334742546E0,4.624753475E0,9.785895844E0
4.086043766E0,2.227253675E0,8.301225662E0,4.658270836E0,9.776016244E0
4.088448922E0,2.232041836E0,8.282073021E0,4.698970318E0,9.780340808E0
4.090853714E0,2.263165236E0,8.253343582E0,4.682211876E0,9.755137376E0
4.093258974E0,2.299076557E0,8.238979340E0,4.624753475E0,9.723933272E0
