"Time (s)","Acceleration x (m/s^2)","Acceleration y (m/s^2)","Acceleration z (m/s^2)","Absolute acceleration (m/s^2)"
2.047370000E-2,3.527249098E0,-5.026721954E0,7.619771004E0,9.786231652E0
2.287666900E-2,3.527249098E0,-5.026721954E0,7.619771004E0,9.786231652E0
2.532469000E-2,3.579919338E0,-5.060238838E0,7.612588882E0,9.816992873E0
2.781776300E-2,3.579919338E0,-5.060238838E0,7.612588882E0,9.816992873E0
3.031099200E-2,3.599072218E0,-5.053056717E0,7.562313080E0,9.781374246E0
3.280463800E-2,3.639771938E0,-5.065027237E0,7.564706802E0,9.804449484E0
3.529849200E-2,3.668501139E0,-5.093756199E0,7.579071522E0,9.841065895E0
3.779229400E-2,3.702018499E0,-5.098544598E0,7.571888924E0,9.850563428E0
4.028599200E-2,3.759476900E0,-5.112909317E0,7.586253643E0,9.890740750E0
4.277974200E-2,3.773841381E0,-5.120091438E0,7.588647842E0,9.901756974E0
4.527354400E-2,3.804964781E0,-5.156002998E0,7.540765762E0,9.895719892E0
4.774672100E-2,3.843270540E0,-5.196702957E0,7.528795242E0,9.922661330E0
5.019547100E-2,3.874393702E0,-5.218249321E0,7.471336842E0,9.902622215E0
5.264088800E-2,3.907911062E0,-5.261343479E0,7.471336842E0,9.938529986E0
5.508630400E-2,3.898334742E0,-5.287678242E0,7.447395802E0,9.930773342E0
5.753088800E-2,3.919881582E0,-5.318801880E0,7.406696320E0,9.925435780E0
5.997552300E-2,3.931852102E0,-5.359501362E0,7.365996361E0,9.921774952E0
6.242094000E-2,3.951004744E0,-5.369077682E0,7.315720558E0,9.897333021E0
6.486630400E-2,3.962975264E0,-5.407383442E0,7.239109516E0,9.866593901E0
6.731094000E-2,4.003674984E0,-5.433718204E0,7.222351074E0,9.885194077E0
6.975552300E-2,3.994098425E0,-5.445688725E0,7.198410034E0,9.870433371E0
7.220094000E-2,3.996492624E0,-5.455265522E0,7.152921677E0,9.843584902E0
7.464635600E-2,3.970157862E0,-5.495965004E0,7.162498474E0,9.862513329E0
7.709094000E-2,3.943822622E0,-5.519906044E0,7.148133278E0,9.854892641E0
7.953557500E-2,3.886364222E0,-5.565393925E0,7.191227436E0,9.888942736E0
8.198099200E-2,3.831300020E0,-5.591728687E0,7.246292114E0,9.922451258E0
8.442635600E-2,3.800176382E0,-5.625246525E0,7.322902679E0,9.985471579E0
8.687099200E-2,3.754688740E0,-5.644399166E0,7.404302597E0,1.003895545E1
8.931557500E-2,3.728353739E0,-5.658763885E0,7.524006844E0,1.012585351E1
9.176099200E-2,3.735535860E0,-5.689887047E0,7.660470963E0,1.024752937E1
9.420635600E-2,3.723565340E0,-5.709039688E0,7.854393005E0,1.039949818E1
9.665099200E-2,3.733141661E0,-5.725798130E0,8.033949852E0,1.054824446E1
9.909557500E-2,3.771447420E0,-5.732980728E0,8.156049728E0,1.065889445E1
1.015409920E-1,3.812146902E0,-5.752133369E0,8.177596092E0,1.070012057E1
1.039864080E-1,3.792994261E0,-5.761709690E0,8.108167648E0,1.064549138E1
1.064310440E-1,3.828905582E0,-5.788044930E0,8.105772972E0,1.067077961E1
1.088756270E-1,3.881575823E0,-5.809591770E0,8.338001251E0,1.087843060E1
1.113210440E-1,3.972551584E0,-5.816774368E0,8.529528618E0,1.106204721E1
1.137664080E-1,4.075498104E0,-5.843109131E0,8.637263298E0,1.119615677E1
1.162110440E-1,4.132956505E0,-5.883808613E0,8.723450661E0,1.130482750E1
1.186556270E-1,4.168868065E0,-5.912538528E0,8.716267586E0,1.132743984E1
1.211010440E-1,4.197597027E0,-5.936479568E0,8.694722176E0,1.133401095E1
1.235464600E-1,4.164079666E0,-5.972390652E0,8.673174858E0,1.132399981E1
1.259910960E-1,4.065921783E0,-6.008302212E0,8.728239059E0,1.134960671E1
1.284356790E-1,3.994098425E0,-6.063366413E0,8.737814903E0,1.136075014E1
1.308810960E-1,3.879182100E0,-6.099277973E0,8.773726463E0,1.136782836E1
1.333264600E-1,3.797782421E0,-6.144765854E0,8.733026505E0,1.133344831E1
1.357710960E-1,3.761870861E0,-6.175889015E0,8.692326546E0,1.130706939E1
1.382156790E-1,3.745112181E0,-6.159130573E0,8.582199097E0,1.120780514E1
1.406610960E-1,3.771447420E0,-6.178283215E0,8.481646538E0,1.115048551E1
1.431065130E-1,3.831300020E0,-6.192647934E0,8.352364540E0,1.108105328E1
1.455511480E-1,3.876787901E0,-6.192647934E0,8.256601334E0,1.102496433E1
1.479957310E-1,3.948610544E0,-6.211800098E0,8.182384491E0,1.100588032E1
1.504411480E-1,4.025222301E0,-6.197435856E0,8.100984573E0,1.096524404E1
1.528865130E-1,4.109015465E0,-6.199830055E0,8.007615089E0,1.092903473E1
1.553311480E-1,4.166473866E0,-6.187859535E0,7.954944611E0,1.090551484E1
1.577757310E-1,4.231114864E0,-6.180677414E0,7.954944611E0,1.092630999E1
1.602211480E-1,4.293361187E0,-6.161524296E0,7.971703529E0,1.095195823E1
1.626665650E-1,4.360395432E0,-6.147160053E0,8.017190933E0,1.100345289E1
1.651112000E-1,4.432218552E0,-6.139977455E0,8.086620331E0,1.107868732E1
1.675557830E-1,4.527982712E0,-6.123219013E0,8.019585609E0,1.105939383E1
1.700012000E-1,4.626140594E0,-6.120824814E0,8.589381218E0,1.151708049E1
1.724465650E-1,4.736268997E0,-6.096883774E0,7.923821449E0,1.106305483E1
1.748912000E-1,4.788939476E0,-6.104065895E0,8.737814903E0,1.168516029E1
1.773357830E-1,4.937373638E0,-6.068154812E0,8.254207611E0,1.137242738E1
1.797812000E-1,5.006802559E0,-6.099277973E0,8.711480141E0,1.175411204E1
1.822266170E-1,5.138478279E0,-6.070549011E0,8.718662262E0,1.180129637E1
1.846712000E-1,5.217483044E0,-6.111248493E0,8.654022217E0,1.180938559E1
1.871158350E-1,5.301276684E0,-6.123219013E0,9.058625221E0,1.215138002E1
1.895612520E-1,5.418587685E0,-6.139977455E0,8.553469658E0,1.184154799E1
1.920066170E-1,5.478440285E0,-6.199830055E0,9.223816872E0,1.239072227E1
1.944512520E-1,5.583780289E0,-6.197435856E0,8.493617058E0,1.190497141E1
1.968958350E-1,5.619691849E0,-6.252500534E0,9.140024185E0,1.241832281E1
1.993412520E-1,5.691514492E0,-6.247711658E0,8.596563339E0,1.205521213E1
2.017866690E-1,5.677150249E0,-6.295593739E0,8.977225304E0,1.234727134E1
2.042312520E-1,5.701091290E0,-6.314746857E0,8.926948547E0,1.233162115E1
2.066758880E-1,5.696303368E0,-6.326717377E0,8.859913826E0,1.228711918E1
2.091213040E-1,5.684332848E0,-6.365022659E0,9.238182068E0,1.257653216E1
2.115666690E-1,5.674756050E0,-6.326717377E0,8.723450661E0,1.217903118E1
2.140113040E-1,5.617297649E0,-6.338687897E0,9.391404152E0,1.264640143E1
2.164558880E-1,5.653209209E0,-6.302776337E0,8.668385506E0,1.211712306E1
2.189013040E-1,5.581386089E0,-6.309958458E0,9.300427437E0,1.254852170E1
2.213466690E-1,5.612509727E0,-6.214194775E0,8.756967545E0,1.211614471E1
2.237913040E-1,5.571809769E0,-6.230953217E0,9.058625221E0,1.232592929E1
2.262358880E-1,5.547868729E0,-6.163918495E0,8.864703178E0,1.213901566E1
2.286813040E-1,5.509562969E0,-6.149553776E0,8.725845337E0,1.201302096E1
2.311267210E-1,5.483228207E0,-6.111248493E0,9.017925262E0,1.219574212E1
2.335713560E-1,5.471257687E0,-6.063366413E0,8.400246620E0,1.171593855E1
2.360159400E-1,5.394646645E0,-5.998725891E0,8.977225304E0,1.206969340E1
2.384613560E-1,5.404222965E0,-5.917326450E0,8.218296051E0,1.147870934E1
2.409067210E-1,5.325217724E0,-5.879020691E0,8.871885300E0,1.190088975E1
2.433513560E-1,5.306064606E0,-5.792833328E0,8.354759216E0,1.146792227E1
2.457959400E-1,5.262970924E0,-5.740162849E0,8.833579063E0,1.177626645E1
2.482413560E-1,5.270153522E0,-5.625246525E0,8.814425468E0,1.170948389E1
2.506867730E-1,5.272547722E0,-5.558211327E0,8.876672745E0,1.172556146E1
2.531314080E-1,5.315640926E0,-5.483994484E0,9.295639992E0,1.203075878E1
2.555759920E-1,5.341976166E0,-5.373865604E0,8.917372704E0,1.170190911E1
2.580214080E-1,5.413799286E0,-5.290072441E0,9.659543037E0,1.227195424E1
2.604667730E-1,5.507169247E0,-5.167973518E0,9.084959984E0,1.181411703E1
2.629114080E-1,5.588568687E0,-5.124879837E0,9.834312439E0,1.241813973E1
2.653559920E-1,5.732214451E0,-5.000386238E0,9.381828308E0,1.207811440E1
2.678014080E-1,5.851919651E0,-4.938139915E0,9.870223999E0,1.249205793E1
2.702468250E-1,5.976412773E0,-4.839982033E0,9.738549232E0,1.240895954E1
2.726914600E-1,6.086541176E0,-4.780129433E0,9.717001915E0,1.242238894E1
2.751360440E-1,6.196669579E0,-4.708306313E0,1.003541660E1,1.269946647E1
2.775814600E-1,6.254127979E0,-4.626907349E0,9.520686150E0,1.229495234E1
2.800268250E-1,6.325951099E0,-4.595783710E0,1.014075661E1,1.280522666E1
2.824714600E-1,6.388197422E0,-4.514384270E0,9.396191597E0,1.222608474E1
2.849160440E-1,6.364256859E0,-4.488049507E0,1.007851124E1,1.273666921E1
2.873614600E-1,6.359467983E0,-4.425802708E0,9.458438873E0,1.222671782E1
2.898068770E-1,6.282856941E0,-4.394679546E0,9.886982918E0,1.251159186E1
2.922514600E-1,6.232581139E0,-4.325250626E0,9.640391350E0,1.226743681E1
2.946960960E-1,6.127240658E0,-4.306097984E0,9.582931519E0,1.216215994E1
2.971415130E-1,6.069782257E0,-4.246245384E0,9.853465080E0,1.232735294E1
2.995868770E-1,5.988383293E0,-4.183999062E0,9.321974754E0,1.184338617E1
3.020315130E-1,5.895013332E0,-4.145693302E0,9.937258720E0,1.227546602E1
3.044760960E-1,5.823190212E0,-4.093023300E0,9.204665184E0,1.163564545E1
3.069215130E-1,5.715455532E0,-4.085840702E0,9.908530235E0,1.214658378E1
3.093669290E-1,5.669967651E0,-3.990077019E0,9.254940987E0,1.156387394E1
3.118115130E-1,5.586174488E0,-3.968530416E0,9.657149315E0,1.184124622E1
3.142561480E-1,5.574203968E0,-3.906283617E0,9.360280991E0,1.157348961E1
3.167015650E-1,5.497592449E0,-3.879948616E0,9.252547264E0,1.144059242E1
3.191469290E-1,5.452105045E0,-3.805731535E0,9.381828308E0,1.149903232E1
3.215915650E-1,5.440134525E0,-3.760243654E0,8.833579063E0,1.103479112E1
3.240361480E-1,5.392252445E0,-3.702785254E0,9.381828308E0,1.143703228E1
3.264815650E-1,5.375493526E0,-3.616597891E0,8.610927582E0,1.077607465E1
3.289269290E-1,5.313247204E0,-3.575898170E0,9.219028473E0,1.122533427E1
3.313715650E-1,5.318035126E0,-3.475345850E0,8.469676018E0,1.058748970E1
3.338161480E-1,5.251000881E0,-3.422675848E0,8.843155861E0,1.083924009E1
3.362615650E-1,5.277335644E0,-3.314941406E0,8.515163422E0,1.055211430E1
3.387069810E-1,5.251000881E0,-3.243118286E0,8.455311775E0,1.046819582E1
3.411516170E-1,5.227059841E0,-3.121019363E0,8.632474899E0,1.056326367E1
3.435962000E-1,5.258183002E0,-3.037225723E0,8.122531891E0,1.014143742E1
3.460416170E-1,5.222271442E0,-2.963008881E0,8.675568581E0,1.055068864E1
3.484869810E-1,5.210300922E0,-2.836121559E0,7.950157166E0,9.919466727E0
3.509316170E-1,5.205512524E0,-2.769086838E0,8.627686501E0,1.044998454E1
3.533762000E-1,5.248606682E0,-2.644593477E0,7.976491928E0,9.907884246E0
3.558216170E-1,5.229453564E0,-2.565588236E0,8.469676018E0,1.027934042E1
3.582670330E-1,5.294094086E0,-2.436307192E0,8.187171936E0,1.004951786E1
3.607116690E-1,5.298882484E0,-2.326178551E0,8.225478172E0,1.005722394E1
3.631562520E-1,5.370705605E0,-2.254355669E0,8.414611816E0,1.023387953E1
3.656016690E-1,5.430558205E0,-2.134650469E0,7.986068726E0,9.890651583E0
3.680470330E-1,5.468863487E0,-2.050857067E0,8.558258057E0,1.036138328E1
3.704916690E-1,5.559839249E0,-1.935940385E0,7.792146206E0,9.766126158E0
3.729362520E-1,5.567021847E0,-1.852146864E0,8.476859093E0,1.030918621E1
3.753816690E-1,5.662785530E0,-1.751594663E0,7.765810966E0,9.769495575E0
3.778270850E-1,5.679543972E0,-1.703712702E0,8.247024536E0,1.015742440E1
3.802717210E-1,5.727426052E0,-1.615131140E0,7.928609848E0,9.913370360E0
3.827163040E-1,5.717849731E0,-1.550490379E0,7.966915131E0,9.928220519E0
3.851617210E-1,5.760943890E0,-1.466696978E0,8.146472931E0,1.008487460E1
3.876070850E-1,5.751367092E0,-1.397268057E0,7.756234646E0,9.756523834E0
3.900517210E-1,5.751367092E0,-1.339809656E0,8.381094933E0,1.025261262E1
3.924963040E-1,5.799249172E0,-1.236863494E0,7.717928886E0,9.732807846E0
3.949417210E-1,5.799249172E0,-1.186587334E0,8.436159134E0,1.030572954E1
3.973871380E-1,5.868678093E0,-1.100399852E0,7.734687805E0,9.771266951E0
3.998317730E-1,5.897407055E0,-1.040547371E0,8.194355011E0,1.014936465E1
4.022763560E-1,5.964442253E0,-9.495716691E-1,7.832845688E0,9.890891230E0
4.047217730E-1,5.990777016E0,-8.849310279E-1,7.847210407E0,9.912175511E0
4.071671380E-1,6.053023815E0,-8.131080270E-1,7.969309807E0,1.004042533E1
4.096117730E-1,6.103299618E0,-7.891669869E-1,7.564706802E0,9.751812127E0
4.120563560E-1,6.179911137E0,-7.317086458E-1,8.199142456E0,1.029332970E1
4.145017730E-1,6.297221661E0,-6.766443849E-1,7.634135723E0,9.919318349E0
4.169471900E-1,6.364256859E0,-6.838266850E-1,8.433764458E0,1.058771775E1
4.193917730E-1,6.505507946E0,-6.096096635E-1,7.782569885E0,1.016177404E1
4.218364080E-1,6.594089985E0,-6.167919636E-1,8.275753975E0,1.059955466E1
4.242818250E-1,6.723371029E0,-5.856686234E-1,7.887909889E0,1.038103310E1
4.267271900E-1,6.797588825E0,-5.952450037E-1,7.871151447E0,1.041712799E1
4.291718250E-1,6.914899349E0,-6.024273038E-1,7.926216125E0,1.053582715E1
4.316164080E-1,6.984328270E0,-5.928509235E-1,7.437819481E0,1.022024815E1
4.340618250E-1,7.036998272E0,-5.952450037E-1,7.916639328E0,1.060880953E1
4.365072420E-1,7.113609791E0,-5.952450037E-1,7.210380554E0,1.014629729E1
4.389518250E-1,7.111215115E0,-6.120036840E-1,7.875939369E0,1.062893926E1
4.413964080E-1,7.163885593E0,-6.024273038E-1,7.191227436E0,1.016847715E1
4.438418250E-1,7.159097195E0,-6.407328844E-1,7.768205166E0,1.058339373E1
4.462872420E-1,7.226132393E0,-5.976391435E-1,7.466548920E0,1.040785831E1
4.487318770E-1,7.185432434E0,-5.976391435E-1,7.634135723E0,1.050083997E1
4.511764600E-1,7.226132393E0,-5.904568434E-1,7.756234646E0,1.061719382E1
4.536218770E-1,7.218949795E0,-5.617276430E-1,7.418666840E0,1.036655158E1
4.560672420E-1,7.228526115E0,-5.521512628E-1,7.897486210E0,1.072038942E1
4.585118770E-1,7.242890835E0,-4.899047017E-1,7.196015358E0,1.022164915E1
4.609564600E-1,7.206979275E0,-5.018751621E-1,7.811298847E0,1.063996328E1
4.634018770E-1,7.240496635E0,-4.348403811E-1,7.047581196E0,1.011347015E1
4.658472940E-1,7.180644035E0,-4.204758406E-1,7.531189442E0,1.041428169E1
4.682919290E-1,7.187826633E0,-3.462587595E-1,7.131374836E0,1.013120200E1
4.707365130E-1,7.135156155E0,-3.007708788E-1,7.227138996E0,1.016033732E1
4.731819290E-1,7.104032993E0,-2.457066029E-1,7.313326359E0,1.019864692E1
4.756272940E-1,7.075303555E0,-1.619131565E-1,7.006881714E0,9.959042505E0
4.780719290E-1,7.029816151E0,-9.248428047E-2,7.562313080E0,1.032547566E1
4.805165130E-1,7.032210350E0,1.046196371E-2,6.985334873E0,9.911962225E0
4.829619290E-1,6.981934071E0,6.313212961E-2,7.751446247E0,1.043246414E1
4.854073460E-1,7.008269310E0,1.756547838E-1,7.210380554E0,1.005665357E1
4.878519810E-1,6.989116192E0,2.450836152E-1,7.878334045E0,1.053451273E1
4.902965650E-1,7.020239830E0,3.456357718E-1,7.514431000E0,1.028931021E1
4.927419810E-1,7.020239830E0,4.174587727E-1,7.660470963E0,1.039907950E1
4.951873460E-1,7.060939312E0,5.132226944E-1,7.696382523E0,1.045727333E1
4.976319810E-1,7.060939312E0,5.754692554E-1,7.298962116E0,1.017167031E1
5.000765650E-1,7.092062473E0,6.736273170E-1,7.703564167E0,1.049266528E1
5.025219810E-1,7.159097195E0,7.574207187E-1,6.973364353E0,1.002268273E1
5.049673980E-1,7.161491871E0,7.933322191E-1,7.650894165E0,1.050963954E1
5.074120330E-1,7.221343517E0,8.843079805E-1,6.949423313E0,1.006102814E1
5.098566170E-1,7.230920315E0,9.297958612E-1,7.485701561E0,1.044923235E1
5.123020330E-1,7.288378716E0,1.004013062E0,7.035610676E0,1.017979981E1
5.147473980E-1,7.317107677E0,1.025559902E0,7.117010593E0,1.025883413E1
5.171920330E-1,7.362595558E0,1.085412264E0,7.033216953E0,1.023973016E1
5.196366170E-1,7.381748676E0,1.123717904E0,6.583126545E0,9.954421658E0
5.220820330E-1,7.403295040E0,1.152447224E0,6.932664871E0,1.020777911E1
5.245274500E-1,7.403295040E0,1.176388025E0,6.161765099E0,9.703608368E0
5.269720850E-1,7.369778156E0,1.176388025E0,6.733954430E0,1.005204761E1
5.294166690E-1,7.312319756E0,1.209905386E0,5.989389896E0,9.529254041E0
5.318620850E-1,7.226132393E0,1.166811705E0,6.489756584E0,9.782401517E0
5.343074500E-1,7.173462391E0,1.193146825E0,6.046848297E0,9.457617900E0
5.367520850E-1,7.051362514E0,1.173994064E0,6.204858780E0,9.465740745E0
5.391966690E-1,6.943628788E0,1.193146825E0,6.200070381E0,9.385012138E0
5.416420850E-1,6.835894108E0,1.205117345E0,5.874473095E0,9.093469646E0
5.440875020E-1,6.706612587E0,1.190752625E0,6.307805061E0,9.283584916E0
5.465320850E-1,6.586907864E0,1.193146825E0,5.656610012E0,8.764028262E0
5.489767210E-1,6.443261623E0,1.207511425E0,6.324563503E0,9.108995976E0
5.514221380E-1,6.354680061E0,1.243422866E0,5.632668972E0,8.582250221E0
5.538675020E-1,6.246945858E0,1.252999306E0,6.262316704E0,8.933697460E0
5.563121380E-1,6.184699059E0,1.322428226E0,5.831379414E0,8.602575470E0
5.587567210E-1,6.136816978E0,1.346369147E0,6.121065617E0,8.771583483E0
5.612021380E-1,6.117664337E0,1.442133069E0,6.200070381E0,8.828727964E0
5.636475540E-1,6.124846458E0,1.482832789E0,6.030089378E0,8.722070576E0
5.660921380E-1,6.139211178E0,1.557049751E0,6.518485546E0,9.088727723E0
5.685367730E-1,6.239763260E0,1.652813792E0,5.915173054E0,8.755324736E0
5.709821900E-1,6.232581139E0,1.710272193E0,6.580732346E0,9.223672632E0
5.734275540E-1,6.373833179E0,1.832371116E0,5.934325218E0,8.899412851E0
5.758721900E-1,6.462414742E0,1.882647157E0,6.530456066E0,9.378380513E0
5.783167730E-1,6.570148945E0,1.971228957E0,6.080365181E0,9.166430139E0
5.807621900E-1,6.665913105E0,2.028687239E0,6.288652420E0,9.386006536E0
5.832075540E-1,6.797588825E0,2.134027481E0,6.286257744E0,9.501490596E0
5.856521900E-1,6.871805668E0,2.155574322E0,6.042059898E0,9.400781968E0
5.880967730E-1,6.931658268E0,2.210638762E0,6.508909225E0,9.762208223E0
5.905421900E-1,6.991510868E0,2.251338482E0,5.943902016E0,9.448794651E0
5.929876060E-1,7.013057232E0,2.289644003E0,6.611855507E0,9.906668191E0
5.954322420E-1,7.058545113E0,2.351890326E0,5.910384178E0,9.501951818E0
5.978768250E-1,7.020239830E0,2.351890326E0,6.501727104E0,9.853304558E0
6.003222420E-1,7.048968792E0,2.402166367E0,6.046848297E0,9.592848305E0
6.027676060E-1,6.957993031E0,2.387801886E0,6.314987183E0,9.695067198E0
6.052122420E-1,6.943628788E0,2.440472126E0,6.343716145E0,9.716615638E0
6.076568250E-1,6.883776188E0,2.450048447E0,6.147400379E0,9.548803245E0
6.101022420E-1,6.833499432E0,2.469201326E0,6.592702866E0,9.811085605E0
6.125476580E-1,6.816740990E0,2.500324726E0,6.027695179E0,9.436773317E0
6.149922940E-1,6.720977306E0,2.514689207E0,6.683678150E0,9.806464775E0
6.174368770E-1,6.752100468E0,2.567359447E0,6.013330936E0,9.399060815E0
6.198822940E-1,6.697036266E0,2.584117889E0,6.571156025E0,9.731806180E0
6.223276580E-1,6.718583107E0,2.624817610E0,6.027695179E0,9.400113596E0
6.247722940E-1,6.701824665E0,2.641576529E0,6.202464581E0,9.505942734E0
6.272168770E-1,6.718583107E0,2.679881811E0,6.101912498E0,9.463321913E0
6.296622940E-1,6.689854145E0,2.696640730E0,5.821803093E0,9.269272407E0
6.321077100E-1,6.697036266E0,2.756493092E0,6.142611980E0,9.496327230E0
6.345523460E-1,6.730553627E0,2.797192812E0,5.508175850E0,9.135898475E0
6.369969290E-1,6.704218864E0,2.847468853E0,6.049242496E0,9.468260887E0
6.394423460E-1,6.744918346E0,2.919291973E0,5.275948524E0,9.047199675E0
6.418877100E-1,6.699429989E0,2.931262493E0,5.860108376E0,9.370994192E0
6.443323460E-1,6.732947826E0,3.015055895E0,5.347771168E0,9.111630202E0
6.467769290E-1,6.677883625E0,3.043784857E0,5.596757412E0,9.229433866E0
6.492223460E-1,6.668307304E0,3.096455097E0,5.544087410E0,9.208217074E0
6.516677630E-1,6.613242626E0,3.134760618E0,5.357347965E0,9.069888609E0
6.541123460E-1,6.546208382E0,3.153913498E0,5.766738415E0,9.276598863E0
6.565569810E-1,6.471991062E0,3.216160059E0,5.319042206E0,8.973436567E0
6.590023980E-1,6.400167942E0,3.237706900E0,6.037271976E0,9.375155923E0
6.614477630E-1,6.364256859E0,3.304741621E0,5.469870567E0,9.019122273E0
6.638923980E-1,6.261310101E0,3.311924219E0,6.137824059E0,9.372605315E0
6.663369810E-1,6.268492699E0,3.364594221E0,5.668580532E0,9.096554306E0
6.687823980E-1,6.203852177E0,3.378958941E0,5.733221531E0,9.098075317E0
6.712278150E-1,6.182305336E0,3.424446583E0,6.006148338E0,9.274780403E0
6.736723980E-1,6.177516460E0,3.493875742E0,5.869684696E0,9.209890105E0
6.761170330E-1,6.187093258E0,3.534575224E0,5.752373695E0,9.157682465E0
6.785624500E-1,6.167940617E0,3.563304424E0,5.778708935E0,9.172464599E0
6.810078150E-1,6.141605377E0,3.611186504E0,5.692521572E0,9.119472925E0
6.834524500E-1,6.110482216E0,3.673432827E0,5.730827332E0,9.147375774E0
6.858970330E-1,6.115270138E0,3.685403347E0,5.718856812E0,9.147898661E0
6.883424500E-1,6.098511696E0,3.704556227E0,5.759556293E0,9.169954768E0
6.907878150E-1,6.091329098E0,3.752438068E0,5.783497334E0,9.199669725E0
6.932324500E-1,6.108088017E0,3.771590948E0,5.840955734E0,9.254750207E0
6.956770330E-1,6.120058537E0,3.805108309E0,5.915173054E0,9.323263269E0
6.981224500E-1,6.163152218E0,3.819473028E0,5.970236778E0,9.392366404E0
7.005678670E-1,6.211034298E0,3.864960909E0,6.022907257E0,9.475773409E0
7.030125020E-1,6.261310101E0,3.896084070E0,6.008542538E0,9.512416028E0
7.054570850E-1,6.328345299E0,3.915236950E0,6.034877777E0,9.581063844E0
7.079025020E-1,6.390591621E0,3.939177752E0,6.037271976E0,9.633557782E0
7.103478670E-1,6.452837944E0,3.960725069E0,6.039665699E0,9.685247666E0
7.127925020E-1,6.519873142E0,3.984666109E0,6.032483578E0,9.735356589E0
7.152370850E-1,6.553390026E0,3.963118792E0,5.982207298E0,9.718026320E0
7.176825020E-1,6.618031025E0,3.999030352E0,5.905596256E0,9.729678594E0
7.201279190E-1,6.653942585E0,3.996636629E0,5.852926254E0,9.721358033E0
7.225725540E-1,6.668307304E0,4.025365829E0,5.776314735E0,9.697200848E0
7.250171380E-1,6.661124706E0,4.034942150E0,5.709280491E0,9.656460233E0
7.274625540E-1,6.656336784E0,4.039730549E0,5.668580532E0,9.631149856E0
7.299079190E-1,6.615637302E0,4.030153751E0,5.635063171E0,9.579286671E0
7.323525540E-1,6.567755222E0,4.042124271E0,5.584786892E0,9.521765693E0
7.347971380E-1,6.479173183E0,4.032547951E0,5.565634251E0,9.445496955E0
7.372425540E-1,6.397774220E0,4.049306870E0,5.503387928E0,9.360324769E0
7.396879710E-1,6.280463219E0,4.066065311E0,5.472264290E0,9.269454235E0
7.421326060E-1,6.175122738E0,4.061277390E0,5.436352730E0,9.174968439E0
7.445771900E-1,6.045841217E0,4.080430031E0,5.417200565E0,9.085602194E0
7.470226060E-1,5.933318615E0,4.104371071E0,5.390864849E0,9.006195395E0
7.494679710E-1,5.816008091E0,4.116341591E0,5.362135887E0,8.917551204E0
7.519126060E-1,5.737002850E0,4.140282631E0,5.295101166E0,8.837037870E0
7.543571900E-1,5.648421288E0,4.173799515E0,5.213701725E0,8.746882365E0
7.568026060E-1,5.595750809E0,4.202528954E0,5.161031723E0,8.695396780E0
7.592480230E-1,5.535898209E0,4.252805233E0,5.079632282E0,8.633376249E0
7.616926580E-1,5.511957169E0,4.271957874E0,4.974291801E0,8.565913543E0
7.641372420E-1,5.504775047E0,4.324628353E0,4.935986519E0,8.565566042E0
7.665826580E-1,5.473651886E0,4.372509956E0,4.849798679E0,8.520578356E0
7.690280230E-1,5.466469765E0,4.415603638E0,4.768399239E0,8.492201038E0
7.714726580E-1,5.471257687E0,4.458697796E0,4.749247074E0,8.507055570E0
7.739172420E-1,5.466469765E0,4.508973598E0,4.732487679E0,8.521125174E0
7.763626580E-1,5.456892967E0,4.554461479E0,4.701364994E0,8.521950072E0
7.788080750E-1,5.473651886E0,4.585584641E0,4.720517159E0,8.559890987E0
7.812526580E-1,5.480834007E0,4.635860443E0,4.708547115E0,8.584937938E0
7.836972940E-1,5.485621929E0,4.700501442E0,4.718123436E0,8.628293604E0
7.861427100E-1,5.497592449E0,4.726836681E0,4.746852398E0,8.665974581E0
7.885880750E-1,5.509562969E0,4.760354042E0,4.746852398E0,8.691884859E0
7.910327100E-1,5.509562969E0,4.808236122E0,4.773188114E0,8.732567978E0
7.934772940E-1,5.485621929E0,4.863300323E0,4.816281319E0,8.771562217E0
7.959227100E-1,5.523927689E0,4.887241364E0,4.871345997E0,8.839056345E0
7.983681270E-1,5.516745567E0,4.923152447E0,4.904862881E0,8.872969714E0
8.008127100E-1,5.540686607E0,4.968640804E0,4.935986519E0,8.930317040E0
8.032572940E-1,5.564627647E0,5.002158165E0,4.993444920E0,8.995618896E0
8.057027100E-1,5.576598167E0,5.047645569E0,4.995838642E0,9.029705236E0
8.081481270E-1,5.626873970E0,5.083557129E0,4.983868599E0,9.074315950E0
8.105927630E-1,5.653209209E0,5.141015530E0,4.957533360E0,9.108564764E0
8.130373460E-1,5.696303368E0,5.176927090E0,4.938380241E0,9.145274493E0
8.154827630E-1,5.746579170E0,5.220021248E0,4.907257557E0,9.184387335E0
8.179281270E-1,5.768126011E0,5.251143932E0,4.840222359E0,9.180062241E0
8.203727630E-1,5.768126011E0,5.301420212E0,4.856980801E0,9.217732717E0
8.228173460E-1,5.765731812E0,5.344514370E0,4.856980801E0,9.241090827E0
8.252627630E-1,5.763337612E0,5.363667011E0,4.859375477E0,9.251946512E0
8.277081790E-1,5.756155491E0,5.401972771E0,4.883316517E0,9.282317386E0
8.301528150E-1,5.734608650E0,5.433095455E0,4.926409721E0,9.309875152E0
8.325973980E-1,5.720243931E0,5.449854851E0,4.933592319E0,9.314635886E0
8.350428150E-1,5.734608650E0,5.485765934E0,4.912045479E0,9.333142828E0
8.374881790E-1,5.710667610E0,5.526465893E0,4.902468681E0,9.337438031E0
8.399328150E-1,5.691514492E0,5.557589054E0,4.856980801E0,9.320428950E0
8.423773980E-1,5.705879211E0,5.586318016E0,4.818675518E0,9.326502040E0
8.448228150E-1,5.701091290E0,5.603076458E0,4.756428719E0,9.301640814E0
8.472682310E-1,5.698697090E0,5.638988018E0,4.691788197E0,9.289037134E0
8.497128670E-1,5.679543972E0,5.653352737E0,4.689394474E0,9.284828347E0
8.521574500E-1,5.665179729E0,5.662929058E0,4.684606075E0,9.279469864E0
8.546028670E-1,5.662785530E0,5.682082176E0,4.675029278E0,9.284885382E0
8.570482310E-1,5.607721329E0,5.694052696E0,4.718123436E0,9.280596067E0
8.594928670E-1,5.569415569E0,5.686870098E0,4.739670277E0,9.264089574E0
8.619374500E-1,5.564627647E0,5.698840618E0,4.761217594E0,9.279604422E0
8.643828670E-1,5.502381325E0,5.708416939E0,4.789946556E0,9.263142674E0
8.668282830E-1,5.492804527E0,5.694052696E0,4.806704998E0,9.257297155E0
8.692729190E-1,5.471257687E0,5.701234818E0,4.775581837E0,9.232817609E0
8.717175020E-1,5.466469765E0,5.677293777E0,4.821069241E0,9.238867081E0
8.741629190E-1,5.478440285E0,5.708416939E0,4.856980801E0,9.283835113E0
8.766082830E-1,5.485621929E0,5.722781658E0,4.885710239E0,9.311951589E0
8.790529190E-1,5.504775047E0,5.749116898E0,4.919228077E0,9.357013321E0
8.814975020E-1,5.535898209E0,5.780240059E0,4.900074959E0,9.384459426E0
8.839429190E-1,5.567021847E0,5.787422180E0,4.876133919E0,9.394821431E0
8.863883350E-1,5.634056568E0,5.830516338E0,4.813887596E0,9.429264445E0
8.888329710E-1,5.715455532E0,5.871215820E0,4.749247074E0,9.470636458E0
8.912775540E-1,5.763337612E0,5.899945259E0,4.696576595E0,9.491219427E0
8.937229710E-1,5.787278652E0,5.943038464E0,4.691788197E0,9.530224387E0
8.961683350E-1,5.804037571E0,5.950221062E0,4.691788197E0,9.544886552E0
8.986129710E-1,5.806431770E0,5.986132622E0,4.710940838E0,9.578172960E0
9.010575540E-1,5.794461250E0,6.012467861E0,4.754034996E0,9.608662743E0
9.035029710E-1,5.799249172E0,6.031620502E0,4.833039761E0,9.662815851E0
9.059483880E-1,5.780096531E0,6.060349464E0,4.859375477E0,9.682503889E0
9.083929710E-1,5.753761292E0,6.089078426E0,4.909651279E0,9.710165847E0
9.108376060E-1,5.739396572E0,6.117808342E0,4.945562840E0,9.737907564E0
9.132830230E-1,5.737002850E0,6.156113625E0,4.969503880E0,9.772763451E0
9.157283880E-1,5.713061810E0,6.158507824E0,4.947957039E0,9.749285754E0
9.181730230E-1,5.717849731E0,6.199207306E0,4.907257557E0,9.757312822E0
9.206176060E-1,5.722638130E0,6.249483585E0,4.856980801E0,9.767031010E0
9.230630230E-1,5.725032330E0,6.285395145E0,4.804310799E0,9.765428283E0
9.255084400E-1,5.725032330E0,6.297365665E0,4.751640797E0,9.747353475E0
9.279530230E-1,5.734608650E0,6.323700428E0,4.718123436E0,9.753748625E0
9.303976060E-1,5.701091290E0,6.364400387E0,4.663058758E0,9.734071664E0
9.328430230E-1,5.705879211E0,6.405099869E0,4.629541874E0,9.747564817E0
9.352884400E-1,5.674756050E0,6.419464588E0,4.615176678E0,9.732021249E0
9.377330750E-1,5.622086048E0,6.448193550E0,4.627147198E0,9.726126813E0
9.401776580E-1,5.598145008E0,6.452981472E0,4.596024513E0,9.700703002E0
9.426230750E-1,5.545474529E0,6.500863552E0,4.631936073E0,9.719482829E0
9.450684400E-1,5.538292885E0,6.512834072E0,4.603206158E0,9.709747816E0
9.475130750E-1,5.528716087E0,6.529592991E0,4.581659794E0,9.705353815E0
9.499577100E-1,5.488016129E0,6.572686672E0,4.538566113E0,9.691084226E0
9.524031270E-1,5.492804527E0,6.606204033E0,4.502654552E0,9.699831510E0
9.548484920E-1,5.485621929E0,6.646903515E0,4.459560871E0,9.703662064E0
9.572931270E-1,5.497592449E0,6.675632954E0,4.392525673E0,9.699581427E0
9.597377100E-1,5.490410805E0,6.687603474E0,4.335067272E0,9.677885062E0
9.621831270E-1,5.499986649E0,6.730697155E0,4.280003548E0,9.688682454E0
9.646284920E-1,5.485621929E0,6.721121311E0,4.234515190E0,9.653840610E0
9.670731270E-1,5.468863487E0,6.771397114E0,4.177056789E0,9.654433704E0
9.695177100E-1,5.447316647E0,6.766608715E0,4.107628345E0,9.608999052E0
9.719631270E-1,5.392252445E0,6.773791313E0,4.078898907E0,9.570687095E0
9.744085440E-1,5.368311882E0,6.788155556E0,4.054958344E0,9.557223210E0
9.768531790E-1,5.337188244E0,6.807308674E0,4.011864185E0,9.535202356E0
9.792977630E-1,5.260577202E0,6.807308674E0,3.990317345E0,9.483446440E0
9.817431790E-1,5.236636162E0,6.821673393E0,4.002287865E0,9.485562415E0
9.841885440E-1,5.222271442E0,6.838431835E0,3.990317345E0,9.484666652E0
9.866331790E-1,5.148054123E0,6.879131794E0,3.987923145E0,9.472510042E0
9.890777630E-1,5.109748840E0,6.903072834E0,3.999893665E0,9.474233325E0
9.915231790E-1,5.088202000E0,6.927013397E0,4.007076263E0,9.483141588E0
9.939685960E-1,5.047502041E0,6.955742836E0,3.990317345E0,9.475350535E0
9.964132310E-1,5.013984680E0,6.979683876E0,3.971164703E0,9.467110356E0
9.988578150E-1,5.004408836E0,7.006018639E0,3.963982582E0,9.478478933E0
1.001303231E0,4.985255718E0,7.034747601E0,3.937647343E0,9.478687408E0
1.003748596E0,4.982861519E0,7.046718121E0,3.963982582E0,9.497278721E0
1.006193231E0,4.951738358E0,7.070659161E0,3.944829464E0,9.490817311E0
1.008637815E0,4.927797318E0,7.096994877E0,3.937647343E0,9.495029715E0
1.011083231E0,4.894279957E0,7.123329639E0,3.940041542E0,9.498406645E0
1.013528648E0,4.863156796E0,7.132905483E0,3.908917904E0,9.476722737E0
1.015973283E0,4.829638958E0,7.149664879E0,3.920888424E0,9.477156028E0
1.018417867E0,4.788939476E0,7.175999641E0,3.952012062E0,9.489326188E0
1.020863283E0,4.796121597E0,7.180787563E0,3.983135223E0,9.509566689E0
1.023308648E0,4.764998436E0,7.195152760E0,4.011864185E0,9.516852819E0
1.025753283E0,4.738663673E0,7.209517002E0,4.050169945E0,9.530789337E0
1.028197867E0,4.745845795E0,7.259793282E0,4.059746265E0,9.576491557E0
1.030643283E0,4.760210037E0,7.283734322E0,4.050169945E0,9.597721701E0
1.033088700E0,4.764998436E0,7.322039604E0,4.057352066E0,9.632215729E0
1.035533283E0,4.791333675E0,7.338798046E0,4.066928387E0,9.662025753E0
1.037977919E0,4.822457314E0,7.362739086E0,4.042987823E0,9.685647729E0
1.040423335E0,4.822457314E0,7.379498005E0,4.047775745E0,9.700390396E0
1.042868700E0,4.827245235E0,7.417803764E0,4.050169945E0,9.732933054E0
1.045313335E0,4.855974197E0,7.427380085E0,4.052563667E0,9.755497558E0
1.047757919E0,4.889491558E0,7.441744804E0,4.033411026E0,9.775228792E0
1.050203335E0,4.906250000E0,7.470473766E0,4.026228905E0,9.802539801E0
1.052648752E0,4.925403118E0,7.494414806E0,4.052563667E0,9.841195123E0
1.055093335E0,4.946949959E0,7.499203205E0,4.035805225E0,9.848760654E0
1.057537971E0,4.951738358E0,7.511173725E0,4.054958344E0,9.868137142E0
1.059983388E0,4.927797318E0,7.518355846E0,4.074110985E0,9.869510695E0
1.062428752E0,4.918220520E0,7.520749569E0,4.086081505E0,9.871505925E0
1.064873388E0,4.908644676E0,7.544690609E0,4.105233669E0,9.892931437E0
1.067317971E0,4.879915237E0,7.530326366E0,4.117204189E0,9.872728004E0
1.069763388E0,4.901462078E0,7.539902687E0,4.121993065E0,9.892688707E0
1.072208804E0,4.855974197E0,7.554266930E0,4.138751507E0,9.888210065E0
1.074653388E0,4.836821556E0,7.573420048E0,4.155510426E0,9.900494982E0
1.077098023E0,4.810486794E0,7.530326366E0,4.131569386E0,9.844615989E0
1.079543440E0,4.805697918E0,7.544690609E0,4.133963585E0,9.854275406E0
1.081988804E0,4.803304195E0,7.549479008E0,4.112416267E0,9.847757716E0
1.084433440E0,4.803304195E0,7.539902687E0,4.069322586E0,9.822486958E0
1.086878023E0,4.772180557E0,7.515961647E0,4.026228905E0,9.771074964E0
1.089323440E0,4.755422115E0,7.527932167E0,4.014258385E0,9.767193690E0
1.091768804E0,4.731481075E0,7.518355846E0,3.978346825E0,9.733438820E0
1.094213440E0,4.683598995E0,7.508779049E0,3.942435265E0,9.688171044E0
1.096658023E0,4.676417351E0,7.525537968E0,3.932858944E0,9.693811449E0
1.099103440E0,4.638111115E0,7.506385326E0,3.906523705E0,9.649809471E0
1.101548856E0,4.583047390E0,7.503991127E0,3.889765263E0,9.614805251E0
1.103993492E0,4.563894272E0,7.501596928E0,3.884976864E0,9.601881723E0
1.106438075E0,4.523194790E0,7.501596928E0,3.884976864E0,9.582603655E0
1.108883492E0,4.489676952E0,7.511173725E0,3.846671581E0,9.558860399E0
1.111328856E0,4.425036430E0,7.513567448E0,3.844277382E0,9.529591376E0
1.113773492E0,4.408277512E0,7.530326366E0,3.841883183E0,9.534085808E0
1.116218075E0,4.367578030E0,7.547085285E0,3.841883183E0,9.528604333E0
1.118663492E0,4.348425388E0,7.549479008E0,3.873006344E0,9.534338718E0
1.121108908E0,4.290966988E0,7.573420048E0,3.882583141E0,9.531187794E0
1.123553544E0,4.281390667E0,7.575814247E0,3.868218422E0,9.522939741E0
1.125998127E0,4.264632225E0,7.594967365E0,3.875400543E0,9.533590439E0
1.128443544E0,4.267025948E0,7.638060570E0,3.856247902E0,9.561282737E0
1.130888908E0,4.257449627E0,7.654819489E0,3.789213181E0,9.543598653E0
1.133333544E0,4.278996468E0,7.671577930E0,3.717390060E0,9.538443666E0
1.135778127E0,4.271814346E0,7.690730572E0,3.681478977E0,9.536719666E0
1.138223544E0,4.245479107E0,7.707489491E0,3.628808498E0,9.518284415E0
1.140668960E0,4.223932266E0,7.709883690E0,3.588108540E0,9.495179471E0
1.143113596E0,4.159291744E0,7.726642132E0,3.585714817E0,9.479348986E0
1.145558179E0,4.111409664E0,7.738612652E0,3.592896938E0,9.470941010E0
1.148003596E0,4.063527584E0,7.745795250E0,3.609655857E0,9.462516361E0
1.150448960E0,3.994098425E0,7.755371571E0,3.612049580E0,9.441690134E0
1.152893596E0,3.939034224E0,7.752977848E0,3.592896938E0,9.409227627E0
1.155338179E0,3.910305262E0,7.776918888E0,3.604867458E0,9.421572269E0
1.157783596E0,3.888757944E0,7.774524212E0,3.609655857E0,9.412506599E0
1.160229013E0,3.850452662E0,7.815224171E0,3.588108540E0,9.422220409E0
1.162673648E0,3.826511621E0,7.810435772E0,3.829912663E0,9.503332528E0
1.165118231E0,3.848058462E0,7.860712051E0,3.200264931E0,9.318800540E0
1.167563648E0,3.852846861E0,7.884652615E0,3.762877941E0,9.548372960E0
1.170009013E0,3.905516863E0,7.954082012E0,3.240964413E0,9.435270688E0
1.172453648E0,3.924669504E0,7.970840931E0,3.461221695E0,9.535061168E0
1.174898231E0,3.958187342E0,8.006752014E0,3.319969654E0,9.528773444E0
1.177343648E0,3.939034224E0,8.040268898E0,3.164353371E0,9.496054276E0
1.179789065E0,3.958187342E0,8.071392059E0,3.456433296E0,9.631279663E0
1.182233648E0,3.970157862E0,8.112092018E0,2.896214485E0,9.484526804E0
1.184678231E0,3.967763186E0,8.121667862E0,3.516285896E0,9.698912313E0
1.187123648E0,3.974945784E0,8.195885658E0,2.884243965E0,9.554663728E0
1.189569065E0,3.891152620E0,8.188703537E0,3.523468018E0,9.726806321E0
1.192013700E0,3.910305262E0,8.229402542E0,3.042254448E0,9.605668408E0
1.194458283E0,3.855241060E0,8.222220421E0,3.379822254E0,9.689736361E0
1.196903700E0,3.848058462E0,8.289255142E0,3.312787533E0,9.720795542E0
1.199349065E0,3.804964781E0,8.289255142E0,3.173929691E0,9.657294522E0
1.201793700E0,3.804964781E0,8.320378304E0,3.513891697E0,9.800708492E0
1.204238283E0,3.785811901E0,8.337136269E0,2.991978168E0,9.632868019E0
1.206683700E0,3.718777180E0,8.337136269E0,3.576138496E0,9.804382256E0
1.209129117E0,3.713989019E0,8.375442505E0,2.889031887E0,9.606677721E0
1.211573752E0,3.651742458E0,8.327560425E0,3.482768536E0,9.737205055E0
1.214018335E0,3.625407457E0,8.363471985E0,2.984796047E0,9.591676095E0
1.216463752E0,3.572737217E0,8.373048782E0,3.296028614E0,9.681745801E0
1.218909169E0,3.558372736E0,8.368260384E0,3.145200729E0,9.621958533E0
1.221353752E0,3.517673016E0,8.365866661E0,3.035071850E0,9.569399645E0
1.223798335E0,3.498520136E0,8.358683586E0,3.305605412E0,9.645426977E0
1.226243752E0,3.460214376E0,8.370655060E0,2.843544483E0,9.493508039E0
1.228689169E0,3.407544374E0,8.358683586E0,3.446856976E0,9.662286115E0
1.231133804E0,3.395573854E0,8.351501465E0,2.807632923E0,9.442473254E0
1.233578388E0,3.321356773E0,8.337136269E0,3.454039097E0,9.616113459E0
1.236023804E0,3.261504412E0,8.349107742E0,2.956066608E0,9.438397158E0
1.238469169E0,3.160952091E0,8.322772980E0,3.336728573E0,9.507572023E0
1.240913804E0,3.156163931E0,8.329955101E0,3.214629650E0,9.470130228E0
1.243358388E0,3.050823689E0,8.298831940E0,3.159565449E0,9.389408425E0
1.245803804E0,3.005335569E0,8.301225662E0,3.449251175E0,9.478381879E0
1.248249221E0,2.931118727E0,8.308407784E0,2.963249207E0,9.295264533E0
1.250693856E0,2.883236647E0,8.322772980E0,3.561773777E0,9.500938694E0
1.253138440E0,2.866477966E0,8.377836227E0,2.896214485E0,9.316270398E0
1.255583856E0,2.830566645E0,8.404171944E0,3.509103298E0,9.537086533E0
1.258029221E0,2.852113485E0,8.435295105E0,2.972825527E0,9.387568719E0
1.260473856E0,2.823384285E0,8.456841469E0,3.370245934E0,9.531433476E0
1.262918440E0,2.840142965E0,8.514300346E0,3.260117054E0,9.549245293E0
1.265363856E0,2.830566645E0,8.533453941E0,3.063801289E0,9.498358913E0
1.267809273E0,2.880842686E0,8.576546669E0,3.197870731E0,9.595977520E0
1.270253908E0,2.895207167E0,8.607670784E0,3.149988651E0,9.612317586E0
1.272698492E0,2.899995327E0,8.643581390E0,3.171535969E0,9.652984645E0
1.275143908E0,2.895207167E0,8.662734985E0,3.154777050E0,9.663219971E0
1.277589273E0,2.897601366E0,8.669917107E0,3.212235451E0,9.689273084E0
1.280033908E0,2.866477966E0,8.681887627E0,3.260117054E0,9.706710663E0
1.282478492E0,2.811413765E0,8.662734985E0,3.281664371E0,9.680720316E0
1.284923908E0,2.768319845E0,8.662734985E0,3.322363853E0,9.682183316E0
1.287369325E0,2.718043804E0,8.641187668E0,3.365457535E0,9.663549599E0
1.289813960E0,2.677344084E0,8.617246628E0,3.348699093E0,9.624910202E0
1.292258544E0,2.586368322E0,8.590911865E0,3.387004375E0,9.589831407E0
1.294703960E0,2.555245161E0,8.545423508E0,3.384610653E0,9.539870546E0
1.297149325E0,2.495392561E0,8.523877144E0,3.382216454E0,9.503833634E0
1.299593960E0,2.433146238E0,8.499936104E0,3.363063335E0,9.459350368E0
1.302038544E0,2.368505478E0,8.471206665E0,3.360669613E0,9.416223277E0
1.304483960E0,2.318229437E0,8.440083504E0,3.360669613E0,9.375675843E0
1.306929377E0,2.291894436E0,8.418537140E0,3.324758053E0,9.336946170E0
1.309373960E0,2.227253675E0,8.404171944E0,3.284058094E0,9.293858325E0
1.311818596E0,2.184159994E0,8.389807701E0,3.262511730E0,9.263013059E0
1.314264013E0,2.141066074E0,8.406565666E0,3.214629650E0,9.251397409E0
1.316709377E0,2.109942913E0,8.394596100E0,3.166747570E0,9.216799496E0
1.319154013E0,2.086001873E0,8.411354065E0,3.135624409E0,9.215987275E0
1.321598596E0,2.054878712E0,8.389807701E0,3.082953930E0,9.171477783E0
1.324044013E0,2.018967152E0,8.392201424E0,3.047042370E0,9.153673596E0
1.326489429E0,1.973479390E0,8.385018349E0,2.982401848E0,9.115803552E0
1.328934013E0,1.927991509E0,8.394596100E0,2.970431328E0,9.110974548E0
1.331378596E0,1.848986268E0,8.423324585E0,2.944096088E0,9.112565449E0
1.333824013E0,1.817862868E0,8.428112984E0,2.903396606E0,9.097660454E0
1.336269429E0,1.774769187E0,8.425718307E0,2.831573963E0,9.064234428E0
1.338714065E0,1.714916706E0,8.430506706E0,2.747780323E0,9.031316589E0
1.341158648E0,1.674216866E0,8.464024544E0,2.692716122E0,9.038441995E0
1.343604065E0,1.652670026E0,8.459236145E0,2.654410362E0,9.018641181E0
1.346049429E0,1.599999905E0,8.480782509E0,2.606528282E0,9.015412433E0
1.348494065E0,1.571270823E0,8.492753983E0,2.558646679E0,9.007909582E0
1.350938648E0,1.573664784E0,8.526270866E0,2.527523041E0,9.031173150E0
1.353384065E0,1.580847144E0,8.543029785E0,2.513158321E0,9.044246810E0
1.355829481E0,1.573664784E0,8.552605629E0,2.486823559E0,9.044765078E0
1.358274117E0,1.544935703E0,8.583729744E0,2.484429359E0,9.068606943E0
1.360718700E0,1.552117944E0,8.600487709E0,2.489217281E0,9.087005096E0
1.363164117E0,1.537753344E0,8.629217148E0,2.498794079E0,9.114386747E0
1.365609481E0,1.523388743E0,8.638793945E0,2.515552521E0,9.125649488E0
1.368054117E0,1.470718503E0,8.669917107E0,2.558646679E0,9.158446832E0
1.370498700E0,1.422836661E0,8.665128708E0,2.623287201E0,9.164636132E0
1.372944117E0,1.374954700E0,8.648369789E0,2.709474564E0,9.166572579E0
1.375389533E0,1.291161180E0,8.643581390E0,2.783691883E0,9.172106462E0
1.377834169E0,1.207367659E0,8.629217148E0,2.881849766E0,9.177482406E0
1.380278752E0,1.133150697E0,8.602881432E0,2.965643406E0,9.169985836E0
1.382724169E0,1.056539536E0,8.598093987E0,3.059012890E0,9.187004727E0
1.385169533E0,1.006263375E0,8.590911865E0,3.130836010E0,9.198829642E0
1.387614169E0,9.296523333E-1,8.543029785E0,3.190688610E0,9.166684525E0
1.390058752E0,8.817702532E-1,8.528664589E0,3.231388092E0,9.162832938E0
1.392504169E0,8.267060518E-1,8.514300346E0,3.291240692E0,9.165643380E0
1.394949585E0,7.931885719E-1,8.490359306E0,3.319969654E0,9.150822245E0
1.397394221E0,7.620652914E-1,8.485571861E0,3.353487015E0,9.155956994E0
1.399838804E0,7.237597704E-1,8.480782509E0,3.406157017E0,9.167846301E0
1.402284221E0,6.758778095E-1,8.497541428E0,3.427704334E0,9.187718875E0
1.404729585E0,6.423603296E-1,8.480782509E0,3.430098057E0,9.170707248E0
1.407174221E0,5.753256083E-1,8.473600388E0,3.456433296E0,9.169505669E0
1.409618804E0,5.418082476E-1,8.464024544E0,3.485162735E0,9.169494367E0
1.412064221E0,4.939262569E-1,8.416142464E0,3.511497974E0,9.132690466E0
1.414509638E0,4.149210155E-1,8.428112984E0,3.549803257E0,9.154580879E0
1.416954273E0,3.646449149E-1,8.404171944E0,3.568955898E0,9.137861795E0
1.419398856E0,2.712750733E-1,8.408959389E0,3.612049580E0,9.155931975E0
1.421844273E0,2.377576828E-1,8.399383545E0,3.609655857E0,9.145260415E0
1.424289638E0,1.467819512E-1,8.399383545E0,3.609655857E0,9.143347542E0
1.426734273E0,8.692947030E-2,8.377836227E0,3.631202698E0,9.131337778E0
1.429178856E0,1.989470422E-2,8.358683586E0,3.590503216E0,9.097235868E0
1.431624273E0,-7.108104229E-2,8.351501465E0,3.580926418E0,9.087115232E0
1.434069690E0,-1.045984328E-1,8.377836227E0,3.564167976E0,9.105074083E0
1.436514273E0,-1.381158084E-1,8.408959389E0,3.518680096E0,9.116511591E0
1.438958908E0,-1.931800842E-1,8.411354065E0,3.516285896E0,9.118797193E0
1.441404325E0,-2.099387646E-1,8.442477226E0,3.456433296E0,9.125043952E0
1.443849690E0,-2.171210647E-1,8.452054024E0,3.387004375E0,9.108027087E0
1.446294325E0,-2.290915549E-1,8.471206665E0,3.336728573E0,9.107556361E0
1.448738908E0,-2.530325651E-1,8.523877144E0,3.281664371E0,9.137276842E0
1.451184325E0,-2.673971355E-1,8.535847664E0,3.214629650E0,9.125022759E0
1.453629690E0,-2.841558456E-1,8.566970825E0,3.183506012E0,9.143765318E0
1.456074325E0,-3.080968261E-1,8.576546669E0,3.154777050E0,9.143560283E0
1.458518960E0,-3.464024067E-1,8.583729744E0,3.138018131E0,9.145904479E0
1.460964377E0,-3.559787869E-1,8.619640350E0,3.135624409E0,9.179164510E0
1.463409742E0,-3.751316071E-1,8.612458229E0,3.099712849E0,9.160970484E0
1.465854377E0,-4.014666677E-1,8.629217148E0,3.078165531E0,9.170587064E0
1.468298960E0,-4.062548876E-1,8.653157234E0,3.094924450E0,9.198952685E0
1.470744377E0,-4.110430777E-1,8.653157234E0,3.075771809E0,9.192739458E0
1.473189742E0,-4.110430777E-1,8.693858147E0,3.051830769E0,9.223112106E0
1.475634377E0,-3.942843676E-1,8.701039314E0,3.044648647E0,9.226777915E0
1.478078960E0,-3.918902874E-1,8.708222389E0,3.047042370E0,9.234239675E0
1.480524377E0,-3.655551970E-1,8.717798233E0,3.023101330E0,9.234326087E0
1.482969794E0,-3.942843676E-1,8.717798233E0,3.042254448E0,9.241795189E0
1.485414429E0,-3.679493070E-1,8.720192909E0,3.037466049E0,9.241393351E0
1.487859013E0,-3.679493070E-1,8.696251869E0,2.977613926E0,9.199259098E0
1.490304429E0,-3.535847068E-1,8.689069748E0,2.975219727E0,9.191130923E0
1.492749794E0,-3.248555064E-1,8.691463470E0,2.991978168E0,9.197771563E0
1.495194429E0,-3.344318867E-1,8.648369789E0,3.001554966E0,9.160539117E0
1.497639013E0,-3.200672865E-1,8.641187668E0,3.035071850E0,9.164290944E0
1.500084429E0,-2.961263359E-1,8.643581390E0,3.090136051E0,9.184123849E0
1.502529846E0,-2.530325651E-1,8.650763512E0,3.099712849E0,9.192820816E0
1.504974481E0,-2.578207254E-1,8.650763512E0,3.152382851E0,9.210846785E0
1.507419065E0,-2.243033648E-1,8.648369789E0,3.183506012E0,9.218422996E0
1.509864481E0,-1.883918792E-1,8.645976067E0,3.193082333E0,9.218685830E0
1.512309846E0,-1.740272939E-1,8.667522430E0,3.233782291E0,9.252760587E0
1.514754481E0,-1.333276033E-1,8.684281349E0,3.262511730E0,9.277850052E0
1.517199065E0,-8.065743744E-2,8.708222389E0,3.298422813E0,9.312316353E0
1.519644481E0,-5.432235450E-2,8.732163429E0,3.307999134E0,9.337905940E0
1.522089898E0,-4.046276212E-3,8.736951828E0,3.319969654E0,9.346472175E0
1.524534533E0,3.904750943E-2,8.756104469E0,3.370245934E0,9.382400963E0
1.526979117E0,6.777667999E-2,8.758499146E0,3.382216454E0,9.389104808E0
1.529424533E0,9.889996052E-2,8.775257111E0,3.413339615E0,9.416252221E0
1.531869898E0,1.252350807E-1,8.784833908E0,3.463615894E0,9.443814149E0
1.534314533E0,1.443878412E-1,8.792016029E0,3.504315376E0,9.465760401E0
1.536759117E0,1.419937611E-1,8.803986549E0,3.516285896E0,9.481276702E0
1.539204533E0,1.443878412E-1,8.794409752E0,3.487556934E0,9.461793916E0
1.541649950E0,1.419937611E-1,8.799198151E0,3.537832737E0,9.484846377E0
1.544094533E0,1.348114312E-1,8.768074989E0,3.559379578E0,9.463957741E0
1.546539169E0,1.180527508E-1,8.784833908E0,3.568955898E0,9.482862935E0
1.548984585E0,8.692947030E-2,8.770468712E0,3.564167976E0,9.467416307E0
1.551429950E0,6.777667999E-2,8.777651787E0,3.561773777E0,9.473014146E0
1.553874585E0,5.101798475E-2,8.751316071E0,3.547409058E0,9.443105783E0
1.556319169E0,1.989470422E-2,8.760892868E0,3.525862217E0,9.443799236E0
1.558764585E0,7.419139147E-4,8.760892868E0,3.521073818E0,9.441991592E0
1.561210002E0,7.924214005E-3,8.748921394E0,3.497132778E0,9.421975697E0
1.563654585E0,5.530118942E-3,8.772862434E0,3.473192215E0,9.435370159E0
1.566099221E0,1.271241903E-2,8.775257111E0,3.454039097E0,9.430571830E0
1.568544638E0,6.059437990E-2,8.794409752E0,3.398974895E0,9.428591883E0
1.570990002E0,8.692947030E-2,8.808774948E0,3.384610653E0,9.437036722E0
1.573434638E0,1.204468608E-1,8.811168671E0,3.348699093E0,9.426822710E0
1.575879221E0,1.324173510E-1,8.818350792E0,3.324758053E0,9.425224727E0
1.578324638E0,1.467819512E-1,8.823138237E0,3.317575932E0,9.427386878E0
1.580770054E0,1.755111217E-1,8.832715988E0,3.276875973E0,9.422610680E0
1.583214638E0,1.755111217E-1,8.839898109E0,3.243358612E0,9.417748023E0
1.585659221E0,1.611465514E-1,8.830321312E0,3.219417572E0,9.400276176E0
1.588104638E0,1.635406315E-1,8.832715988E0,3.195476532E0,9.394396603E0
1.590550054E0,1.491760314E-1,8.830321312E0,3.214629650E0,9.398439857E0
1.592994690E0,1.156586707E-1,8.859050751E0,3.226600170E0,9.429056463E0
1.595439273E0,1.180527508E-1,8.868626595E0,3.255329132E0,9.447943791E0
1.597884690E0,1.060822606E-1,8.885385513E0,3.260117054E0,9.465183166E0
1.600330054E0,8.932358027E-2,8.894961357E0,3.267299652E0,9.476474200E0
1.602774690E0,7.017078996E-2,8.933267593E0,3.264905453E0,9.511456326E0
1.605219273E0,6.298848987E-2,8.926085472E0,3.279270172E0,9.509604738E0
1.607664690E0,4.144160450E-2,8.966784477E0,3.339122295E0,9.568420924E0
1.610110106E0,5.101798475E-2,9.000302315E0,3.315181732E0,9.591583525E0
1.612554742E0,1.031832397E-2,9.009879112E0,3.303211212E0,9.596313480E0
1.614999325E0,3.186520934E-2,9.031425476E0,3.315181732E0,9.620711587E0
1.617444742E0,2.228879929E-2,9.055366516E0,3.329546452E0,9.648110649E0
1.619890106E0,1.750060916E-2,9.050579071E0,3.329546452E0,9.643607591E0
1.622334742E0,4.144160450E-2,9.041001320E0,3.341516972E0,9.638835923E0
1.624779325E0,7.924214005E-3,9.062548637E0,3.343910694E0,9.659792406E0
1.627224742E0,2.228879929E-2,9.041001320E0,3.375033855E0,9.650443264E0
1.629670158E0,3.136023879E-3,9.052972794E0,3.403763294E0,9.671707750E0
1.632114794E0,-4.046276212E-3,9.033820152E0,3.427704334E0,9.662250251E0
1.634559377E0,-1.841086149E-2,9.033820152E0,3.446856976E0,9.669077956E0
1.637004794E0,1.510649920E-2,9.002696991E0,3.489950657E0,9.655492577E0
1.639450158E0,-6.440386176E-3,8.995514870E0,3.511497974E0,9.656601228E0
1.641894794E0,-3.516955674E-2,8.973967552E0,3.535438538E0,9.645343756E0
1.644339377E0,-3.995776176E-2,8.942843437E0,3.540226936E0,9.618173014E0
1.646784794E0,-4.714005440E-2,8.916508675E0,3.537832737E0,9.592841581E0
1.649230210E0,-9.741612524E-2,8.899750710E0,3.552197456E0,9.582961931E0
1.651674846E0,-1.213571206E-1,8.902144432E0,3.573744297E0,9.593463991E0
1.654119429E0,-1.548745036E-1,8.894961357E0,3.528256416E0,9.570418852E0
1.656564846E0,-2.003623843E-1,8.902144432E0,3.525862217E0,9.577057218E0
1.659010210E0,-2.338797599E-1,8.892567635E0,3.521073818E0,9.567153166E0
1.661454846E0,-2.243033648E-1,8.906932831E0,3.516285896E0,9.578519247E0
1.663899429E0,-2.578207254E-1,8.928480148E0,3.528256416E0,9.603792096E0
1.666344846E0,-2.841558456E-1,8.954814911E0,3.501921177E0,9.619402609E0
1.668790263E0,-2.650030255E-1,8.973967552E0,3.473192215E0,9.626286116E0
1.671234898E0,-2.817617357E-1,9.012272835E0,3.425310135E0,9.645371991E0
1.673679481E0,-2.793676257E-1,9.036213875E0,3.394186974E0,9.656692636E0
1.676124898E0,-2.673971355E-1,9.055366516E0,3.355881214E0,9.660905894E0
1.678570263E0,-2.793676257E-1,9.064942360E0,3.307999134E0,9.653708330E0
1.681014898E0,-3.057027459E-1,9.079307556E0,3.286452293E0,9.660644313E0
1.683459481E0,-2.961263359E-1,9.100854874E0,3.312787533E0,9.689572306E0
1.685904898E0,-2.937322259E-1,9.115219116E0,3.319969654E0,9.705446752E0
1.688350315E0,-3.392201066E-1,9.127189636E0,3.312787533E0,9.715720363E0
1.690794898E0,-3.296437263E-1,9.129583359E0,3.312787533E0,9.717639555E0
1.693239533E0,-3.344318867E-1,9.136765480E0,3.329546452E0,9.730272745E0
1.695684950E0,-3.344318867E-1,9.129583359E0,3.327151775E0,9.722709289E0
1.698130315E0,-3.703433871E-1,9.139160156E0,3.322363853E0,9.731367024E0
1.700574950E0,-3.799197674E-1,9.141554832E0,3.305605412E0,9.728277901E0
1.703019533E0,-3.823138773E-1,9.136765480E0,3.293634892E0,9.719808544E0
1.705464950E0,-3.990725875E-1,9.155919075E0,3.288846493E0,9.736869327E0
1.707910367E0,-4.278017581E-1,9.141554832E0,3.279270172E0,9.721350316E0
1.710354950E0,-4.254076779E-1,9.158312798E0,3.248146534E0,9.726567786E0
1.712799533E0,-4.493486583E-1,9.165495872E0,3.219417572E0,9.724858781E0
1.715244950E0,-4.301958680E-1,9.165495872E0,3.195476532E0,9.716092493E0
1.717690367E0,-4.541368484E-1,9.141554832E0,3.176323891E0,9.688307308E0
1.720135002E0,-4.828660190E-1,9.153524399E0,3.169141293E0,9.698640371E0
1.722579585E0,-4.685014188E-1,9.127189636E0,3.121259689E0,9.657502073E0
1.725025002E0,-4.708955288E-1,9.151130676E0,3.118865490E0,9.679476081E0
1.727470367E0,-4.685014188E-1,9.131978035E0,3.109289169E0,9.658167298E0
1.729915002E0,-4.852601290E-1,9.141554832E0,3.109289169E0,9.668049508E0
1.732359585E0,-4.852601290E-1,9.136765480E0,3.102106571E0,9.661212450E0
1.734805002E0,-4.900483489E-1,9.151130676E0,3.099712849E0,9.674273088E0
1.737250419E0,-5.211716294E-1,9.110430717E0,3.128441811E0,9.646694558E0
1.739695054E0,-5.068070292E-1,9.127189636E0,3.171535969E0,9.675798904E0
1.742139638E0,-4.948365390E-1,9.141554832E0,3.195476532E0,9.696595187E0
1.744585054E0,-5.068070292E-1,9.124795914E0,3.233782291E0,9.694127178E0
1.747030419E0,-4.780778289E-1,9.112824440E0,3.238570690E0,9.682998905E0
1.749475054E0,-4.325899482E-1,9.105642319E0,3.274481773E0,9.686180206E0
1.751919638E0,-4.230135679E-1,9.127189636E0,3.298422813E0,9.714119836E0
1.754365054E0,-3.703433871E-1,9.120007515E0,3.377428055E0,9.732353855E0
1.756810471E0,-3.344318867E-1,9.143948555E0,3.410945415E0,9.765151739E0
1.759255106E0,-2.721853256E-1,9.136765480E0,3.418127537E0,9.759004260E0
1.761699690E0,-1.907859743E-1,9.141554832E0,3.482768536E0,9.784380446E0
1.764145106E0,-1.069925278E-1,9.191830635E0,3.504315376E0,9.837755033E0
1.766590471E0,-3.277546167E-2,9.191830635E0,3.533044338E0,9.847498512E0
1.769035106E0,1.989470422E-2,9.208588600E0,3.537832737E0,9.864824392E0
1.771479690E0,9.411177039E-2,9.225347519E0,3.585714817E0,9.898143494E0
1.773925106E0,1.395996213E-1,9.249288559E0,3.612049580E0,9.930545255E0
1.776370523E0,1.395996213E-1,9.227741241E0,3.616837978E0,9.912225453E0
1.778815158E0,1.707229316E-1,9.242106438E0,3.640779018E0,9.934835156E0
1.781259742E0,1.731170416E-1,9.215771675E0,3.676690578E0,9.923631930E0
1.783705158E0,1.707229316E-1,9.227741241E0,3.695843220E0,9.941811296E0
1.786150523E0,1.707229316E-1,9.201406479E0,3.698237419E0,9.918265348E0
1.788595158E0,1.515701413E-1,9.187041283E0,3.743725300E0,9.921702483E0
1.791039742E0,1.228409410E-1,9.187041283E0,3.724572659E0,9.914093953E0
1.793485158E0,7.495898008E-2,9.177465439E0,3.707813740E0,9.898453084E0
1.795930575E0,7.017078996E-2,9.148736954E0,3.662325859E0,9.854792869E0
1.798375210E0,4.862388968E-2,9.184647560E0,3.640779018E0,9.880049947E0
1.800819794E0,2.468290925E-2,9.172677994E0,3.626414299E0,9.863544570E0
1.803265210E0,5.530118942E-3,9.184647560E0,3.568955898E0,9.853691064E0
1.805710575E0,-3.277546167E-2,9.175071716E0,3.497132778E0,9.819009772E0
1.808155210E0,-6.868694723E-2,9.177465439E0,3.415733814E0,9.792743603E0
1.810599794E0,-1.093866229E-1,9.177465439E0,3.408551693E0,9.790610908E0
1.813045210E0,-1.500862986E-1,9.160706520E0,3.360669613E0,9.758850859E0
1.815490627E0,-1.883918792E-1,9.167889595E0,3.331940174E0,9.756408994E0
1.817935263E0,-2.506384552E-1,9.170283318E0,3.336728573E0,9.761694183E0
1.820379846E0,-2.817617357E-1,9.177465439E0,3.288846493E0,9.753039158E0
1.822825263E0,-3.033086061E-1,9.184647560E0,3.272087574E0,9.754809276E0
1.825270627E0,-3.631610870E-1,9.177465439E0,3.255329132E0,9.744481803E0
1.827715263E0,-3.679493070E-1,9.199012756E0,3.245752811E0,9.761768984E0
1.830159846E0,-4.158312678E-1,9.225347519E0,3.200264931E0,9.773517694E0
1.832605263E0,-4.325899482E-1,9.246894836E0,3.149988651E0,9.778273195E0
1.835050679E0,-4.589250684E-1,9.266047478E0,3.140412331E0,9.794510589E0
1.837495263E0,-4.828660190E-1,9.273229599E0,3.138018131E0,9.801688864E0
1.839939898E0,-4.732896090E-1,9.275623322E0,3.145200729E0,9.805788020E0
1.842385315E0,-5.283539295E-1,9.292382240E0,3.147594929E0,9.825216507E0
1.844830679E0,-5.618712902E-1,9.289988518E0,3.166747570E0,9.830965170E0
1.847275315E0,-5.953886509E-1,9.280411720E0,3.166747570E0,9.823890243E0
1.849719898E0,-6.528470516E-1,9.270835876E0,3.200264931E0,9.829359224E0
1.852165315E0,-6.911525726E-1,9.273229599E0,3.207447052E0,9.836574387E0
1.854610679E0,-7.342463732E-1,9.258864403E0,3.233782291E0,9.834787017E0
1.857055315E0,-7.797342539E-1,9.220560074E0,3.233782291E0,9.802247777E0
1.859499898E0,-8.132517338E-1,9.218165398E0,3.226600170E0,9.800352052E0
1.861945315E0,-8.324043751E-1,9.175071716E0,3.224205971E0,9.760652754E0
1.864390731E0,-8.707100153E-1,9.143948555E0,3.233782291E0,9.737929914E0
1.866835367E0,-8.946509361E-1,9.136765480E0,3.228993893E0,9.731766813E0
1.869279950E0,-8.850746155E-1,9.098461151E0,3.195476532E0,9.683822730E0
1.871725367E0,-8.970451355E-1,9.091279030E0,3.193082333E0,9.677387000E0
1.874170731E0,-8.970451355E-1,9.084095955E0,3.176323891E0,9.665118869E0
1.876615367E0,-8.946509361E-1,9.055366516E0,3.166747570E0,9.634747179E0
1.879059950E0,-9.114097357E-1,9.050579071E0,3.118865490E0,9.616182776E0
1.881505367E0,-9.138038158E-1,9.038607597E0,3.121259689E0,9.605921443E0
1.883950783E0,-9.114097357E-1,9.050579071E0,3.104500771E0,9.611533398E0
1.886395419E0,-9.114097357E-1,9.036213875E0,3.085348129E0,9.591829960E0
1.888840002E0,-9.353506565E-1,9.029031754E0,3.061407089E0,9.579692512E0
1.891285419E0,-9.209861755E-1,9.007484436E0,3.054224968E0,9.555693672E0
1.893730783E0,-9.760503769E-1,8.990725517E0,3.051830769E0,9.544605320E0
1.896175419E0,-9.904149771E-1,8.961997032E0,3.006342888E0,9.504546817E0
1.898620002E0,-1.040691018E0,8.928480148E0,2.977613926E0,9.469265032E0
1.901065419E0,-1.052661538E0,8.906932831E0,2.965643406E0,9.446512032E0
1.903510835E0,-1.098149419E0,8.880598068E0,2.948884487E0,9.421617373E0
1.905955471E0,-1.138849020E0,8.823138237E0,2.970431328E0,9.379136832E0
1.908400054E0,-1.181942821E0,8.806380272E0,2.939308167E0,9.358891752E0
1.910845471E0,-1.205883861E0,8.794409752E0,2.886638165E0,9.334263691E0
1.913290835E0,-1.256159782E0,8.756104469E0,2.869879246E0,9.299651056E0
1.915735471E0,-1.275312662E0,8.741739273E0,2.872273445E0,9.289476985E0
1.918180054E0,-1.356712103E0,8.715404510E0,2.843544483E0,9.267399244E0
1.920625471E0,-1.406988144E0,8.696251869E0,2.855514526E0,9.260581808E0
1.923070888E0,-1.466840625E0,8.684281349E0,2.857908726E0,9.259373967E0
1.925515471E0,-1.529087067E0,8.655552864E0,2.884243965E0,9.250706237E0
1.927960106E0,-1.579363227E0,8.645976067E0,2.862697124E0,9.243501781E0
1.930405523E0,-1.579363227E0,8.655552864E0,2.798056126E0,9.232664928E0
1.932850888E0,-1.627245188E0,8.610064507E0,2.745386124E0,9.182498716E0
1.935295523E0,-1.651186228E0,8.619640350E0,2.714262962E0,9.186503097E0
1.937740106E0,-1.677521229E0,8.586123466E0,2.680745602E0,9.149972166E0
1.940185523E0,-1.675127268E0,8.554999352E0,2.632863522E0,9.106373350E0
1.942630940E0,-1.684703588E0,8.521482468E0,2.587375641E0,9.063575582E0
1.945075575E0,-1.667944789E0,8.485571861E0,2.608922482E0,9.032909063E0
1.947520158E0,-1.632033348E0,8.471206665E0,2.556252480E0,8.997738713E0
1.949965575E0,-1.598515987E0,8.430506706E0,2.527523041E0,8.945226068E0
1.952410940E0,-1.560210466E0,8.392201424E0,2.505976200E0,8.896247420E0
1.954855575E0,-1.536269426E0,8.353896141E0,2.453306198E0,8.841177285E0
1.957300158E0,-1.514722586E0,8.306014061E0,2.379088879E0,8.771791036E0
1.959745575E0,-1.485993385E0,8.279678345E0,2.338389397E0,8.730940087E0
1.962190992E0,-1.466840625E0,8.246161461E0,2.290507317E0,8.683157492E0
1.964635575E0,-1.454870105E0,8.210249901E0,2.261778355E0,8.639472888E0
1.967080210E0,-1.423746824E0,8.176733017E0,2.240231037E0,8.596781546E0
1.969525627E0,-1.404593945E0,8.148003578E0,2.206714153E0,8.557595095E0
1.971970992E0,-1.409382224E0,8.085756302E0,2.158832073E0,8.486835049E0
1.974415627E0,-1.385441184E0,8.047451019E0,2.075038433E0,8.425360507E0
1.976860210E0,-1.373470664E0,7.994781971E0,1.996033311E0,8.353867931E0
1.979305627E0,-1.363894343E0,7.937323093E0,1.940968871E0,8.284242019E0
1.981751044E0,-1.347135544E0,7.879864693E0,1.878722429E0,8.211981473E0
1.984195627E0,-1.313618183E0,7.817618370E0,1.799717069E0,8.128944042E0
1.986640210E0,-1.287283182E0,7.760159492E0,1.735076547E0,8.055287950E0
1.989085627E0,-1.222642422E0,7.709883690E0,1.703953147E0,7.990032374E0
1.991531044E0,-1.181942821E0,7.681154728E0,1.670435786E0,7.949055447E0
1.993975679E0,-1.153213739E0,7.616513729E0,1.644100785E0,7.876817295E0
1.996420263E0,-1.105331659E0,7.592572689E0,1.622553706E0,7.842295496E0
1.998865679E0,-1.067026138E0,7.551873207E0,1.672829866E0,7.808181189E0
2.001311044E0,-1.043085098E0,7.527932167E0,1.718317747E0,7.791688207E0
2.003755679E0,-1.038296938E0,7.503991127E0,1.830840349E0,7.793581959E0
2.006200263E0,-9.928090572E-1,7.484838486E0,1.969698071E0,7.803088329E0
2.008645679E0,-9.904149771E-1,7.487232685E0,2.125314713E0,7.845797457E0
2.011091096E0,-9.856266975E-1,7.480050087E0,2.288113117E0,7.884038998E0
2.013535731E0,-1.021538258E0,7.499203205E0,2.458094120E0,7.957626268E0
2.015980315E0,-9.999914169E-1,7.515961647E0,2.592163563E0,8.013050246E0
2.018425731E0,-1.021538258E0,7.501596928E0,2.762144566E0,8.058966403E0
2.020871096E0,-1.038296938E0,7.513567448E0,2.865090847E0,8.108051670E0
2.023315731E0,-1.067026138E0,7.556661129E0,2.975219727E0,8.191068588E0
2.025760315E0,-1.093361139E0,7.582996845E0,3.121259689E0,8.272819458E0
2.028205731E0,-1.136454940E0,7.621302128E0,3.233782291E0,8.356621558E0
2.030651148E0,-1.160395980E0,7.683548450E0,3.370245934E0,8.470064538E0
2.033095783E0,-1.198701501E0,7.750583172E0,3.509103298E0,8.591986426E0
2.035540367E0,-1.186730981E0,7.815224171E0,3.640779018E0,8.702949564E0
2.037985783E0,-1.165184140E0,7.913382053E0,3.746119499E0,8.832478752E0
2.040431148E0,-1.110119939E0,7.997175694E0,3.794001102E0,8.920853643E0
2.042875783E0,-1.050267458E0,8.102515221E0,3.796395302E0,9.009241473E0
2.045320367E0,-9.832327366E-1,8.198279381E0,3.782030582E0,9.081975927E0
2.047765783E0,-9.018332958E-1,8.308407784E0,3.717390060E0,9.146689677E0
2.050211200E0,-8.371926546E-1,8.389807701E0,3.655143738E0,9.189659436E0
2.052655835E0,-7.653696537E-1,8.492753983E0,3.592896938E0,9.253192386E0
2.055100419E0,-6.839703321E-1,8.595699310E0,3.501921177E0,9.306842320E0
2.057545835E0,-6.360883713E-1,8.691463470E0,3.355881214E0,9.338526886E0
2.059991200E0,-5.331420898E-1,8.753710747E0,3.243358612E0,9.350458139E0
2.062435835E0,-4.780778289E-1,8.851868629E0,3.145200729E0,9.406190742E0
2.064880419E0,-4.014666677E-1,8.935661316E0,3.035071850E0,9.445574613E0
2.067325835E0,-3.368260264E-1,8.993119240E0,2.924943447E0,9.462818798E0
2.069771252E0,-2.314856648E-1,9.062548637E0,2.810026646E0,9.491028562E0
2.072215888E0,-1.429040134E-1,9.103248596E0,2.745386124E0,9.509295533E0
2.074660471E0,-5.911055207E-2,9.153524399E0,2.690321922E0,9.540877057E0
2.077105888E0,4.144160450E-2,9.194224358E0,2.637651920E0,9.565180950E0
2.079551252E0,1.372055411E-1,9.225347519E0,2.611316681E0,9.588787046E0
2.081995888E0,2.880337536E-1,9.258864403E0,2.534705639E0,9.603867250E0
2.084440471E0,4.364678562E-1,9.261260033E0,2.472458839E0,9.595545544E0
2.086885888E0,6.184194088E-1,9.292382240E0,2.419788837E0,9.622171703E0
2.089331304E0,7.524889708E-1,9.289988518E0,2.335995197E0,9.608693973E0
2.091775940E0,9.296523333E-1,9.321111679E0,2.280930996E0,9.641059205E0
2.094220523E0,1.090056896E0,9.325900078E0,2.211502075E0,9.646314204E0
2.096665940E0,1.257643819E0,9.325900078E0,2.185166836E0,9.660695334E0
2.099111304E0,1.394107461E0,9.366600037E0,2.134891033E0,9.707445162E0
2.101555940E0,1.556906104E0,9.385752678E0,2.120526314E0,9.747458222E0
2.104000523E0,1.650276065E0,9.414482117E0,2.106161594E0,9.787328608E0
2.106445940E0,1.746039867E0,9.431241035E0,2.108555794E0,9.820538184E0
2.108891356E0,1.825045109E0,9.493486404E0,2.098979473E0,9.892562286E0
2.111335940E0,1.872927070E0,9.524609566E0,2.108555794E0,9.933380629E0
2.113780575E0,1.920809150E0,9.570097923E0,2.161225796E0,9.997358601E0
2.116225992E0,1.954326510E0,9.613191605E0,2.211502075E0,1.005602239E1
2.118671356E0,1.983055711E0,9.656285286E0,2.345571518E0,1.013301837E1
2.121115992E0,1.961508870E0,9.711349487E0,2.508370399E0,1.022006595E1
2.123560575E0,1.966297030E0,9.725714684E0,2.663986683E0,1.027388316E1
2.126005992E0,1.963903069E0,9.799931526E0,2.848332405E0,1.039271719E1
2.128451408E0,1.935173869E0,9.811902046E0,3.047042370E0,1.045479731E1
2.130895992E0,1.942355990E0,9.840630531E0,3.207447052E0,1.053083438E1
2.133340575E0,1.930385470E0,9.854995728E0,3.384610653E0,1.059730712E1
2.135785992E0,1.911232829E0,9.883724213E0,3.480374336E0,1.065147036E1
2.138231408E0,1.899262309E0,9.895695686E0,3.588108540E0,1.069609804E1
2.140676044E0,1.918414950E0,9.905271530E0,3.710207939E0,1.074990060E1
2.143120627E0,1.949538350E0,9.924425125E0,3.786818981E0,1.079976443E1
2.145566044E0,1.992632031E0,9.938788414E0,3.837095261E0,1.083851455E1
2.148011408E0,2.064455032E0,9.934000969E0,3.844277382E0,1.085010684E1
2.150456044E0,2.119519234E0,9.945971489E0,3.825124741E0,1.086491095E1
2.152900627E0,2.229647636E0,9.957942009E0,3.813154221E0,1.089367168E1
2.155346044E0,2.358929157E0,9.957942009E0,3.820336342E0,1.092337519E1
2.157791460E0,2.464269400E0,9.962729454E0,3.777242661E0,1.093600311E1
2.160236096E0,2.576792240E0,9.957942009E0,3.755695820E0,1.095014696E1
2.162680679E0,2.703679323E0,9.943577766E0,3.987923145E0,1.104935074E1
2.165126096E0,2.825778484E0,9.981883049E0,3.466009617E0,1.093783507E1
2.167571460E0,2.909571886E0,9.969912529E0,4.019046783E0,1.113631454E1
2.170016096E0,3.031670809E0,1.000342941E1,3.674296379E0,1.107971488E1
2.172460679E0,3.077158689E0,1.001061153E1,4.002287865E0,1.121158138E1
2.174906096E0,3.165740490E0,1.004652405E1,3.932858944E0,1.124375105E1
2.177351513E0,3.201651812E0,1.005849361E1,3.918494225E0,1.125959436E1
2.179796148E0,3.242351532E0,1.005131149E1,4.215362549E0,1.137149892E1
2.182240731E0,3.278262854E0,1.006567669E1,3.856247902E0,1.126656569E1
2.184686148E0,3.323750973E0,1.004173565E1,4.366190910E0,1.144322500E1
2.187131513E0,3.381209135E0,1.005370522E1,3.844277382E0,1.128219980E1
2.189576148E0,3.402756214E0,1.002497673E1,4.366190910E0,1.145174796E1
2.192020731E0,3.467396975E0,1.005370522E1,3.935253143E0,1.133957881E1
2.194466148E0,3.474579096E0,1.001540089E1,4.193815708E0,1.140039670E1
2.196911565E0,3.570343256E0,1.003694725E1,4.057352066E0,1.139955117E1
2.199356200E0,3.594284058E0,1.000582409E1,3.992711544E0,1.135681025E1
2.201800783E0,3.646954060E0,9.993853569E0,4.200997829E0,1.143790915E1
2.204246200E0,3.704412699E0,1.000821781E1,3.741331100E0,1.130860980E1
2.206691565E0,3.687654018E0,9.979488373E0,4.174663067E0,1.142877037E1
2.209136200E0,3.730747700E0,9.981883049E0,3.614443779E0,1.125258510E1
2.211580783E0,3.728353739E0,9.967518806E0,4.121993065E0,1.141240026E1
2.214026200E0,3.766659260E0,9.965125084E0,3.746119499E0,1.129269017E1
2.216471617E0,3.735535860E0,9.948365211E0,4.117204189E0,1.139629628E1
2.218916252E0,3.769053221E0,9.934000969E0,4.042987823E0,1.136819634E1
2.221360835E0,3.742718220E0,9.926818848E0,4.031017303E0,1.134895469E1
2.223806252E0,3.747506380E0,9.924425125E0,4.296761990E0,1.144553108E1
2.226251617E0,3.766659260E0,9.919636726E0,3.978346825E0,1.133199710E1
2.228696252E0,3.761870861E0,9.905271530E0,4.557718754E0,1.153424799E1
2.231140835E0,3.807358980E0,9.922030449E0,4.093263626E0,1.138848005E1
2.233586252E0,3.821723461E0,9.929212570E0,4.619965553E0,1.159909109E1
2.236031669E0,3.828905582E0,9.941184044E0,4.174663067E0,1.144182983E1
2.238476304E0,3.826511621E0,9.929212570E0,4.454772472E0,1.153587670E1
2.240920888E0,3.838482141E0,9.950759888E0,4.311126232E0,1.150379837E1
2.243366304E0,3.843270540E0,9.929212570E0,4.270426750E0,1.147155331E1
2.245811669E0,3.867211580E0,9.929212570E0,4.531383991E0,1.157920673E1
2.248256304E0,3.900728464E0,9.910059929E0,4.239303589E0,1.146283845E1
2.250700888E0,3.907911062E0,9.864571571E0,4.756428719E0,1.162777517E1
2.253146304E0,3.939034224E0,9.859784126E0,4.232121468E0,1.142988127E1
2.255591721E0,3.941428423E0,9.835843086E0,4.739670277E0,1.160789135E1
2.258036356E0,3.991704226E0,9.852602005E0,4.301550388E0,1.146781604E1
2.260480940E0,4.006069183E0,9.828660965E0,4.686999798E0,1.160254859E1
2.262926356E0,4.015645504E0,9.814295769E0,4.727699757E0,1.161020910E1
2.265371721E0,4.034798622E0,9.783172607E0,4.639117718E0,1.155471676E1
2.267816356E0,4.032403946E0,9.775990486E0,4.907257557E0,1.165810655E1
2.270260940E0,4.053951263E0,9.716137886E0,4.983868599E0,1.164803857E1
2.272706356E0,4.044374466E0,9.663467407E0,5.065268040E0,1.163600049E1
2.275151773E0,4.001281261E0,9.596432686E0,5.036538601E0,1.155285649E1
2.277596356E0,3.953398943E0,9.529398918E0,4.988656521E0,1.145973389E1
2.280040992E0,3.879182100E0,9.457575798E0,5.014991283E0,1.138612890E1
2.282486408E0,3.845664263E0,9.400116920E0,5.132302284E0,1.137944895E1
2.284931773E0,3.833693743E0,9.335476875E0,5.273554325E0,1.138677792E1
2.287376408E0,3.812146902E0,9.275623322E0,5.342983246E0,1.136297153E1
2.289820992E0,3.838482141E0,9.206194878E0,5.386076927E0,1.133568674E1
2.292266408E0,3.831300020E0,9.170283318E0,5.410017967E0,1.131553138E1
2.294711825E0,3.848058462E0,9.129583359E0,5.450717449E0,1.130783653E1
2.297156408E0,3.881575823E0,9.076913834E0,5.465082169E0,1.128379895E1
2.299601044E0,3.876787901E0,9.031425476E0,5.512964249E0,1.126893541E1
2.302046460E0,3.898334742E0,9.002696991E0,5.529722691E0,1.126158958E1
2.304491825E0,3.862423182E0,8.971573830E0,5.496205330E0,1.120784202E1
2.306936460E0,3.812146902E0,8.947632790E0,5.568028450E0,1.120694148E1
2.309381044E0,3.761870861E0,8.909326553E0,5.649427891E0,1.120016998E1
2.311826460E0,3.694836140E0,8.849474907E0,5.670974731E0,1.114113884E1
2.314271877E0,3.596678257E0,8.839898109E0,5.711674213E0,1.112219022E1
2.316716460E0,3.496125937E0,8.825533867E0,5.730827332E0,1.108852229E1
2.319161044E0,3.412332773E0,8.796803474E0,5.790679455E0,1.107067003E1
2.321606460E0,3.354874134E0,8.775257111E0,5.876867294E0,1.108142080E1
2.324051877E0,3.251927853E0,8.736951828E0,5.898413658E0,1.103180156E1
2.326496513E0,3.129828930E0,8.693858147E0,5.843349934E0,1.093269121E1
2.328941096E0,3.029276609E0,8.708222389E0,5.764344215E0,1.087369846E1
2.331386513E0,2.914359808E0,8.698645592E0,5.742797375E0,1.082310722E1
2.333831877E0,2.820990086E0,8.696251869E0,5.726038933E0,1.078750682E1
2.336276513E0,2.715649843E0,8.739345551E0,5.675762653E0,1.076871378E1
2.338721096E0,2.662979603E0,8.756104469E0,5.656610012E0,1.075909209E1
2.341166513E0,2.629462242E0,8.777651787E0,5.618304253E0,1.074832942E1
2.343611929E0,2.560033321E0,8.782439232E0,5.601545811E0,1.072671082E1
2.346056565E0,2.519333601E0,8.777651787E0,5.524934769E0,1.067328988E1
2.348501148E0,2.461875439E0,8.784833908E0,5.424382210E0,1.061405011E1
2.350946565E0,2.399628639E0,8.792016029E0,5.304677486E0,1.054501620E1
2.353391929E0,2.385264158E0,8.801592827E0,5.139484882E0,1.046765620E1
2.355836565E0,2.361323118E0,8.808774948E0,5.024568081E0,1.041233150E1
2.358281148E0,2.313441277E0,8.770468712E0,4.945562840E0,1.033110467E1
2.360726565E0,2.287106276E0,8.739345551E0,4.847404957E0,1.025204129E1
2.363171981E0,2.253588676E0,8.710617065E0,4.710940838E0,1.015610531E1
2.365616617E0,2.232041836E0,8.713010788E0,4.598418236E0,1.010168392E1
2.368061200E0,2.224859715E0,8.724980354E0,4.531383991E0,1.008011527E1
2.370506617E0,2.200918674E0,8.722586632E0,4.500260353E0,1.005882219E1
2.372951981E0,2.155430555E0,8.679493904E0,4.555325031E0,1.003645761E1
2.375396617E0,2.097972393E0,8.648369789E0,4.576871395E0,1.000717442E1
2.377841200E0,2.047696114E0,8.665128708E0,4.514625072E0,9.982953192E0
2.380286617E0,2.009390593E0,8.638793945E0,4.528989315E0,9.958823003E0
2.382732033E0,1.937567830E0,8.643581390E0,4.497866154E0,9.934609619E0
2.385176669E0,1.817862868E0,8.612458229E0,4.471531391E0,9.872874715E0
2.387621252E0,1.714916706E0,8.595699310E0,4.490684032E0,9.848514051E0
2.390066669E0,1.614364505E0,8.559788704E0,4.464348793E0,9.788082834E0
2.392512033E0,1.465930462E0,8.559788704E0,4.517018795E0,9.788891335E0
2.394956669E0,1.401289701E0,8.547817230E0,4.512230873E0,9.766730245E0
2.397401252E0,1.307919860E0,8.533453941E0,4.505048275E0,9.737861700E0
2.399846669E0,1.221732259E0,8.516695023E0,4.478713512E0,9.699773118E0
2.402292085E0,1.145121217E0,8.492753983E0,4.476319313E0,9.668278409E0
2.404736721E0,1.099633336E0,8.485571861E0,4.390131950E0,9.617036021E0
2.407181304E0,1.030204415E0,8.509512901E0,4.236909389E0,9.561617652E0
2.409626721E0,9.631696939E-1,8.516695023E0,4.124386787E0,9.511695766E0
2.412072085E0,8.793761730E-1,8.502329826E0,4.095657825E0,9.478255533E0
2.414516721E0,7.836122513E-1,8.552605629E0,4.119598866E0,9.525345454E0
2.416961304E0,7.237597704E-1,8.569364548E0,4.196209908E0,9.569013248E0
2.419406721E0,6.663013697E-1,8.624428749E0,4.215362549E0,9.622578146E0
2.421852138E0,6.064488888E-1,8.645976067E0,4.244091988E0,9.650543985E0
2.424296773E0,5.681433678E-1,8.645976067E0,4.203392506E0,9.630378891E0
2.426741356E0,5.370200872E-1,8.672310829E0,4.212968349E0,9.656421076E0
2.429186773E0,5.394141674E-1,8.751316071E0,4.186633587E0,9.716192742E0
2.431632138E0,5.298377275E-1,8.744133949E0,4.155510426E0,9.695817317E0
2.434076773E0,4.221033156E-1,8.648369789E0,4.076504707E0,9.570285359E0
2.436521356E0,4.268915355E-1,8.703434944E0,4.023834705E0,9.598086369E0
2.438966773E0,4.939262569E-1,8.825533867E0,3.992711544E0,9.699265779E0
2.441412190E0,5.777196884E-1,8.930873871E0,3.954405785E0,9.784252309E0
2.443856825E0,7.093951702E-1,9.007484436E0,3.918494225E0,9.848482846E0
2.446301408E0,8.482528925E-1,9.033820152E0,3.877794743E0,9.867458213E0
2.448746825E0,9.368345737E-1,9.076913834E0,3.829912663E0,9.896274792E0
2.451192190E0,9.942928553E-1,9.007484436E0,3.784424782E0,9.820655023E0
2.453636825E0,1.018233895E0,8.995514870E0,3.736543179E0,9.793765515E0
2.456081408E0,9.871106148E-1,8.938055992E0,3.710207939E0,9.727737416E0
2.458526825E0,9.224698544E-1,8.894961357E0,3.664720058E0,9.664443144E0
2.460972242E0,8.291000128E-1,8.832715988E0,3.643173218E0,9.590463474E0
2.463416877E0,7.309420109E-1,8.784833908E0,3.664720058E0,9.546609666E0
2.465861460E0,6.591190100E-1,8.756104469E0,3.724572659E0,9.538146824E0
2.468306877E0,5.801137686E-1,8.713010788E0,3.760484219E0,9.507593309E0
2.470752242E0,5.035026073E-1,8.662734985E0,3.808365822E0,9.476293713E0
2.473196877E0,4.532265961E-1,8.617246628E0,3.865824223E0,9.455524878E0
2.475641460E0,4.340738356E-1,8.550211906E0,3.822730541E0,9.375916623E0
2.478086877E0,3.981623352E-1,8.526270866E0,3.767666340E0,9.330119923E0
2.480532294E0,3.574626148E-1,8.499936104E0,3.750907421E0,9.297634095E0
2.482976877E0,3.407039344E-1,8.516695023E0,3.825124741E0,9.342470367E0
2.485421513E0,3.478862345E-1,8.540636063E0,3.935253143E0,9.410085360E0
2.487866929E0,3.837976754E-1,8.569364548E0,4.114810467E0,9.513830700E0
2.490312294E0,4.628029764E-1,8.660340309E0,4.275214672E0,9.669185144E0
2.492756929E0,5.274436474E-1,8.724980354E0,4.399708271E0,9.785750449E0
2.495201513E0,6.303899288E-1,8.811168671E0,4.473925591E0,9.902024793E0
2.497646929E0,7.548830509E-1,8.916508675E0,4.591236115E0,1.005750587E1
2.500092346E0,8.745880127E-1,8.990725517E0,4.636723995E0,1.015368204E1
2.502536929E0,1.044569016E0,9.084095955E0,4.648694515E0,1.025779140E1
2.504981565E0,1.185820818E0,9.158312798E0,4.591236115E0,1.031311366E1
2.507426981E0,1.281584740E0,9.234923363E0,4.564900875E0,1.038097245E1
2.509872346E0,1.384531021E0,9.304352760E0,4.598418236E0,1.047059486E1
2.512316981E0,1.458747983E0,9.366600037E0,4.641512394E0,1.055484624E1
2.514761565E0,1.532965183E0,9.419269562E0,4.672635555E0,1.062573030E1
2.517206981E0,1.616758704E0,9.426451683E0,4.703758717E0,1.065820088E1
2.519652398E0,1.712522507E0,9.450392723E0,4.646300316E0,1.066915004E1
2.522096981E0,1.793921947E0,9.467151642E0,4.548142433E0,1.065507934E1
2.524541565E0,1.863350749E0,9.450392723E0,4.457166195E0,1.061359172E1
2.526986981E0,1.904050469E0,9.428845406E0,4.351826191E0,1.055778978E1
2.529432398E0,1.954326510E0,9.395328522E0,4.306338310E0,1.051837154E1
2.531877033E0,1.995026231E0,9.366600037E0,4.222544670E0,1.046628919E1
2.534321617E0,1.990238070E0,9.342658997E0,4.169874668E0,1.042277216E1
2.536767033E0,1.975873590E0,9.309141159E0,4.136357307E0,1.037659083E1
2.539212398E0,1.932779431E0,9.258864403E0,4.095657825E0,1.030711499E1
2.541657033E0,1.894474149E0,9.244501114E0,4.100445747E0,1.028899842E1
2.544101617E0,1.834621549E0,9.199012756E0,4.098052025E0,1.023629339E1
2.546547033E0,1.810680628E0,9.194224358E0,4.093263626E0,1.022580720E1
2.548992450E0,1.817862868E0,9.194224358E0,4.102839947E0,1.023091797E1
2.551437085E0,1.839409709E0,9.234923363E0,4.143539906E0,1.028767032E1
2.553881669E0,1.865744948E0,9.289988518E0,4.200997829E0,1.036500235E1
2.556327085E0,1.954326510E0,9.347446442E0,4.248879910E0,1.045213507E1
2.558772450E0,1.980661511E0,9.409693718E0,4.277609348E0,1.052441436E1
2.561217085E0,2.028543472E0,9.486304283E0,4.349432468E0,1.063120503E1
2.563661669E0,2.081213713E0,9.531792641E0,4.397314072E0,1.070153692E1
2.566107085E0,2.124307394E0,9.553339958E0,4.435619831E0,1.074493879E1
2.568552502E0,2.145854473E0,9.589250565E0,4.433225155E0,1.078016248E1
2.570997138E0,2.124307394E0,9.610797882E0,4.440407753E0,1.079802477E1
2.573441721E0,2.074031353E0,9.608404160E0,4.433225155E0,1.078315918E1
2.575887138E0,2.002208471E0,9.627556801E0,4.428437233E0,1.078469958E1
2.578332554E0,1.896868110E0,9.594038963E0,4.423649311E0,1.073370232E1
2.580777138E0,1.750828147E0,9.574885368E0,4.473925591E0,1.071260189E1
2.583221721E0,1.566482544E0,9.527003288E0,4.414072990E0,1.061610567E1
2.585667138E0,1.374954700E0,9.481516838E0,4.361402988E0,1.052670404E1
2.588112554E0,1.216944218E0,9.436028481E0,4.246485710E0,1.041884003E1
2.590557190E0,9.942928553E-1,9.368993759E0,4.162692547E0,1.030022677E1
2.593001773E0,8.051590919E-1,9.321111679E0,4.129174709E0,1.022650908E1
2.595447190E0,6.112370491E-1,9.244501114E0,4.033411026E0,1.010459381E1
2.597892554E0,4.149210155E-1,9.170283318E0,3.913706303E0,9.979145885E0
2.600337190E0,1.970579922E-1,9.100854874E0,3.779636860E0,9.856472294E0
2.602781773E0,3.186520934E-2,9.019455910E0,3.674296379E0,9.739201927E0
2.605227190E0,-1.859977841E-1,8.997908592E0,3.652749538E0,9.712854030E0
2.607672606E0,-3.440083265E-1,8.952420235E0,3.624020100E0,9.664248107E0
2.610117242E0,-4.780778289E-1,8.906932831E0,3.619232178E0,9.626050718E0
2.612561825E0,-5.594772100E-1,8.859050751E0,3.714995861E0,9.622732938E0
2.615007242E0,-6.169355512E-1,8.827927589E0,3.817942142E0,9.637924943E0
2.617452606E0,-6.552411318E-1,8.815957069E0,3.863430023E0,9.647617920E0
2.619897242E0,-6.719998121E-1,8.806380272E0,3.851459980E0,9.635230211E0
2.622341825E0,-6.336942315E-1,8.811168671E0,3.805971622E0,9.618923106E0
2.624787242E0,-5.714476705E-1,8.839898109E0,3.815548420E0,9.645141822E0
2.627232658E0,-4.900483489E-1,8.859050751E0,3.882583141E0,9.684904720E0
2.629677294E0,-3.655551970E-1,8.887779236E0,3.961587906E0,9.737578194E0
2.632121877E0,-2.051505744E-1,8.916508675E0,4.090869427E0,9.812309941E0
2.634567294E0,-1.362268627E-2,8.945238113E0,4.177056789E0,9.872450248E0
2.637012658E0,1.970579922E-1,8.959602356E0,4.224938869E0,9.907745186E0
2.639457294E0,4.101327956E-1,8.952420235E0,4.220150948E0,9.905741314E0
2.641901877E0,5.729315281E-1,8.961997032E0,4.150722027E0,9.893135736E0
2.644347294E0,6.710895300E-1,8.952420235E0,4.047775745E0,9.847876812E0
2.646792710E0,7.836122513E-1,8.978755951E0,4.031017303E0,9.873257167E0
2.649237346E0,8.626174927E-1,8.959602356E0,4.050169945E0,9.870281652E0
2.651681929E0,9.224698544E-1,8.995514870E0,4.126780987E0,9.939847067E0
2.654127346E0,1.006263375E0,9.019455910E0,4.160298347E0,9.983548128E0
2.656572710E0,1.070904016E0,9.024243355E0,4.215362549E0,1.001763869E1
2.659017346E0,1.082874537E0,9.017060280E0,4.200997829E0,1.000641675E1
2.661461929E0,1.054145455E0,9.012272835E0,4.155510426E0,9.980007574E0
2.663907346E0,1.030204415E0,8.985938072E0,4.165086269E0,9.957728044E0
2.666352763E0,9.440169334E-1,8.969179153E0,4.143539906E0,9.925032272E0
2.668797398E0,8.530410528E-1,8.923691750E0,4.062140465E0,9.841795499E0
2.671241981E0,7.429125309E-1,8.904539108E0,3.947223663E0,9.768485574E0
2.673687398E0,6.160253286E-1,8.909326553E0,3.839489460E0,9.720970433E0
2.676132763E0,4.699852765E-1,8.882991791E0,3.786818981E0,9.667907080E0
2.678577398E0,3.574626148E-1,8.880598068E0,3.707813740E0,9.630196483E0
2.681021981E0,2.616986930E-1,8.854262352E0,3.643173218E0,9.578056123E0
2.683467398E0,1.970579922E-1,8.849474907E0,3.564167976E0,9.542291724E0
2.685912815E0,1.443878412E-1,8.854262352E0,3.525862217E0,9.531553599E0
2.688357450E0,1.491760314E-1,8.839898109E0,3.497132778E0,9.507680566E0
2.690802033E0,1.491760314E-1,8.830321312E0,3.468403816E0,9.488237613E0
2.693247450E0,1.635406315E-1,8.849474907E0,3.468403816E0,9.506301947E0
2.695692815E0,1.779052317E-1,8.837503433E0,3.487556934E0,9.502429720E0
2.698137450E0,2.497282028E-1,8.844685555E0,3.497132778E0,9.514240085E0
2.700582033E0,2.904278934E-1,8.851868629E0,3.461221695E0,9.508942224E0
2.703027450E0,3.263393641E-1,8.875809669E0,3.410945415E0,9.514254742E0
2.705472867E0,3.430980146E-1,8.899750710E0,3.382216454E0,9.526944268E0
2.707917450E0,3.454921544E-1,8.930873871E0,3.384610653E0,9.556958836E0
2.710362085E0,3.454921544E-1,8.983543396E0,3.494739056E0,9.645549121E0
2.712807502E0,3.478862345E-1,9.026638031E0,3.592896938E0,9.721631930E0
2.715252867E0,3.071865737E-1,9.060154915E0,3.707813740E0,9.794317404E0
2.717697502E0,2.880337536E-1,9.136765480E0,3.810760021E0,9.903804260E0
2.720142085E0,2.449400127E-1,9.187041283E0,3.901735783E0,9.984250861E0
2.722587502E0,2.114225924E-1,9.254076958E0,3.968770504E0,1.007143382E1
2.725032919E0,2.305754125E-1,9.306746483E0,3.999893665E0,1.013251422E1
2.727477554E0,2.114225924E-1,9.376175880E0,4.031017303E0,1.020815724E1
2.729922138E0,2.257871926E-1,9.416875839E0,4.047775745E0,1.025246404E1
2.732367554E0,2.664868832E-1,9.409693718E0,4.050169945E0,1.024779136E1
2.734812919E0,3.119747639E-1,9.428845406E0,4.026228905E0,1.025724003E1
2.737257554E0,3.478862345E-1,9.447999001E0,4.002287865E0,1.026664590E1
2.739702138E0,3.814036548E-1,9.436028481E0,3.947223663E0,1.023546173E1
2.742147554E0,3.766154349E-1,9.450392723E0,3.892159462E0,1.022744675E1
2.744592919E0,3.837976754E-1,9.409693718E0,3.887371063E0,1.018829182E1
2.747037554E0,3.598567545E-1,9.385752678E0,3.779636860E0,1.012459900E1
2.749482190E0,3.287334442E-1,9.380963326E0,3.633596897E0,1.006546397E1
2.751927606E0,2.329694927E-1,9.347446442E0,3.444462776E0,9.964605039E0
2.754372971E0,1.779052317E-1,9.275623322E0,3.336728573E0,9.859137683E0
2.756817606E0,5.820028484E-2,9.208588600E0,3.272087574E0,9.772821925E0
2.759262190E0,-9.262792766E-2,9.151130676E0,3.238570690E0,9.707734684E0
2.761707606E0,-2.027564794E-1,9.086489677E0,3.159565449E0,9.622279287E0
2.764153023E0,-3.128850460E-1,9.024243355E0,3.094924450E0,9.545335119E0
2.766597606E0,-4.014666677E-1,8.983543396E0,3.082953930E0,9.506304874E0
2.769042242E0,-4.517427385E-1,8.942843437E0,3.056619167E0,9.461577087E0
2.771487658E0,-5.068070292E-1,8.930873871E0,3.066195011E0,9.456157428E0
2.773933023E0,-5.403243899E-1,8.918902397E0,3.082953930E0,9.452162470E0
2.776377658E0,-5.570831299E-1,8.909326553E0,3.085348129E0,9.444882971E0
2.778822242E0,-5.882064104E-1,8.933267593E0,3.111683369E0,9.477965502E0
2.781267658E0,-5.953886509E-1,8.981149673E0,3.173929691E0,9.544074957E0
2.783713075E0,-6.193296909E-1,9.019455910E0,3.245752811E0,9.605678814E0
2.786157658E0,-6.193296909E-1,9.045790672E0,3.358275414E0,9.668914722E0
2.788602294E0,-6.145414710E-1,9.105642319E0,3.458827496E0,9.759808958E0
2.791047710E0,-6.504529715E-1,9.179860115E0,3.523468018E0,9.854326343E0
2.793493075E0,-6.504529715E-1,9.213377953E0,3.592896938E0,9.910516171E0
2.795937710E0,-6.360883713E-1,9.254076958E0,3.647961140E0,9.967455504E0
2.798382294E0,-6.408765316E-1,9.325900078E0,3.695843220E0,1.005198449E1
2.800827710E0,-6.145414710E-1,9.383358955E0,3.741331100E0,1.012040735E1
2.803273075E0,-6.097532511E-1,9.419269562E0,3.767666340E0,1.016315639E1
2.805717710E0,-5.714476705E-1,9.471940041E0,3.774848461E0,1.021242780E1
2.808162346E0,-5.331420898E-1,9.476727486E0,3.791607380E0,1.022100244E1
2.810607763E0,-4.661073387E-1,9.493486404E0,3.753301620E0,1.021913955E1
2.813053127E0,-4.158312678E-1,9.515033722E0,3.743725300E0,1.023348726E1
2.815497763E0,-3.487964869E-1,9.515033722E0,3.726966381E0,1.022486206E1
2.817942346E0,-2.745794356E-1,9.519822121E0,3.662325859E0,1.020367766E1
2.820387763E0,-2.243033648E-1,9.507851601E0,3.607261658E0,1.017162183E1
2.822833127E0,-1.405099034E-1,9.493486404E0,3.533044338E0,1.013056906E1
2.825277763E0,-4.474595189E-2,9.488698959E0,3.454039097E0,1.009791049E1
2.827722346E0,1.989470422E-2,9.464757919E0,3.379822254E0,1.005013616E1
2.830167763E0,8.932358027E-2,9.462363243E0,3.348699093E0,1.003783256E1
2.832613179E0,1.515701413E-1,9.424057961E0,3.336728573E0,9.998479860E0
2.835057815E0,1.946639121E-1,9.390541077E0,3.334334373E0,9.966842101E0
2.837502398E0,1.970579922E-1,9.364205360E0,3.315181732E0,9.935673294E0
2.839947815E0,1.683288217E-1,9.309141159E0,3.233782291E0,9.856256471E0
2.842393179E0,1.611465514E-1,9.275623322E0,3.099712849E0,9.781174569E0
2.844837815E0,1.395996213E-1,9.237318993E0,2.982401848E0,9.707845848E0
2.847282398E0,1.180527508E-1,9.208588600E0,2.905790806E0,9.656897052E0
2.849727815E0,1.036881506E-1,9.170283318E0,2.889031887E0,9.615162640E0
2.852173231E0,1.132645607E-1,9.143948555E0,2.898608685E0,9.593047292E0
2.854617867E0,1.300232708E-1,9.127189636E0,2.946490288E0,9.591887287E0
2.857062450E0,1.563583612E-1,9.139160156E0,3.020707607E0,9.626700927E0
2.859507867E0,1.826934218E-1,9.158312798E0,3.051830769E0,9.655140663E0
2.861953231E0,2.329694927E-1,9.182253838E0,3.078165531E0,9.687268106E0
2.864397867E0,2.569104731E-1,9.191830635E0,3.133230209E0,9.714570755E0
2.866842450E0,2.904278934E-1,9.237318993E0,3.197870731E0,9.779508564E0
2.869287867E0,3.191570342E-1,9.249288559E0,3.245752811E0,9.807451829E0
2.871733283E0,2.880337536E-1,9.232529640E0,3.298422813E0,9.808269983E0
2.874177919E0,2.281812727E-1,9.230135918E0,3.403763294E0,9.840380090E0
2.876622502E0,1.826934218E-1,9.222953796E0,3.461221695E0,9.852731055E0
2.879067919E0,1.156586707E-1,9.206194878E0,3.511497974E0,9.853832710E0
2.881513283E0,3.186520934E-2,9.201406479E0,3.533044338E0,9.856434390E0
2.883957919E0,-4.474595189E-2,9.163100243E0,3.528256416E0,9.819012252E0
2.886402502E0,-1.429040134E-1,9.141554832E0,3.533044338E0,9.801573782E0
2.888847919E0,-1.740272939E-1,9.129583359E0,3.561773777E0,9.801316761E0
2.891293335E0,-2.003623843E-1,9.141554832E0,3.547409058E0,9.807766354E0
2.893737971E0,-2.195151746E-1,9.153524399E0,3.554591656E0,9.821930445E0
2.896182554E0,-2.027564794E-1,9.143948555E0,3.540226936E0,9.807451867E0
2.898627971E0,-1.836036891E-1,9.163100243E0,3.528256416E0,9.820626747E0
2.901073335E0,-1.524803936E-1,9.179860115E0,3.525862217E0,9.834876022E0
2.903517971E0,-1.237512156E-1,9.225347519E0,3.489950657E0,9.864183027E0
2.905962554E0,-5.192825198E-2,9.254076958E0,3.477980137E0,9.886201632E0
2.908407971E0,-2.559316158E-2,9.278017998E0,3.466009617E0,9.904317020E0
2.910853388E0,4.862388968E-2,9.285201073E0,3.499527454E0,9.922903590E0
2.913298023E0,9.650588036E-2,9.306746483E0,3.511497974E0,9.947635976E0
2.915742606E0,1.491760314E-1,9.316323280E0,3.485162735E0,9.947989357E0
2.918188023E0,1.850875318E-1,9.330687523E0,3.468403816E0,9.956194658E0
2.920633388E0,2.090285122E-1,9.330687523E0,3.468403816E0,9.956668499E0
2.923078023E0,1.898757219E-1,9.323505402E0,3.439674854E0,9.939575890E0
2.925522606E0,1.874816418E-1,9.306746483E0,3.437280655E0,9.922982302E0
2.927968023E0,1.324173510E-1,9.304352760E0,3.413339615E0,9.911579186E0
2.930413440E0,8.692947030E-2,9.282805443E0,3.446856976E0,9.902467199E0
2.932858075E0,5.101798475E-2,9.270835876E0,3.477980137E0,9.901886008E0
2.935302658E0,-3.516955674E-2,9.222953796E0,3.477980137E0,9.857000531E0
2.937748075E0,-1.261453182E-1,9.177465439E0,3.513891697E0,9.827981450E0
2.940193440E0,-1.979682744E-1,9.122401237E0,3.521073818E0,9.780355648E0
2.942638075E0,-2.841558456E-1,9.117613792E0,3.537832737E0,9.784062872E0
2.945082658E0,-3.392201066E-1,9.088883400E0,3.533044338E0,9.757318998E0
2.947528075E0,-3.847079873E-1,9.048184395E0,3.504315376E0,9.710708900E0
2.949973492E0,-4.062548876E-1,9.031425476E0,3.540226936E0,9.709011068E0
2.952418127E0,-4.182253778E-1,9.014666557E0,3.537832737E0,9.693058655E0
2.954862710E0,-4.158312678E-1,9.007484436E0,3.556985378E0,9.693288219E0
2.957308127E0,-3.847079873E-1,8.993119240E0,3.523468018E0,9.666386128E0
2.959753492E0,-3.918902874E-1,9.007484436E0,3.506709576E0,9.673952962E0
2.962198127E0,-3.464024067E-1,9.045790672E0,3.470798016E0,9.694986456E0
2.964642710E0,-3.344318867E-1,9.045790672E0,3.422915936E0,9.677526909E0
2.967088127E0,-3.104909062E-1,9.091279030E0,3.379822254E0,9.704172168E0
2.969533544E0,-2.650030255E-1,9.120007515E0,3.394186974E0,9.734745445E0
2.971978179E0,-2.602148354E-1,9.155919075E0,3.379822254E0,9.763286554E0
2.974422763E0,-2.506384552E-1,9.189436913E0,3.391792774E0,9.798613607E0
2.976868179E0,-2.123328745E-1,9.187041283E0,3.420522213E0,9.805446700E0
2.979313544E0,-2.219092548E-1,9.220560074E0,3.422915936E0,9.837902484E0
2.981758179E0,-2.219092548E-1,9.218165398E0,3.458827496E0,9.848213272E0
2.984202763E0,-2.051505744E-1,9.230135918E0,3.463615894E0,9.860736833E0
2.986648179E0,-1.788154840E-1,9.227741241E0,3.485162735E0,9.865573612E0
2.989093596E0,-1.668449938E-1,9.246894836E0,3.533044338E0,9.900267858E0
2.991538231E0,-1.381158084E-1,9.220560074E0,3.535438538E0,9.876088786E0
2.993982815E0,-1.261453182E-1,9.220560074E0,3.597685337E0,9.898382722E0
2.996428231E0,-1.069925278E-1,9.206194878E0,3.624020100E0,9.894392008E0
2.998873596E0,-7.826333493E-2,9.234923363E0,3.652749538E0,9.931390328E0
3.001318231E0,-4.953415692E-2,9.230135918E0,3.714995861E0,9.949826980E0
3.003762815E0,-3.277546167E-2,9.218165398E0,3.770060539E0,9.959367651E0
3.006208231E0,-2.319906652E-2,9.246894836E0,3.822730541E0,1.000594179E1
3.008653648E0,-1.601678133E-2,9.280411720E0,3.856247902E0,1.004972368E1
3.011098283E0,1.031832397E-2,9.289988518E0,3.901735783E0,1.007608730E1
3.013542867E0,3.186520934E-2,9.299564362E0,3.940041542E0,1.009984357E1
3.015988283E0,9.650588036E-2,9.337870598E0,4.002287865E0,1.015989414E1
3.018433648E0,1.300232708E-1,9.376175880E0,4.059746265E0,1.021817596E1
3.020878283E0,1.946639121E-1,9.397722244E0,4.064534187E0,1.024087475E1
3.023322867E0,2.257871926E-1,9.424057961E0,4.028623104E0,1.025151952E1
3.025768283E0,2.784573734E-1,9.431241035E0,4.007076263E0,1.025097586E1
3.028213700E0,3.047924638E-1,9.431241035E0,3.963982582E0,1.023495793E1
3.030658335E0,3.095806539E-1,9.436028481E0,3.961587906E0,1.023858645E1
3.033102919E0,3.119747639E-1,9.404904366E0,3.961587906E0,1.020998203E1
3.035548335E0,2.832455635E-1,9.392934799E0,3.980741024E0,1.020557452E1
3.037993700E0,2.497282028E-1,9.368993759E0,4.057352066E0,1.021286023E1
3.040438335E0,2.066344023E-1,9.359417915E0,4.100445747E0,1.022032567E1
3.042882919E0,1.395996213E-1,9.318717957E0,4.102839947E0,1.018289193E1
3.045328335E0,9.411177039E-2,9.325900078E0,4.069322586E0,1.017549289E1
3.047773752E0,1.510649920E-2,9.316323280E0,4.021440506E0,1.014722087E1
3.050218335E0,-9.023384005E-2,9.318717957E0,3.949617863E0,1.012156746E1
3.052662971E0,-2.003623843E-1,9.292382240E0,3.908917904E0,1.008306263E1
3.055108388E0,-2.913381159E-1,9.280411720E0,3.875400543E0,1.006129460E1
3.057553752E0,-3.583728969E-1,9.275623322E0,3.801183701E0,1.003068376E1
3.059998388E0,-4.349840581E-1,9.261260033E0,3.762877941E0,1.000596817E1
3.062442971E0,-5.235657096E-1,9.234923363E0,3.724572659E0,9.971477927E0
3.064888388E0,-5.810240507E-1,9.208588600E0,3.681478977E0,9.934232754E0
3.067333804E0,-6.528470516E-1,9.167889595E0,3.633596897E0,9.883290713E0
3.069778388E0,-7.174876928E-1,9.167889595E0,3.592896938E0,9.872886945E0
3.072223023E0,-7.725520134E-1,9.160706520E0,3.552197456E0,9.855632264E0
3.074668440E0,-7.821283340E-1,9.160706520E0,3.475586414E0,9.829037064E0
3.077113804E0,-7.869166136E-1,9.158312798E0,3.382216454E0,9.794555589E0
3.079558440E0,-7.964929342E-1,9.139160156E0,3.327151775E0,9.758513631E0
3.082003023E0,-8.084634542E-1,9.117613792E0,3.288846493E0,9.726304832E0
3.084448440E0,-8.060693741E-1,9.127189636E0,3.243358612E0,9.719810367E0
3.086893856E0,-8.395867348E-1,9.122401237E0,3.164353371E0,9.692071114E0
3.089338440E0,-8.324043751E-1,9.110430717E0,3.118865490E0,9.665410847E0
3.091783075E0,-8.467690945E-1,9.100854874E0,3.059012890E0,9.638471725E0
3.094228492E0,-9.161978960E-1,9.091279030E0,3.073377609E0,9.640353879E0
3.096673856E0,-9.209861755E-1,9.076913834E0,3.047042370E0,9.618890138E0
3.099118492E0,-9.209861755E-1,9.091279030E0,3.015919209E0,9.622647172E0
3.101563075E0,-9.161978960E-1,9.093672752E0,3.008737087E0,9.622203572E0
3.104008492E0,-8.707100153E-1,9.088883400E0,3.018313408E0,9.616452216E0
3.106453908E0,-8.563454151E-1,9.141554832E0,3.080560207E0,9.684585867E0
3.108898492E0,-7.964929342E-1,9.155919075E0,3.126047611E0,9.707596447E0
3.111343127E0,-7.773401737E-1,9.196619034E0,3.138018131E0,9.748293040E0
3.113788544E0,-7.150936127E-1,9.220560074E0,3.135624409E0,9.765358538E0
3.116233908E0,-6.600293517E-1,9.268442154E0,3.135624409E0,9.806722140E0
3.118678544E0,-6.121473312E-1,9.249288559E0,3.197870731E0,9.805633096E0
3.121123127E0,-5.594772100E-1,9.297170639E0,3.190688610E0,9.845348671E0
3.123568544E0,-4.732896090E-1,9.340264320E0,3.197870731E0,9.883871602E0
3.126013908E0,-4.541368484E-1,9.342658997E0,3.217023373E0,9.891448670E0
3.128458544E0,-4.780778289E-1,9.323505402E0,3.276875973E0,9.894151178E0
3.130903179E0,-4.972306192E-1,9.318717957E0,3.360669613E0,9.918661346E0
3.133348596E0,-5.451126099E-1,9.297170639E0,3.398974895E0,9.914008271E0
3.135793960E0,-6.241178513E-1,9.273229599E0,3.427704334E0,9.906132812E0
3.138238596E0,-6.839703321E-1,9.225347519E0,3.461221695E0,9.876988806E0
3.140683179E0,-7.198817730E-1,9.177465439E0,3.470798016E0,9.838218361E0
3.143128596E0,-7.581874132E-1,9.141554832E0,3.516285896E0,9.823804732E0
3.145573960E0,-7.533991337E-1,9.110430717E0,3.506709576E0,9.791045407E0
3.148018596E0,-7.342463732E-1,9.117613792E0,3.523468018E0,9.802286768E0
3.150463231E0,-6.935467720E-1,9.124795914E0,3.511497974E0,9.801710341E0
3.152908648E0,-6.624234319E-1,9.115219116E0,3.475586414E0,9.777818022E0
3.155354013E0,-5.858122706E-1,9.148736954E0,3.418127537E0,9.783974638E0
3.157798648E0,-5.115952492E-1,9.179860115E0,3.363063335E0,9.789880307E0
3.160243231E0,-4.756837487E-1,9.225347519E0,3.272087574E0,9.799993315E0
3.162688648E0,-4.493486583E-1,9.225347519E0,3.461221695E0,9.863518981E0
3.165134013E0,-4.254076779E-1,9.254076958E0,2.929731846E0,9.716081552E0
3.167578648E0,-4.972306192E-1,9.234923363E0,3.425310135E0,9.862240989E0
3.170023231E0,-5.139893293E-1,9.278017998E0,3.008737087E0,9.767205427E0
3.172468648E0,-6.097532511E-1,9.234923363E0,3.351092815E0,9.843039754E0
3.174914065E0,-7.007290125E-1,9.215771675E0,3.200264931E0,9.780754794E0
3.177358700E0,-8.491631746E-1,9.153524399E0,3.262511730E0,9.754592242E0
3.179803283E0,-9.209861755E-1,9.074520111E0,3.489950657E0,9.766006675E0
3.182248700E0,-1.026326418E0,9.029031754E0,3.157170773E0,9.620004554E0
3.184694065E0,-1.136454940E0,8.969179153E0,3.604867458E0,9.733076282E0
3.187138700E0,-1.208277941E0,8.909326553E0,3.116471291E0,9.515693801E0
3.189583283E0,-1.296859622E0,8.856657028E0,3.602473736E0,9.648835972E0
3.192028700E0,-1.304041862E0,8.849474907E0,3.164353371E0,9.488248709E0
3.194474117E0,-1.330376983E0,8.854262352E0,3.439674854E0,9.591622794E0
3.196918752E0,-1.327982783E0,8.866232872E0,3.207447052E0,9.521624872E0
3.199363335E0,-1.327982783E0,8.890173912E0,3.157170773E0,9.527143210E0
3.201808752E0,-1.311224222E0,8.911720276E0,3.209841251E0,9.562486502E0
3.204254117E0,-1.296859622E0,8.945238113E0,2.819603443E0,9.468331076E0
3.206698752E0,-1.275312662E0,8.945238113E0,3.212235451E0,9.589690500E0
3.209143335E0,-1.248977542E0,8.981149673E0,2.680745602E0,9.455548178E0
3.211588752E0,-1.196307421E0,9.009879112E0,3.135624409E0,9.614635380E0
3.214034169E0,-1.138849020E0,9.079307556E0,2.637651920E0,9.523025278E0
3.216478804E0,-1.090967178E0,9.084095955E0,2.903396606E0,9.598995810E0
3.218923388E0,-9.808385372E-1,9.110430717E0,2.678351402E0,9.546494557E0
3.221368804E0,-9.042273760E-1,9.146342278E0,2.675957203E0,9.572562413E0
3.223814169E0,-8.180398941E-1,9.151130676E0,2.836361885E0,9.615473502E0
3.226258804E0,-7.103054523E-1,9.167889595E0,2.549069881E0,9.542142879E0
3.228703388E0,-6.360883713E-1,9.158312798E0,3.025495529E0,9.666070810E0
3.231148804E0,-5.594772100E-1,9.184647560E0,2.611316681E0,9.565026940E0
3.233594221E0,-5.283539295E-1,9.172677994E0,3.193082333E0,9.726919052E0
3.236038856E0,-4.732896090E-1,9.167889595E0,2.829179287E0,9.606167712E0
3.238483440E0,-4.948365390E-1,9.146342278E0,3.276875973E0,9.728224730E0
3.240928856E0,-4.517427385E-1,9.187041283E0,3.161959171E0,9.726447699E0
3.243374221E0,-4.708955288E-1,9.148736954E0,3.317575932E0,9.743071410E0
3.245818856E0,-4.565309286E-1,9.167889595E0,3.559379578E0,9.845191877E0
3.248263440E0,-4.613191485E-1,9.210982323E0,3.319969654E0,9.801898245E0
3.250708856E0,-4.517427385E-1,9.227741241E0,3.803577900E0,9.991120296E0
3.253154273E0,-4.756837487E-1,9.249288559E0,3.365457535E0,9.854030561E0
3.255598908E0,-5.163834095E-1,9.263653755E0,3.906523705E0,1.006691910E1
3.258043492E0,-4.924424291E-1,9.323505402E0,3.434886456E0,9.948301236E0
3.260488908E0,-5.451126099E-1,9.321111679E0,3.844277382E0,1.009746202E1
3.262934273E0,-5.714476705E-1,9.357022285E0,3.765272141E0,1.010236075E1
3.265378908E0,-5.882064104E-1,9.359417915E0,3.561773777E0,1.003149655E1
3.267823492E0,-6.408765316E-1,9.349841118E0,3.717390060E0,1.008212480E1
3.270268908E0,-6.959408522E-1,9.371387482E0,3.662325859E0,1.008562679E1
3.272714325E0,-7.318522930E-1,9.378569603E0,3.662325859E0,1.009484058E1
3.275158960E0,-7.940988541E-1,9.366600037E0,3.645567417E0,1.008235841E1
3.277603544E0,-8.300104141E-1,9.357022285E0,3.600079060E0,1.005998770E1
3.280048960E0,-8.467690945E-1,9.366600037E0,3.592896938E0,1.006772678E1
3.282494325E0,-8.419808149E-1,9.345052719E0,3.568955898E0,1.003874435E1
3.284938960E0,-8.515572548E-1,9.347446442E0,3.506709576E0,1.001982619E1
3.287383544E0,-8.563454151E-1,9.345052719E0,3.458827496E0,1.000134118E1
3.289828960E0,-8.491631746E-1,9.349841118E0,3.398974895E0,9.984670118E0
3.292274377E0,-8.515572548E-1,9.330687523E0,3.343910694E0,9.948297248E0
3.294719013E0,-8.204339743E-1,9.280411720E0,3.286452293E0,9.879267295E0
3.297163596E0,-7.797342539E-1,9.301959038E0,3.279270172E0,9.893838502E0
3.299609013E0,-7.342463732E-1,9.301959038E0,3.319969654E0,9.903926402E0
3.302054377E0,-7.222759724E-1,9.278017998E0,3.375033855E0,9.899199668E0
3.304499013E0,-7.126995325E-1,9.275623322E0,3.384610653E0,9.899531196E0
3.306943596E0,-7.246700525E-1,9.278017998E0,3.430098057E0,9.918282983E0
3.309389013E0,-7.486109734E-1,9.273229599E0,3.468403816E0,9.928898762E0
3.311834429E0,-8.060693741E-1,9.256470680E0,3.533044338E0,9.940543224E0
3.314279065E0,-8.012812138E-1,9.239712715E0,3.585714817E0,9.943424631E0
3.316723648E0,-8.419808149E-1,9.230135918E0,3.619232178E0,9.950034287E0
3.319169065E0,-8.850746155E-1,9.179860115E0,3.640779018E0,9.915062313E0
3.321614429E0,-9.161978960E-1,9.143948555E0,3.662325859E0,9.892615653E0
3.324059065E0,-9.640798569E-1,9.112824440E0,3.638384819E0,9.859556954E0
3.326503648E0,-9.736562967E-1,9.081701279E0,3.628808498E0,9.828202064E0
3.328949065E0,-9.904149771E-1,9.052972794E0,3.568955898E0,9.781343693E0
3.331394481E0,-9.999914169E-1,9.033820152E0,3.547409058E0,9.756741280E0
3.333839117E0,-1.016750097E0,9.026638031E0,3.485162735E0,9.729354254E0
3.336283700E0,-1.023932338E0,8.988331795E0,3.449251175E0,9.681729161E0
3.338729117E0,-1.057449698E0,9.002696991E0,3.442068577E0,9.696112059E0
3.341174481E0,-1.090967178E0,9.002696991E0,3.439674854E0,9.698975492E0
3.343619117E0,-1.090967178E0,8.990725517E0,3.454039097E0,9.692973785E0
3.346063700E0,-1.143637300E0,8.978755951E0,3.454039097E0,9.687948740E0
3.348509117E0,-1.193913341E0,8.969179153E0,3.461221695E0,9.687706611E0
3.350954533E0,-1.246583462E0,8.957208633E0,3.461221695E0,9.683264555E0
3.353399169E0,-1.330376983E0,8.921297073E0,3.456433296E0,9.659522531E0
3.355843752E0,-1.363894343E0,8.897356987E0,3.475586414E0,9.648982851E0
3.358289169E0,-1.418958545E0,8.899750710E0,3.475586414E0,9.659125580E0
3.360734533E0,-1.466840625E0,8.873415947E0,3.492344856E0,9.648088131E0
3.363179169E0,-1.459658384E0,8.871020317E0,3.473192215E0,9.637876749E0
3.365623752E0,-1.466840625E0,8.856657028E0,3.466009617E0,9.623160489E0
3.368069169E0,-1.445293665E0,8.871020317E0,3.437280655E0,9.622825653E0
3.370514585E0,-1.397411704E0,8.875809669E0,3.410945415E0,9.610791091E0
3.372959221E0,-1.318406463E0,8.878203392E0,3.410945415E0,9.601835226E0
3.375403804E0,-1.253765821E0,8.878203392E0,3.406157017E0,9.591471724E0
3.377849221E0,-1.184336901E0,8.914114952E0,3.439674854E0,9.627848273E0
3.380294585E0,-1.160395980E0,8.940449715E0,3.439674854E0,9.649327595E0
3.382739221E0,-1.105331659E0,8.978755951E0,3.480374336E0,9.692926391E0
3.385183804E0,-1.057449698E0,9.007484436E0,3.528256416E0,9.731473119E0
3.387629221E0,-9.856266975E-1,9.021849632E0,3.583320618E0,9.757326346E0
3.390074638E0,-9.161978960E-1,9.062548637E0,3.578532696E0,9.786475497E0
3.392519273E0,-8.635277748E-1,9.110430717E0,3.595291138E0,9.832179130E0
3.394963856E0,-7.701578140E-1,9.172677994E0,3.628808498E0,9.894413361E0
3.397409273E0,-7.031230927E-1,9.184647560E0,3.674296379E0,9.917287269E0
3.399854638E0,-6.552411318E-1,9.218165398E0,3.635990620E0,9.930978906E0
3.402299273E0,-6.480588317E-1,9.258864403E0,3.614443779E0,9.960459533E0
3.404743856E0,-6.743938923E-1,9.261260033E0,3.609655857E0,9.962698426E0
3.407189273E0,-7.103054523E-1,9.232529640E0,3.602473736E0,9.935892230E0
3.409634690E0,-7.940988541E-1,9.220560074E0,3.619232178E0,9.937211008E0
3.412079325E0,-9.209861755E-1,9.194224358E0,3.643173218E0,9.932506641E0
3.414523908E0,-1.026326418E0,9.155919075E0,3.664720058E0,9.915360464E0
3.416969325E0,-1.169972301E0,9.143948555E0,3.664720058E0,9.920221946E0
3.419414690E0,-1.270524502E0,9.091279030E0,3.695843220E0,9.895698258E0
3.421859325E0,-1.368682623E0,9.081701279E0,3.664720058E0,9.888415613E0
3.424303908E0,-1.411776304E0,9.050579071E0,3.631202698E0,9.853513429E0
3.426749325E0,-1.450081825E0,9.067337990E0,3.463615894E0,9.814071051E0
3.429194742E0,-1.450081825E0,9.079307556E0,3.298422813E0,9.768119371E0
3.431639377E0,-1.411776304E0,9.067337990E0,3.281664371E0,9.745719655E0
3.434083960E0,-1.344741583E0,9.033820152E0,3.336728573E0,9.723784965E0
3.436529377E0,-1.287283182E0,9.050579071E0,3.312787533E0,9.723406849E0
3.438974742E0,-1.237007141E0,9.029031754E0,3.245752811E0,9.674115587E0
3.441419377E0,-1.181942821E0,8.997908592E0,3.231388092E0,9.633338822E0
3.443863960E0,-1.088572979E0,8.957208633E0,3.255329132E0,9.592379548E0
3.446309377E0,-1.047873259E0,8.923691750E0,3.351092815E0,9.589584760E0
3.448754794E0,-1.028720498E0,8.882991791E0,3.370245934E0,9.556378324E0
3.451199429E0,-1.040691018E0,8.839898109E0,3.384610653E0,9.522732048E0
3.453644013E0,-1.047873259E0,8.830321312E0,3.434886456E0,9.532631211E0
3.456089429E0,-1.078996658E0,8.789621353E0,3.547409058E0,9.539695401E0
3.458534794E0,-1.088572979E0,8.777651787E0,3.595291138E0,9.547684556E0
3.460979429E0,-1.105331659E0,8.765680313E0,3.703025341E0,9.579734135E0
3.463424013E0,-1.138849020E0,8.741739273E0,3.803577900E0,9.601155527E0
3.465869429E0,-1.162790060E0,8.734558105E0,3.880188942E0,9.628107407E0
3.468314846E0,-1.150819540E0,8.756104469E0,3.975952625E0,9.685140700E0
3.470759481E0,-1.148425460E0,8.760892868E0,4.047775745E0,9.718879224E0
3.473204065E0,-1.148425460E0,8.803986549E0,4.107628345E0,9.782723078E0
3.475649481E0,-1.110119939E0,8.823138237E0,4.150722027E0,9.813695938E0
3.478094846E0,-1.088572979E0,8.851868629E0,4.150722027E0,9.837126751E0
3.480539481E0,-1.050267458E0,8.892567635E0,4.131569386E0,9.861576266E0
3.482984065E0,-9.928090572E-1,8.916508675E0,4.102839947E0,9.865246697E0
3.485429481E0,-9.449270964E-1,8.957208633E0,4.064534187E0,9.881544003E0
3.487874898E0,-9.161978960E-1,9.000302315E0,4.011864185E0,9.896459699E0
3.490319481E0,-8.731040955E-1,9.031425476E0,3.949617863E0,9.895879857E0
3.492764117E0,-8.084634542E-1,9.081701279E0,3.868218422E0,9.904242779E0
3.495209533E0,-7.701578140E-1,9.127189636E0,3.798789501E0,9.916125019E0
3.497654898E0,-7.150936127E-1,9.170283318E0,3.703025341E0,9.915535874E0
3.500099533E0,-6.576352119E-1,9.187041283E0,3.626414299E0,9.898741954E0
3.502544117E0,-6.408765316E-1,9.189436913E0,3.540226936E0,9.868620991E0
3.504989533E0,-6.336942315E-1,9.206194878E0,3.446856976E0,9.850706346E0
3.507434950E0,-6.528470516E-1,9.201406479E0,3.375033855E0,9.822573186E0
3.509879585E0,-6.791821718E-1,9.182253838E0,3.305605412E0,9.782745070E0
3.512324169E0,-7.294582129E-1,9.160706520E0,3.245752811E0,9.746053793E0
3.514769585E0,-7.725520134E-1,9.105642319E0,3.202659130E0,9.683314730E0
3.517214950E0,-8.036752939E-1,9.079307556E0,3.142806530E0,9.641418597E0
3.519659585E0,-8.252221346E-1,9.038607597E0,3.111683369E0,9.594789850E0
3.522104169E0,-8.874686956E-1,8.983543396E0,3.054224968E0,9.529949779E0
3.524549585E0,-9.545035362E-1,8.916508675E0,3.056619167E0,9.474076455E0
3.526995002E0,-9.880208969E-1,8.856657028E0,3.008737087E0,9.405799162E0
3.529439638E0,-1.057449698E0,8.803986549E0,3.032678127E0,9.371526858E0
3.531884221E0,-1.122090340E0,8.763286591E0,3.092530727E0,9.360450037E0
3.534329638E0,-1.158001900E0,8.717798233E0,3.173929691E0,9.349588446E0
3.536775002E0,-1.232218981E0,8.689069748E0,3.226600170E0,9.350360707E0
3.539219638E0,-1.296859622E0,8.641187668E0,3.269693851E0,9.329676686E0
3.541664221E0,-1.368682623E0,8.622035027E0,3.336728573E0,9.345936962E0
3.544109638E0,-1.423746824E0,8.595699310E0,3.410945415E0,9.356690135E0
3.546555054E0,-1.452475905E0,8.583729744E0,3.480374336E0,9.375665741E0
3.548999690E0,-1.488387465E0,8.581335068E0,3.542621136E0,9.402381257E0
3.551444273E0,-1.502752066E0,8.586123466E0,3.561773777E0,9.416263186E0
3.553889690E0,-1.529087067E0,8.566970825E0,3.566562176E0,9.404863749E0
3.556335054E0,-1.560210466E0,8.576546669E0,3.535438538E0,9.406951425E0
3.558779690E0,-1.555422187E0,8.557394028E0,3.535438538E0,9.388698332E0
3.561224273E0,-1.550634146E0,8.535847664E0,3.482768536E0,9.348520646E0
3.563669690E0,-1.564998627E0,8.540636063E0,3.494739056E0,9.359748187E0
3.566115106E0,-1.543451667E0,8.564577103E0,3.492344856E0,9.377136908E0
3.568559742E0,-1.512328506E0,8.574152946E0,3.499527454E0,9.383492349E0
3.571004325E0,-1.464446425E0,8.569364548E0,3.439674854E0,9.349330200E0
3.573449742E0,-1.414170504E0,8.571758270E0,3.458827496E0,9.350850534E0
3.575895106E0,-1.404593945E0,8.552605629E0,3.415733814E0,9.315963970E0
3.578339742E0,-1.344741583E0,8.531058311E0,3.305605412E0,9.247394929E0
3.580784325E0,-1.339953303E0,8.514300346E0,3.358275414E0,9.250232375E0
3.583229742E0,-1.342347503E0,8.454447746E0,3.403763294E0,9.212230353E0
3.585675158E0,-1.375864863E0,8.471206665E0,3.635990620E0,9.320663832E0
3.588119794E0,-1.390229464E0,8.473600388E0,3.829912663E0,9.402280175E0
3.590564377E0,-1.416564465E0,8.483176231E0,4.105233669E0,9.530156207E0
3.593009794E0,-1.392623425E0,8.509512901E0,4.390131950E0,9.675973768E0
3.595455158E0,-1.335165262E0,8.578940392E0,4.574477196E0,9.813599041E0
3.597899794E0,-1.277706861E0,8.617246628E0,4.682211876E0,9.890024384E0
3.600344377E0,-1.165184140E0,8.686676025E0,4.727699757E0,9.958269902E0
3.602789794E0,-1.023932338E0,8.741739273E0,4.732487679E0,9.993141777E0
3.605235210E0,-8.563454151E-1,8.784833908E0,4.708547115E0,1.000385177E1
3.607679846E0,-7.150936127E-1,8.844685555E0,4.648694515E0,1.001749380E1
3.610124429E0,-6.025709510E-1,8.918902397E0,4.648694515E0,1.007572689E1
3.612569846E0,-4.804719388E-1,8.988331795E0,4.679817677E0,1.014503106E1
3.615015210E0,-3.847079873E-1,9.012272835E0,4.648694515E0,1.014787774E1
3.617459846E0,-3.200672865E-1,9.024243355E0,4.588841915E0,1.012901186E1
3.619904429E0,-2.793676257E-1,9.050579071E0,4.619965553E0,1.016538782E1
3.622349846E0,-2.913381159E-1,9.069731712E0,4.701364994E0,1.021996791E1
3.624795263E0,-2.865499258E-1,9.088883400E0,4.763611317E0,1.026556891E1
3.627239898E0,-3.224614263E-1,9.093672752E0,4.842616558E0,1.030775439E1
3.629684481E0,-3.679493070E-1,9.115219116E0,4.921621799E0,1.036556643E1
3.632129898E0,-3.871020675E-1,9.122401237E0,4.988656521E0,1.040455411E1
3.634575263E0,-4.062548876E-1,9.134371758E0,5.036538601E0,1.043879838E1
3.637019898E0,-4.301958680E-1,9.177465439E0,5.077238560E0,1.049710873E1
3.639464481E0,-4.206194580E-1,9.201406479E0,5.084420204E0,1.052112783E1
3.641909898E0,-4.206194580E-1,9.208588600E0,5.036538601E0,1.050436794E1
3.644355315E0,-3.823138773E-1,9.239712715E0,4.998232841E0,1.051193543E1
3.646799950E0,-3.823138773E-1,9.278017998E0,4.959927559E0,1.052751933E1
3.649244533E0,-3.200672865E-1,9.268442154E0,4.856980801E0,1.046884547E1
3.651689950E0,-2.937322259E-1,9.299564362E0,4.801917076E0,1.047027142E1
3.654135315E0,-2.434561551E-1,9.311535835E0,4.715729237E0,1.044040577E1
3.656579950E0,-2.243033648E-1,9.337870598E0,4.641512394E0,1.043023378E1
3.659024533E0,-1.907859743E-1,9.297170639E0,4.567295551E0,1.036021090E1
3.661469950E0,-1.955741793E-1,9.311535835E0,4.483501911E0,1.033657285E1
3.663915367E0,-2.171210647E-1,9.287594795E0,4.378161430E0,1.027009524E1
3.666360002E0,-2.243033648E-1,9.261260033E0,4.330279350E0,1.022607298E1
3.668804585E0,-2.697912455E-1,9.227741241E0,4.258456230E0,1.016653556E1
3.671250002E0,-3.464024067E-1,9.196619034E0,4.236909389E0,1.013159402E1
3.673695367E0,-4.278017581E-1,9.160706520E0,4.256062508E0,1.011017440E1
3.676140002E0,-4.828660190E-1,9.096066475E0,4.251274109E0,1.005211005E1
3.678584585E0,-5.283539295E-1,9.062548637E0,4.253668308E0,1.002510049E1
3.681030002E0,-5.810240507E-1,9.019455910E0,4.251274109E0,9.988068152E0
3.683475419E0,-6.049650908E-1,8.997908592E0,4.263244152E0,9.975148746E0
3.685920002E0,-6.648175120E-1,8.981149673E0,4.265638828E0,9.964873627E0
3.688364638E0,-7.007290125E-1,8.940449715E0,4.239303589E0,9.919392984E0
3.690810054E0,-7.270641327E-1,8.914114952E0,4.189027309E0,9.876133729E0
3.693255419E0,-7.510051727E-1,8.904539108E0,4.148327827E0,9.852078424E0
3.695700054E0,-7.510051727E-1,8.885385513E0,4.121993065E0,9.823691328E0
3.698144638E0,-7.438228130E-1,8.873415947E0,4.071716785E0,9.791305354E0
3.700590054E0,-7.246700525E-1,8.871020317E0,3.999893665E0,9.758037584E0
3.703035471E0,-7.318522930E-1,8.859050751E0,3.956799984E0,9.730090138E0
3.705480106E0,-7.198817730E-1,8.882991791E0,3.873006344E0,9.717301635E0
3.707924690E0,-7.294582129E-1,8.890173912E0,3.815548420E0,9.701840610E0
3.710370106E0,-7.270641327E-1,8.897356987E0,3.758090019E0,9.685805294E0
3.712815471E0,-7.126995325E-1,8.911720276E0,3.714995861E0,9.681316705E0
3.715260106E0,-7.366404533E-1,8.945238113E0,3.647961140E0,9.688526438E0
3.717704690E0,-7.174876928E-1,8.954814911E0,3.576138496E0,9.669139839E0
3.720150106E0,-7.174876928E-1,9.005090714E0,3.545014858E0,9.704307172E0
3.722595523E0,-7.103054523E-1,9.017060280E0,3.494739056E0,9.696654629E0
3.725040158E0,-7.007290125E-1,9.064942360E0,3.415733814E0,9.712437317E0
3.727484742E0,-7.103054523E-1,9.076913834E0,3.372640133E0,9.709253321E0
3.729930158E0,-6.911525726E-1,9.098461151E0,3.327151775E0,9.712344008E0
3.732375523E0,-6.815762520E-1,9.112824440E0,3.291240692E0,9.712897650E0
3.734820158E0,-6.935467720E-1,9.112824440E0,3.281664371E0,9.710504490E0
3.737264742E0,-7.103054523E-1,9.112824440E0,3.281664371E0,9.711715819E0
3.739710158E0,-7.103054523E-1,9.110430717E0,3.296028614E0,9.714334065E0
3.742155575E0,-7.079112530E-1,9.134371758E0,3.324758053E0,9.746378910E0
3.744600210E0,-7.270641327E-1,9.129583359E0,3.375033855E0,9.760572119E0
3.747044794E0,-7.677638531E-1,9.131978035E0,3.427704334E0,9.784254758E0
3.749490210E0,-7.581874132E-1,9.146342278E0,3.489950657E0,9.818868611E0
3.751935575E0,-7.725520134E-1,9.127189636E0,3.556985378E0,9.826218614E0
3.754380210E0,-7.917047739E-1,9.103248596E0,3.616837978E0,9.827382582E0
3.756824794E0,-8.371926546E-1,9.120007515E0,3.700631618E0,9.877757994E0
3.759270210E0,-8.228280544E-1,9.129583359E0,3.760484219E0,9.907955383E0
3.761715627E0,-8.443748951E-1,9.100854874E0,3.803577900E0,9.899784505E0
3.764160210E0,-8.587396145E-1,9.088883400E0,3.808365822E0,9.891859553E0
3.766604846E0,-8.491631746E-1,9.096066475E0,3.805971622E0,9.896712757E0
3.769050263E0,-8.228280544E-1,9.088883400E0,3.846671581E0,9.903622051E0
3.771495627E0,-8.252221346E-1,9.086489677E0,3.844277382E0,9.900694663E0
3.773940263E0,-7.821283340E-1,9.086489677E0,3.851459980E0,9.899988049E0
3.776384846E0,-7.845225334E-1,9.057760239E0,3.884976864E0,9.886937917E0
3.778830263E0,-7.773401737E-1,9.076913834E0,3.901735783E0,9.910507787E0
3.781275679E0,-7.629755735E-1,9.060154915E0,3.959194183E0,9.916842108E0
3.783720315E0,-7.677638531E-1,9.036213875E0,4.016652584E0,9.918473698E0
3.786164898E0,-7.988870144E-1,9.012272835E0,4.088475227E0,9.928489905E0
3.788610315E0,-8.539513350E-1,8.973967552E0,4.133963585E0,9.917206332E0
3.791055679E0,-9.018332958E-1,8.950026512E0,4.222544670E0,9.937110312E0
3.793500315E0,-9.473211765E-1,8.918902397E0,4.251274109E0,9.925601691E0
3.795944898E0,-1.043085098E0,8.882991791E0,4.275214672E0,9.913275451E0
3.798390315E0,-1.055055618E0,8.851868629E0,4.270426750E0,9.884597373E0
3.800835731E0,-1.100543499E0,8.832715988E0,4.246485710E0,9.862084395E0
3.803280315E0,-1.114908099E0,8.811168671E0,4.191421986E0,9.820780604E0
3.805724950E0,-1.129272699E0,8.784833908E0,4.143539906E0,9.778419431E0
3.808170367E0,-1.098149419E0,8.775257111E0,4.050169945E0,9.727021440E0
3.810615731E0,-1.110119939E0,8.796803474E0,3.992711544E0,9.724086750E0
3.813060367E0,-1.100543499E0,8.806380272E0,3.966376305E0,9.720888358E0
3.815504950E0,-1.122090340E0,8.794409752E0,3.959194183E0,9.709580228E0
3.817950367E0,-1.119696259E0,8.787227631E0,3.935253143E0,9.693054547E0
3.820395783E0,-1.119696259E0,8.782439232E0,3.923282623E0,9.683857967E0
3.822840419E0,-1.105331659E0,8.799198151E0,3.985528946E0,9.722761292E0
3.825285002E0,-1.107725859E0,8.811168671E0,4.021440506E0,9.748627271E0
3.827730419E0,-1.090967178E0,8.808774948E0,4.033411026E0,9.749519474E0
3.830175783E0,-1.100543499E0,8.801592827E0,4.074110985E0,9.761025182E0
3.832620419E0,-1.074208379E0,8.808774948E0,4.095657825E0,9.773579321E0
3.835065002E0,-1.083784819E0,8.820744514E0,4.114810467E0,9.793456412E0
3.837510419E0,-1.090967178E0,8.825533867E0,4.141145229E0,9.809655510E0
3.839955835E0,-1.090967178E0,8.823138237E0,4.191421986E0,9.828834926E0
3.842400471E0,-1.057449698E0,8.847079277E0,4.193815708E0,9.847695253E0
3.844845054E0,-1.062237978E0,8.851868629E0,4.177056789E0,9.845391367E0
3.847290471E0,-1.062237978E0,8.851868629E0,4.193815708E0,9.852513281E0
3.849735835E0,-1.052661538E0,8.844685555E0,4.229727268E0,9.860382936E0
3.852180471E0,-1.062237978E0,8.844685555E0,4.263244152E0,9.875832258E0
3.854625054E0,-1.045479298E0,8.849474907E0,4.256062508E0,9.875236765E0
3.857070471E0,-1.033508778E0,8.842291832E0,4.260850430E0,9.869605444E0
3.859515888E0,-1.026326418E0,8.832715988E0,4.239303589E0,9.850985360E0
3.861960523E0,-1.002385378E0,8.830321312E0,4.227333069E0,9.841224304E0
3.864405106E0,-9.568974972E-1,8.839898109E0,4.167480946E0,9.819742809E0
3.866850523E0,-9.185919762E-1,8.866232872E0,4.136357307E0,9.826665169E0
3.869295888E0,-8.611335754E-1,8.866232872E0,4.107628345E0,9.809395853E0
3.871740523E0,-8.563454151E-1,8.868626595E0,4.074110985E0,9.797154968E0
3.874185106E0,-8.060693741E-1,8.882991791E0,4.042987823E0,9.793009830E0
3.876630523E0,-8.108575344E-1,8.868626595E0,4.011864185E0,9.767552501E0
3.879075940E0,-8.156456947E-1,8.873415947E0,4.004682064E0,9.769353454E0
3.881520575E0,-8.587396145E-1,8.871020317E0,3.997499466E0,9.767929011E0
3.883965158E0,-9.138038158E-1,8.851868629E0,3.992711544E0,9.753581964E0
3.886410575E0,-9.952031374E-1,8.839898109E0,3.999893665E0,9.753634051E0
3.888855940E0,-1.074208379E0,8.832715988E0,3.999893665E0,9.755508429E0
3.891300575E0,-1.167578220E0,8.813562393E0,3.999893665E0,9.748911236E0
3.893745158E0,-1.241795301E0,8.806380272E0,4.019046783E0,9.759463413E0
3.896190575E0,-1.316012383E0,8.789621353E0,4.002287865E0,9.747186275E0
3.898635992E0,-1.378258944E0,8.753710747E0,3.992711544E0,9.719505904E0
3.901080575E0,-1.474022865E0,8.770468712E0,4.009469986E0,9.755496625E0
3.903525210E0,-1.557816386E0,8.741739273E0,3.987923145E0,9.733875304E0
3.905970627E0,-1.612880588E0,8.715404510E0,4.004682064E0,9.726106004E0
3.908415992E0,-1.689491749E0,8.710617065E0,3.992711544E0,9.729901207E0
3.910860627E0,-1.742161989E0,8.679493904E0,3.985528946E0,9.708407892E0
3.913305210E0,-1.792437911E0,8.648369789E0,3.983135223E0,9.688782167E0
3.915750627E0,-1.816378951E0,8.641187668E0,4.016652584E0,9.700662595E0
3.918196044E0,-1.811590791E0,8.650763512E0,4.038199425E0,9.717233409E0
3.920640679E0,-1.797226191E0,8.629217148E0,4.121993065E0,9.730582582E0
3.923085263E0,-1.785255671E0,8.636399269E0,4.117204189E0,9.732723179E0
3.925530679E0,-1.754132509E0,8.653157234E0,4.095657825E0,9.732857957E0
3.927976044E0,-1.734979630E0,8.643581390E0,4.076504707E0,9.712854585E0
3.930420679E0,-1.696674109E0,8.648369789E0,4.086081505E0,9.714374149E0
3.932865263E0,-1.663156748E0,8.645976067E0,4.119598866E0,9.720601181E0
3.935310679E0,-1.644003868E0,8.648369789E0,4.136357307E0,9.726587300E0
3.937756096E0,-1.608092427E0,8.648369789E0,4.160298347E0,9.730793575E0
3.940200731E0,-1.615274668E0,8.669917107E0,4.193815708E0,9.765483351E0
3.942645315E0,-1.622456908E0,8.648369789E0,4.224938869E0,9.760982270E0
3.945090731E0,-1.603304267E0,8.641187668E0,4.222544670E0,9.750414985E0
3.947536096E0,-1.586545467E0,8.650763512E0,4.236909389E0,9.762388900E0
3.949980731E0,-1.591333747E0,8.655552864E0,4.229727268E0,9.764298809E0
3.952425315E0,-1.553028107E0,8.667522430E0,4.205786228E0,9.758405565E0
3.954870731E0,-1.514722586E0,8.681887627E0,4.162692547E0,9.746669509E0
3.957316148E0,-1.471628785E0,8.703434944E0,4.095657825E0,9.730872732E0
3.959760783E0,-1.433323264E0,8.717798233E0,4.021440506E0,9.707028657E0
3.962205367E0,-1.404593945E0,8.734558105E0,3.978346825E0,9.700135716E0
3.964650783E0,-1.366288424E0,8.736951828E0,3.930464745E0,9.677273604E0
3.967096148E0,-1.344741583E0,8.736951828E0,3.911312103E0,9.666489515E0
3.969540783E0,-1.339953303E0,8.734558105E0,3.918494225E0,9.666570082E0
3.971985367E0,-1.354318023E0,8.722586632E0,3.923282623E0,9.659701931E0
3.974430783E0,-1.375864863E0,8.684281349E0,3.899341583E0,9.618451614E0
3.976876200E0,-1.433323264E0,8.672310829E0,3.928071022E0,9.627727284E0
3.979320835E0,-1.476416945E0,8.641187668E0,3.928071022E0,9.606230960E0
3.981765419E0,-1.505146265E0,8.614852905E0,3.932858944E0,9.588979890E0
3.984210835E0,-1.531481266E0,8.595699310E0,3.916100502E0,9.569081703E0
3.986656200E0,-1.567392707E0,8.602881432E0,3.911312103E0,9.579386786E0
3.989100835E0,-1.545845866E0,8.605276108E0,3.873006344E0,9.562457554E0
3.991545419E0,-1.526693106E0,8.598093987E0,3.839489460E0,9.539375837E0
3.993990835E0,-1.500357985E0,8.634005547E0,3.801183701E0,9.552283674E0
3.996436252E0,-1.481205225E0,8.662734985E0,3.738936901E0,9.550737956E0
3.998880888E0,-1.428534985E0,8.691463470E0,3.717390060E0,9.560399485E0
4.001325471E0,-1.392623425E0,8.736951828E0,3.695843220E0,9.588168978E0
4.003770888E0,-1.304041862E0,8.758499146E0,3.669508457E0,9.585255593E0
4.006216252E0,-1.272918582E0,8.815957069E0,3.631202698E0,9.619098388E0
4.008660888E0,-1.205883861E0,8.856657028E0,3.659931660E0,9.658655670E0
4.011105471E0,-1.177154660E0,8.909326553E0,3.626414299E0,9.690855143E0
4.013550888E0,-1.114908099E0,8.945238113E0,3.585714817E0,9.701425448E0
4.015996304E0,-1.081390738E0,9.021849632E0,3.494739056E0,9.735316008E0
4.018440940E0,-1.023932338E0,9.052972794E0,3.439674854E0,9.738383692E0
4.020885523E0,-1.038296938E0,9.088883400E0,3.420522213E0,9.766567166E0
4.023330940E0,-1.011961818E0,9.120007515E0,3.420522213E0,9.792781832E0
4.025776304E0,-1.019144177E0,9.127189636E0,3.458827496E0,9.813650348E0
4.028220940E0,-1.026326418E0,9.153524399E0,3.485162735E0,9.848183291E0
4.030665523E0,-1.090967178E0,9.151130676E0,3.477980137E0,9.850367905E0
4.033110940E0,-1.131666780E0,9.175071716E0,3.511497974E0,9.889045896E0
4.035556356E0,-1.177154660E0,9.182253838E0,3.513891697E0,9.901864142E0
4.038000992E0,-1.265736341E0,9.179860115E0,3.525862217E0,9.914818435E0
4.040445575E0,-1.359106064E0,9.146342278E0,3.494739056E0,9.885137704E0
4.042890992E0,-1.423746824E0,9.131978035E0,3.489950657E0,9.879262798E0
4.045336356E0,-1.521904826E0,9.131978035E0,3.482768536E0,9.891354498E0
4.047780992E0,-1.646397948E0,9.088883400E0,3.552197456E0,9.896288922E0
4.050225575E0,-1.756526589E0,9.055366516E0,3.602473736E0,9.902669611E0
4.052670992E0,-1.852290511E0,9.017060280E0,3.576138496E0,9.875582149E0
4.055116408E0,-1.960024953E0,9.007484436E0,3.530650616E0,9.871269799E0
4.057561044E0,-2.036636114E0,8.952420235E0,3.545014858E0,9.841790745E0
4.060005627E0,-2.106065035E0,8.938055992E0,3.573744297E0,9.853730418E0
4.062451044E0,-2.197040796E0,8.906932831E0,3.585714817E0,9.849760985E0
4.064896408E0,-2.256893396E0,8.887779236E0,3.585714817E0,9.845990976E0
4.067341044E0,-2.302381039E0,8.866232872E0,3.545014858E0,9.822330382E0
4.069785627E0,-2.316745758E0,8.847079277E0,3.504315376E0,9.793791344E0
4.072231044E0,-2.285622597E0,8.839898109E0,3.420522213E0,9.750273917E0
4.074676460E0,-2.295198917E0,8.847079277E0,3.228993893E0,9.693562367E0
4.077121096E0,-2.311957598E0,8.837503433E0,3.059012890E0,9.633492343E0
4.079565679E0,-2.292804718E0,8.811168671E0,2.927337646E0,9.563626536E0
4.082011096E0,-2.302381039E0,8.813562393E0,2.826785564E0,9.537848664E0
4.084456460E0,-2.295198917E0,8.803986549E0,2.750174046E0,9.504818489E0
4.086901096E0,-2.266469479E0,8.794409752E0,2.812420845E0,9.507272889E0
4.089345679E0,-2.235346556E0,8.796803474E0,2.874667645E0,9.520726845E0
4.091791096E0,-2.141976595E0,8.796803474E0,2.953672886E0,9.523444682E0
4.094236513E0,-2.048606634E0,8.815957069E0,3.121259689E0,9.573930762E0
4.096681148E0,-1.892990232E0,8.875809669E0,3.365457535E0,9.679344695E0
4.099125731E0,-1.744556069E0,8.911720276E0,3.580926418E0,9.761417324E0
4.101571148E0,-1.531481266E0,8.997908592E0,3.741331100E0,9.864347536E0
4.104016513E0,-1.349529743E0,9.057760239E0,3.829912663E0,9.926352909E0
4.106461148E0,-1.124484539E0,9.122401237E0,3.889765263E0,9.980628418E0
4.108905731E0,-9.377448559E-1,9.189436913E0,3.963982582E0,1.005177965E1
4.111351148E0,-7.629755735E-1,9.263653755E0,4.059746265E0,1.014292622E1
4.113796565E0,-6.241178513E-1,9.328293800E0,4.148327827E0,1.022815780E1
4.116241200E0,-5.068070292E-1,9.390541077E0,4.162692547E0,1.028431448E1
4.118685783E0,-3.942843676E-1,9.438423157E0,4.198604107E0,1.033767712E1
4.121131200E0,-3.464024067E-1,9.464757919E0,4.162692547E0,1.034551334E1
4.123576565E0,-3.703433871E-1,9.457575798E0,4.136357307E0,1.032919871E1
4.126021200E0,-4.278017581E-1,9.440816879E0,4.148327827E0,1.032088472E1
4.128465783E0,-5.810240507E-1,9.404904366E0,4.133963585E0,1.028977502E1
4.130911200E0,-7.869166136E-1,9.325900078E0,4.160298347E0,1.024205704E1
4.133356617E0,-1.026326418E0,9.246894836E0,4.157904148E0,1.019051407E1
