"Time (s)","Acceleration x (m/s^2)","Acceleration y (m/s^2)","Acceleration z (m/s^2)","Absolute acceleration (m/s^2)"
8.384168000E-3,4.135350704E0,1.638449192E0,7.854393005E0,9.026468340E0
1.078713700E-2,4.135350704E0,1.638449192E0,7.854393005E0,9.026468340E0
1.321474100E-2,4.156897545E0,1.655207753E0,7.856786728E0,9.041493659E0
1.566703300E-2,4.156897545E0,1.655207753E0,7.856786728E0,9.041493659E0
1.811948100E-2,4.161685467E0,1.693513393E0,7.856786728E0,9.050785117E0
2.057208500E-2,4.161685467E0,1.693513393E0,7.856786728E0,9.050785117E0
2.302494900E-2,4.154503345E0,1.671966553E0,7.849604607E0,9.037237558E0
2.547807400E-2,4.154503345E0,1.671966553E0,7.849604607E0,9.037237558E0
2.793109500E-2,4.135350704E0,1.681542873E0,7.799328327E0,8.986558531E0
3.038396000E-2,4.137744427E0,1.693513393E0,7.789752007E0,8.981600797E0
3.283682400E-2,4.140138626E0,1.717454433E0,7.756234646E0,8.958212626E0
3.528968900E-2,4.094651222E0,1.688725114E0,7.751446247E0,8.927646950E0
3.774260600E-2,4.075498104E0,1.703089833E0,7.734687805E0,8.907053117E0
4.019557400E-2,4.056344986E0,1.700695634E0,7.758628845E0,8.918667044E0
4.264854300E-2,4.008463383E0,1.739001274E0,7.746658325E0,8.893965332E0
4.510156400E-2,3.982128382E0,1.739001274E0,7.741869926E0,8.877951444E0
4.755458500E-2,3.984522104E0,1.743789554E0,7.753840446E0,8.890402695E0
5.000760600E-2,3.960581064E0,1.777306914E0,7.787357807E0,8.915602271E0
5.246062600E-2,3.958187342E0,1.750971794E0,7.799328327E0,8.919791007E0
5.491364700E-2,3.972551584E0,1.770124555E0,7.794540405E0,8.925769836E0
5.736666800E-2,3.986916304E0,1.779700875E0,7.794540405E0,8.934075047E0
5.981968900E-2,3.998886824E0,1.767730594E0,7.777781487E0,8.922435325E0
6.227271000E-2,4.013251781E0,1.774912834E0,7.749052525E0,8.905297326E0
6.472573100E-2,4.039586544E0,1.762942314E0,7.729899406E0,8.898177897E0
6.717875100E-2,4.061133862E0,1.772518635E0,7.727505207E0,8.907803729E0
6.963177200E-2,4.075498104E0,1.774912834E0,7.749052525E0,8.933522004E0
7.208479300E-2,4.094651222E0,1.760548115E0,7.734687805E0,8.926986823E0
7.453781400E-2,4.077892303E0,1.727030754E0,7.737082005E0,8.914834761E0
7.699088700E-2,4.123380184E0,1.722242713E0,7.722717285E0,8.922373360E0
7.944396000E-2,4.109015465E0,1.724636674E0,7.684412003E0,8.883049452E0
8.189703300E-2,4.097044945E0,1.715060353E0,7.634135723E0,8.832170601E0
8.435010600E-2,4.085074425E0,1.691119313E0,7.581465244E0,8.776464712E0
8.680317800E-2,4.051557064E0,1.683937073E0,7.545553684E0,8.728467168E0
8.925625100E-2,4.039586544E0,1.657601953E0,7.497672081E0,8.676461855E0
9.170932400E-2,4.018039703E0,1.643237352E0,7.456972599E0,8.628517393E0
9.416239700E-2,3.979733706E0,1.638449192E0,7.449790001E0,8.603613612E0
9.661547000E-2,3.982128382E0,1.638449192E0,7.430637360E0,8.588144955E0
9.906854300E-2,3.953398943E0,1.619296432E0,7.404302597E0,8.548402253E0
1.015216160E-1,3.931852102E0,1.648025513E0,7.365996361E0,8.510778544E0
1.039746890E-1,3.874393702E0,1.640843272E0,7.356420517E0,8.474680880E0
1.064278140E-1,3.879182100E0,1.667178273E0,7.320508957E0,8.450880933E0
1.088809390E-1,3.869605303E0,1.664784312E0,7.277414799E0,8.408693011E0
1.113340640E-1,3.862423182E0,1.715060353E0,7.224744797E0,8.369986991E0
1.137871890E-1,3.857634783E0,1.715060353E0,7.184044838E0,8.332663342E0
1.162403660E-1,3.860028982E0,1.748577714E0,7.128981113E0,8.293353934E0
1.186935430E-1,3.891152620E0,1.770124555E0,7.114616394E0,8.300131089E0
1.211467200E-1,3.881575823E0,1.794065595E0,7.119404316E0,8.304891332E0
1.235998970E-1,3.910305262E0,1.820400715E0,7.140951157E0,8.342513376E0
1.260530740E-1,3.946216822E0,1.841947556E0,7.145739555E0,8.368213178E0
1.285062510E-1,3.972551584E0,1.875464916E0,7.143345356E0,8.386054950E0
1.309594280E-1,4.034798622E0,1.889829516E0,7.150527954E0,8.425028519E0
1.334099490E-1,4.080286026E0,1.906588197E0,7.138557434E0,8.440545886E0
1.358369280E-1,4.113803864E0,1.928135037E0,7.157710075E0,8.477847632E0
1.382421370E-1,4.164079666E0,1.920952797E0,7.138557434E0,8.484610855E0
1.406468760E-1,4.214355469E0,1.940105557E0,7.234321594E0,8.594196328E0
1.430524490E-1,4.276602745E0,1.964046597E0,6.733954430E0,8.215409444E0
1.454577620E-1,4.267025948E0,1.940105557E0,7.540765762E0,8.878888911E0
1.478628140E-1,4.319695950E0,1.954470277E0,6.937452793E0,8.402855373E0
1.502684910E-1,4.336454868E0,1.937711596E0,7.093069553E0,8.536463129E0
1.526742720E-1,4.353213787E0,1.942499757E0,7.248685837E0,8.675668386E0
1.550805220E-1,4.369972229E0,1.959258437E0,6.774654388E0,8.296462679E0
1.574863030E-1,4.346031189E0,1.920952797E0,7.370784760E0,8.769635951E0
1.598914600E-1,4.379548550E0,1.940105557E0,6.846477509E0,8.355759053E0
1.622972930E-1,4.360395432E0,1.925741076E0,7.121798515E0,8.569804030E0
1.647028140E-1,4.374760628E0,1.954470277E0,7.160103798E0,8.615426339E0
1.671081260E-1,4.365184307E0,1.918558717E0,6.815353870E0,8.317737070E0
1.695135950E-1,4.362790108E0,1.928135037E0,7.373178959E0,8.781538032E0
1.719188030E-1,4.391519070E0,1.932923317E0,6.805777550E0,8.327078740E0
1.743245850E-1,4.365184307E0,1.908982277E0,7.145739555E0,8.588401549E0
1.767296890E-1,4.377154827E0,1.904194117E0,7.128981113E0,8.579499480E0
1.791339600E-1,4.358001709E0,1.873070836E0,6.901541233E0,8.374475783E0
1.815391160E-1,4.300543785E0,1.856312156E0,7.433031559E0,8.785814124E0
1.839443240E-1,4.310119629E0,1.858706236E0,6.894359112E0,8.340510035E0
1.863492200E-1,4.264632225E0,1.827582955E0,7.349237919E0,8.691285605E0
1.887543240E-1,4.238296509E0,1.818006516E0,7.224744797E0,8.571186754E0
1.911592720E-1,4.226325989E0,1.796459675E0,6.985334873E0,8.359665186E0
1.935643760E-1,4.221538067E0,1.765336394E0,7.430637360E0,8.726520945E0
1.959693240E-1,4.214355469E0,1.772518635E0,6.844082832E0,8.230679446E0
1.983740120E-1,4.207173824E0,1.741395473E0,7.344449997E0,8.641395463E0
2.007795330E-1,4.202384949E0,1.748577714E0,7.148133278E0,8.474277116E0
2.031846370E-1,4.221538067E0,1.746183515E0,7.045187473E0,8.396737881E0
2.055894280E-1,4.247873306E0,1.729424953E0,7.514431000E0,8.803522678E0
2.079946890E-1,4.338849068E0,1.734212995E0,7.028429031E0,8.439900508E0
2.103997410E-1,4.372365952E0,1.703089833E0,7.600618362E0,8.932384815E0
2.128051580E-1,4.456159592E0,1.722242713E0,7.332479477E0,8.751498932E0
2.152100530E-1,4.532771111E0,1.707877994E0,7.296567917E0,8.758011449E0
2.176145330E-1,4.626140594E0,1.693513393E0,7.674835205E0,9.119882666E0
2.200194810E-1,4.724298477E0,1.674360633E0,7.172074318E0,8.749921694E0
2.224239080E-1,4.776968956E0,1.643237352E0,7.789752007E0,9.284390003E0
2.248281260E-1,4.887097836E0,1.636054993E0,7.480913162E0,9.084297603E0
2.272327100E-1,4.973285198E0,1.595355392E0,7.591042042E0,9.214263062E0
2.296375530E-1,5.057078838E0,1.583384871E0,7.923821449E0,9.532476089E0
2.320429700E-1,5.162419319E0,1.588173032E0,7.516824722E0,9.256107212E0
2.344478140E-1,5.236636162E0,1.547473431E0,8.163231850E0,9.821170324E0
2.368523450E-1,5.344370842E0,1.549867511E0,7.811298847E0,9.590661014E0
2.392577620E-1,5.401828766E0,1.530714631E0,8.069861412E0,9.830844547E0
2.416627620E-1,5.533504009E0,1.559443951E0,8.388277054E0,1.016930302E1
2.440673970E-1,5.638844490E0,1.559443951E0,8.050708771E0,9.952002026E0
2.464723970E-1,5.717849731E0,1.525926590E0,8.740208626E0,1.055525956E1
2.488774490E-1,5.835160732E0,1.530714631E0,8.364336014E0,1.031282236E1
2.512830220E-1,5.923742294E0,1.540291071E0,8.697115898E0,1.063499150E1
2.536883350E-1,6.038659096E0,1.535502911E0,8.862307549E0,1.083345134E1
2.560930220E-1,6.120058537E0,1.535502911E0,8.488828659E0,1.057700797E1
2.584982830E-1,6.196669579E0,1.518744111E0,9.096929550E0,1.111122967E1
2.609032310E-1,6.297221661E0,1.518744111E0,8.577410698E0,1.074865380E1
2.633080220E-1,6.335526943E0,1.497197270E0,8.895826340E0,1.102343992E1
2.657134390E-1,6.402562141E0,1.468468189E0,8.946102142E0,1.109873616E1
2.681188560E-1,6.457626343E0,1.466073990E0,8.589381218E0,1.084563417E1
2.705245330E-1,6.464808464E0,1.415797949E0,9.156783104E0,1.129800465E1
2.729297930E-1,6.479173183E0,1.396645188E0,8.565440178E0,1.083037711E1
2.753346890E-1,6.445655823E0,1.379886508E0,8.962861061E0,1.112580083E1
2.777401580E-1,6.433685303E0,1.355945587E0,8.879066467E0,1.104847122E1
2.801451060E-1,6.376227379E0,1.334398627E0,8.591774940E0,1.078218400E1
2.825496890E-1,6.345103741E0,1.308063507E0,9.118476868E0,1.118561541E1
2.849549490E-1,6.292433739E0,1.274546146E0,8.563045502E0,1.070256691E1
2.873602620E-1,6.191881657E0,1.250605226E0,9.049047470E0,1.103579050E1
2.897658350E-1,6.153575420E0,1.229058266E0,8.888643265E0,1.088048959E1
2.921709910E-1,6.067388058E0,1.217087746E0,8.711480141E0,1.068570946E1
2.945755740E-1,5.978806496E0,1.195540905E0,9.161570549E0,1.100499069E1
2.969806780E-1,5.914165974E0,1.212299585E0,8.555864334E0,1.047138214E1
2.993855740E-1,5.825583935E0,1.183570385E0,9.075383186E0,1.084900212E1
3.017901060E-1,5.787278652E0,1.190752625E0,8.797667503E0,1.059761480E1
3.041951580E-1,5.703485012E0,1.181176305E0,8.716267586E0,1.048323611E1
3.066002620E-1,5.619691849E0,1.176388025E0,9.125658989E0,1.078158046E1
3.090056780E-1,5.583780289E0,1.190752625E0,8.519951820E0,1.025602619E1
3.114108870E-1,5.499986649E0,1.166811705E0,9.065807343E0,1.066771604E1
3.138159390E-1,5.466469765E0,1.197934985E0,8.718662262E0,1.036013569E1
3.162217720E-1,5.411405087E0,1.202723145E0,8.728239059E0,1.033982616E1
3.186273450E-1,5.399434566E0,1.207511425E0,9.037077904E0,1.059626135E1
3.210327620E-1,5.332400322E0,1.231452465E0,8.474463463E0,1.008798787E1
3.234384390E-1,5.301276684E0,1.226664186E0,9.053835869E0,1.056315215E1
3.258440120E-1,5.308459282E0,1.267363787E0,8.584592819E0,1.017257022E1
3.282496370E-1,5.270153522E0,1.255393267E0,8.697115898E0,1.024648014E1
3.306545850E-1,5.270153522E0,1.272152066E0,8.891037941E0,1.041361823E1
3.330592200E-1,5.255788803E0,1.279334307E0,8.378700256E0,9.973095317E0
3.354646890E-1,5.195936203E0,1.293698907E0,8.960465431E0,1.043845538E1
3.378697930E-1,5.222271442E0,1.317639947E0,8.467282295E0,1.003509659E1
3.402748970E-1,5.183965683E0,1.312851667E0,8.682750702E0,1.019741337E1
3.426805220E-1,5.191148281E0,1.312851667E0,8.838366508E0,1.033384355E1
3.450858350E-1,5.174389839E0,1.310457706E0,8.390670776E0,9.944594797E0
3.474914600E-1,5.136083603E0,1.279334307E0,8.979619026E0,1.042351231E1
3.498968760E-1,5.152842522E0,1.329610467E0,8.412218094E0,9.954148045E0
3.523020330E-1,5.121719360E0,1.293698907E0,8.711480141E0,1.018801022E1
3.547076580E-1,5.143266201E0,1.286516666E0,8.711480141E0,1.019795071E1
3.571126580E-1,5.114537239E0,1.267363787E0,8.318847656E0,9.847229482E0
3.595175530E-1,5.097778320E0,1.214693666E0,8.881461143E0,1.031228280E1
3.619227620E-1,5.107354641E0,1.231452465E0,8.275753975E0,9.802532859E0
3.643280220E-1,5.049896240E0,1.195540905E0,8.632474899E0,1.007225858E1
3.667338030E-1,5.021167278E0,1.169205785E0,8.546286583E0,9.980890610E0
3.691389600E-1,4.994832039E0,1.162023544E0,8.294906616E0,9.752134207E0
3.715439080E-1,4.963708878E0,1.128506184E0,8.816821098E0,1.018077926E1
3.739495330E-1,4.937373638E0,1.097382784E0,8.230266571E0,9.660186088E0
3.763546370E-1,4.899068356E0,1.049500942E0,8.656415939E0,1.000179283E1
3.787592720E-1,4.903856277E0,1.059077263E0,8.484041214E0,9.856389114E0
3.811645330E-1,4.848792076E0,9.800719619E-1,8.256601334E0,9.625112531E0
3.835698450E-1,4.834427834E0,9.513427615E-1,8.718662262E0,1.001458023E1
3.859753140E-1,4.841609478E0,9.513427615E-1,8.105772972E0,9.489456827E0
3.883805220E-1,4.824851036E0,8.938843608E-1,8.627686501E0,9.925481909E0
3.907852620E-1,4.832033157E0,8.914902806E-1,8.369123459E0,9.704922814E0
3.931906780E-1,4.803304195E0,8.795198202E-1,8.261389732E0,9.596658096E0
3.955958350E-1,4.805697918E0,8.579729199E-1,8.692326546E0,9.969322484E0
3.980005740E-1,4.827245235E0,8.603670001E-1,8.100984573E0,9.469344169E0
4.004057830E-1,4.796121597E0,8.436083198E-1,8.637263298E0,9.915481564E0
4.028109390E-1,4.793727875E0,8.196672797E-1,8.304482460E0,9.623726426E0
4.052163560E-1,4.772180557E0,8.364259601E-1,8.299695015E0,9.610320130E0
4.076215120E-1,4.767392635E0,8.268496394E-1,8.658809662E0,9.919006887E0
4.100264600E-1,4.762604713E0,8.196672797E-1,8.120138168E0,9.449386328E0
4.124319280E-1,4.741057873E0,8.268496394E-1,8.682750702E0,9.927309295E0
4.148369810E-1,4.760210037E0,8.747316003E-1,8.266178131E0,9.578854622E0
4.172415640E-1,4.753028393E0,8.555787802E-1,8.352364540E0,9.648071691E0
4.196464080E-1,4.781757355E0,8.938843608E-1,8.627686501E0,9.904605343E0
4.220513030E-1,4.793727875E0,9.034608006E-1,8.151261330E0,9.499427857E0
4.244566680E-1,4.791333675E0,9.082489610E-1,8.754573822E0,1.002119541E1
4.268616160E-1,4.846398354E0,9.321900010E-1,8.352364540E0,9.701471466E0
4.292662510E-1,4.851186275E0,9.633132815E-1,8.548681259E0,9.876331912E0
4.316719280E-1,4.887097836E0,9.728897214E-1,8.764149666E0,1.008169425E1
4.340771370E-1,4.939767838E0,1.032742143E0,8.328423500E0,9.738095328E0
4.364819280E-1,4.956526756E0,1.004013062E0,8.934130669E0,1.026615266E1
4.388871890E-1,5.037925720E0,1.037530422E0,8.421793938E0,9.868321948E0
4.412924490E-1,5.040319920E0,1.030348063E0,8.685144424E0,1.009446263E1
4.436981260E-1,5.081019878E0,1.054289103E0,8.759362221E0,1.018109596E1
4.461032830E-1,5.092989922E0,1.056683183E0,8.345182419E0,9.833473206E0
4.485078660E-1,5.116930962E0,1.061471343E0,8.900613785E0,1.032136762E1
4.509134390E-1,5.145659924E0,1.075835943E0,8.330818176E0,9.850775122E0
4.533188560E-1,5.112142563E0,1.071047783E0,8.649233818E0,1.010397895E1
4.557238560E-1,5.121719360E0,1.078230023E0,8.625292778E0,1.008911615E1
4.581294280E-1,5.090596199E0,1.071047783E0,8.326029778E0,9.817539655E0
4.605350010E-1,5.054684639E0,1.056683183E0,8.888643265E0,1.027980521E1
4.629409390E-1,5.073837280E0,1.071047783E0,8.345182419E0,9.825122783E0
4.653464600E-1,5.025955200E0,1.056683183E0,8.768939018E0,1.016223876E1
4.677515120E-1,5.023561001E0,1.097382784E0,8.649233818E0,1.006228899E1
4.701571890E-1,4.990043640E0,1.106959343E0,8.402641296E0,9.835155071E0
4.725622410E-1,4.999619961E0,1.121323824E0,8.917372704E0,1.028460514E1
4.749669810E-1,5.009196758E0,1.145264745E0,8.361942291E0,9.814568884E0
4.773720330E-1,5.004408836E0,1.150053024E0,8.831185341E0,1.021550607E1
4.797770850E-1,5.021167278E0,1.159629464E0,8.634868622E0,1.005573555E1
4.821823450E-1,5.006802559E0,1.164417505E0,8.503193855E0,9.936208821E0
4.845872930E-1,5.016379356E0,1.178782225E0,8.912584305E0,1.029503513E1
4.869919810E-1,5.052290440E0,1.219481945E0,8.347577095E0,9.833352341E0
4.893973970E-1,5.069049358E0,1.200329065E0,8.879066467E0,1.029436120E1
4.918026060E-1,5.131295681E0,1.245816946E0,8.572622299E0,1.006837168E1
4.942078140E-1,5.150448799E0,1.264969826E0,8.503193855E0,1.002155563E1
4.966133350E-1,5.136083603E0,1.269757867E0,8.852731705E0,1.031321960E1
4.990187510E-1,5.195936203E0,1.276940346E0,8.323636055E0,9.895011210E0
5.014244810E-1,5.148054123E0,1.300881147E0,8.931736946E0,1.039089399E1
5.038297930E-1,5.188754082E0,1.305669427E0,8.572622299E0,1.010533496E1
5.062345330E-1,5.162419319E0,1.320034027E0,8.675568581E0,1.018128446E1
5.086398450E-1,5.203118801E0,1.339186788E0,8.948495865E0,1.043750184E1
5.110449490E-1,5.181571484E0,1.382280588E0,8.426582336E0,9.988326814E0
5.134500010E-1,5.191148281E0,1.355945587E0,9.041866302E0,1.051389343E1
5.158553140E-1,5.219877243E0,1.387068748E0,8.594168663E0,1.015040951E1
5.182602620E-1,5.193542004E0,1.391857028E0,8.778514862E0,1.029429297E1
5.206655220E-1,5.227059841E0,1.418192029E0,9.025106430E0,1.052549140E1
5.230706780E-1,5.251000881E0,1.430162549E0,8.584592819E0,1.016433023E1
5.254757830E-1,5.251000881E0,1.437344909E0,9.230999947E0,1.071682465E1
5.278817720E-1,5.284518242E0,1.475650430E0,8.740208626E0,1.031963779E1
5.302873450E-1,5.282123566E0,1.482832789E0,9.020318985E0,1.055773541E1
5.326923450E-1,5.313247204E0,1.473256350E0,9.106506348E0,1.064563469E1
5.350976580E-1,5.337188244E0,1.494803190E0,8.673174858E0,1.029290907E1
5.375030740E-1,5.341976166E0,1.506773710E0,9.250151634E0,1.078760315E1
5.399087510E-1,5.380281925E0,1.509167790E0,8.656415939E0,1.030332752E1
5.423142720E-1,5.361129284E0,1.494803190E0,8.979619026E0,1.056454929E1
5.447193760E-1,5.380281925E0,1.535502911E0,9.008347511E0,1.060450506E1
5.471250010E-1,5.382676125E0,1.537896991E0,8.644444466E0,1.029877418E1
5.495304700E-1,5.373099804E0,1.530714631E0,9.185511589E0,1.075113538E1
5.519356260E-1,5.406617165E0,1.561838031E0,8.563045502E0,1.024678464E1
5.543411470E-1,5.385070324E0,1.535502911E0,8.977225304E0,1.058051633E1
5.567466680E-1,5.413799286E0,1.549867511E0,8.816821098E0,1.046172291E1
5.591525010E-1,5.397040844E0,1.552261591E0,8.555864334E0,1.023427479E1
5.615578660E-1,5.404222965E0,1.525926590E0,9.046653748E0,1.064781770E1
5.639628140E-1,5.401828766E0,1.547473431E0,8.395459175E0,1.010238402E1
5.663687510E-1,5.370705605E0,1.552261591E0,8.855125427E0,1.047221281E1
5.687743760E-1,5.380281925E0,1.580990791E0,8.627686501E0,1.028999222E1
5.711793760E-1,5.363523006E0,1.561838031E0,8.426582336E0,1.011009431E1
5.735846890E-1,5.353946686E0,1.578596711E0,8.812031746E0,1.043113686E1
5.759900530E-1,5.361129284E0,1.588173032E0,8.187171936E0,9.914322220E0
5.783955220E-1,5.327611446E0,1.590567112E0,8.728239059E0,1.034869579E1
5.808005740E-1,5.337188244E0,1.626478672E0,8.409823418E0,1.009238035E1
5.832053660E-1,5.334794044E0,1.631266952E0,8.361942291E0,1.005202160E1
5.856111470E-1,5.365917206E0,1.652813792E0,8.728239059E0,1.037819917E1
5.880164080E-1,5.363523006E0,1.679148793E0,8.122531891E0,9.877370299E0
5.904211990E-1,5.344370842E0,1.695907593E0,8.716267586E0,1.036396270E1
5.928264600E-1,5.401828766E0,1.739001274E0,8.402641296E0,1.013944082E1
5.952316680E-1,5.375493526E0,1.727030754E0,8.522345543E0,1.022296138E1
5.976372930E-1,5.392252445E0,1.767730594E0,8.847944260E0,1.051129752E1
6.000426060E-1,5.444922447E0,1.794065595E0,8.304482460E0,1.009109908E1
6.024476580E-1,5.432951927E0,1.796459675E0,8.917372704E0,1.059545987E1
6.048534910E-1,5.504775047E0,1.822794795E0,8.464887619E0,1.026057755E1
6.072586470E-1,5.523927689E0,1.837159276E0,8.586986542E0,1.037425993E1
6.096632830E-1,5.578992367E0,1.875464916E0,8.737814903E0,1.053527094E1
6.120681780E-1,5.595750809E0,1.885041237E0,8.196748734E0,1.010210361E1
6.144727620E-1,5.612509727E0,1.892223716E0,8.697115898E0,1.052238571E1
6.168777100E-1,5.631662369E0,1.913770556E0,8.124925613E0,1.006938702E1
6.192826060E-1,5.602932930E0,1.920952797E0,8.326029778E0,1.021791020E1
6.216871370E-1,5.622086048E0,1.940105557E0,8.381094933E0,1.027689707E1
6.240923450E-1,5.619691849E0,1.968834758E0,7.950157166E0,9.932887080E0
6.264975010E-1,5.578992367E0,1.928135037E0,8.531923294E0,1.037480485E1
6.289022930E-1,5.617297649E0,1.976017118E0,7.981280327E0,9.957886934E0
6.313072410E-1,5.578992367E0,1.920952797E0,8.299695015E0,1.018332720E1
6.337121890E-1,5.602932930E0,1.968834758E0,8.297301292E0,1.020364525E1
6.361177620E-1,5.598145008E0,1.968834758E0,7.916639328E0,9.893872654E0
6.385231260E-1,5.598145008E0,1.956864238E0,8.448128700E0,1.032179363E1
6.409279700E-1,5.646027088E0,1.966440558E0,7.866363525E0,9.880495203E0
6.433334910E-1,5.631662369E0,1.959258437E0,8.187171936E0,1.012838087E1
6.457386470E-1,5.653209209E0,1.980805278E0,7.988462448E0,9.984883384E0
6.481431260E-1,5.657997608E0,1.983199477E0,7.928609848E0,9.940265149E0
6.505482310E-1,5.672362328E0,2.026293039E0,7.928609848E0,9.957128702E0
6.529533350E-1,5.679543972E0,2.011928320E0,7.911850929E0,9.944971615E0
6.553587510E-1,5.710667610E0,2.043051720E0,7.957339287E0,1.000525029E1
6.577639600E-1,5.756155491E0,2.057416439E0,7.923821449E0,1.000765881E1
6.601686470E-1,5.758549690E0,2.088539600E0,7.981280327E0,1.006100034E1
6.625740640E-1,5.777702332E0,2.119663000E0,8.010009766E0,1.010124111E1
6.649792200E-1,5.830372810E0,2.129239082E0,8.024374008E0,1.014482550E1
6.673840120E-1,5.878254890E0,2.160362720E0,8.041131973E0,1.019219560E1
6.697892720E-1,5.930924892E0,2.189091682E0,8.041131973E0,1.022877294E1
6.721941680E-1,5.969230175E0,2.205850363E0,8.017190933E0,1.023586026E1
6.745993760E-1,5.995564938E0,2.258520603E0,8.005220413E0,1.025335399E1
6.770045850E-1,6.055417538E0,2.263309002E0,7.945368767E0,1.024302368E1
6.794094810E-1,6.086541176E0,2.292037964E0,7.919033051E0,1.024746339E1
6.818152100E-1,6.117664337E0,2.313585043E0,7.916639328E0,1.026896640E1
6.842203660E-1,6.103299618E0,2.323161125E0,7.919033051E0,1.026442538E1
6.866246890E-1,6.141605377E0,2.356678724E0,7.933398247E0,1.030592349E1
6.890293240E-1,6.165545940E0,2.383013725E0,7.933398247E0,1.032625387E1
6.914341680E-1,6.172728539E0,2.375831366E0,7.952550888E0,1.034360759E1
6.938393760E-1,6.199063778E0,2.385407925E0,7.966915131E0,1.037257439E1
6.962442720E-1,6.179911137E0,2.375831366E0,7.969309807E0,1.036078062E1
6.986489080E-1,6.208640099E0,2.373437405E0,7.978885651E0,1.038475003E1
7.010544280E-1,6.206246376E0,2.390195847E0,7.988462448E0,1.039452079E1
7.034597930E-1,6.211034298E0,2.392590284E0,7.981280327E0,1.039241411E1
7.058645330E-1,6.227793217E0,2.394984245E0,7.983674049E0,1.040482625E1
7.082694280E-1,6.230186939E0,2.394984245E0,7.998039246E0,1.041728422E1
7.106743240E-1,6.230186939E0,2.378225327E0,7.988462448E0,1.040609039E1
7.130798450E-1,6.206246376E0,2.387801886E0,7.974098206E0,1.038293475E1
7.154853140E-1,6.203852177E0,2.383013725E0,7.957339287E0,1.036753513E1
7.178905220E-1,6.225398540E0,2.375831366E0,7.923821449E0,1.035312069E1
7.202961990E-1,6.218216419E0,2.375831366E0,7.871151447E0,1.030853119E1
7.227009390E-1,6.215822697E0,2.385407925E0,7.811298847E0,1.026367441E1
7.251052100E-1,6.225398540E0,2.380619764E0,7.789752007E0,1.025198389E1
7.275098450E-1,6.239763260E0,2.378225327E0,7.777781487E0,1.025107244E1
7.299146370E-1,6.263704300E0,2.383013725E0,7.806510925E0,1.028855475E1
7.323200530E-1,6.266098499E0,2.411742926E0,7.789752007E0,1.028400363E1
7.347250530E-1,6.270886421E0,2.406954765E0,7.789752007E0,1.028580012E1
7.371296890E-1,6.290039539E0,2.428501606E0,7.749052525E0,1.027180765E1
7.395350010E-1,6.304404259E0,2.438077927E0,7.696382523E0,1.024324367E1
7.419397410E-1,6.349892139E0,2.473989487E0,7.638923645E0,1.023693844E1
7.443441680E-1,6.381015301E0,2.471595526E0,7.581465244E0,1.021296999E1
7.467491160E-1,6.412138462E0,2.471595526E0,7.473731041E0,1.015287938E1
7.491541160E-1,6.452837944E0,2.473989487E0,7.387543201E0,1.011610281E1
7.515595850E-1,6.464808464E0,2.505112648E0,7.361208439E0,1.011220686E1
7.539644810E-1,6.507902622E0,2.514689207E0,7.356420517E0,1.013870708E1
7.563689600E-1,6.505507946E0,2.521871328E0,7.322902679E0,1.011466125E1
7.587743240E-1,6.505507946E0,2.545812368E0,7.277414799E0,1.008779264E1
7.611793240E-1,6.517478466E0,2.545812368E0,7.270232201E0,1.009034005E1
7.635842720E-1,6.493537426E0,2.548206568E0,7.246292114E0,1.005823714E1
7.659895330E-1,6.493537426E0,2.579329967E0,7.286991596E0,1.009550484E1
7.683949490E-1,6.524661064E0,2.586512089E0,7.298962116E0,1.012601080E1
7.708008350E-1,6.515084743E0,2.610453129E0,7.356420517E0,1.016748335E1
7.732060950E-1,6.570148945E0,2.643970490E0,7.387543201E0,1.023392553E1
7.756108870E-1,6.598878384E0,2.672699690E0,7.435425282E0,1.029437073E1
7.780163560E-1,6.682671547E0,2.675093651E0,7.483307362E0,1.038335755E1
7.804213030E-1,6.749706745E0,2.713399410E0,7.485701561E0,1.043823766E1
7.828257830E-1,6.799982548E0,2.722975731E0,7.492883682E0,1.047843812E1
7.852307310E-1,6.867017269E0,2.758887291E0,7.488095284E0,1.052800818E1
7.876356780E-1,6.929263592E0,2.780434132E0,7.449790001E0,1.054726879E1
7.900410430E-1,6.993904591E0,2.790010452E0,7.418666840E0,1.057050034E1
7.924461990E-1,7.025027752E0,2.840286732E0,7.399513721E0,1.059108337E1
7.948510430E-1,7.048968792E0,2.857045174E0,7.389937401E0,1.060480282E1
7.972565120E-1,7.065727711E0,2.883380413E0,7.370784760E0,1.060975300E1
7.996611990E-1,7.084880352E0,2.892956734E0,7.373178959E0,1.062678203E1
8.020655220E-1,7.075303555E0,2.909715414E0,7.346843719E0,1.060671848E1
8.044706780E-1,7.068121433E0,2.955203533E0,7.375572681E0,1.063440835E1
8.068760430E-1,7.048968792E0,2.967173815E0,7.425848961E0,1.065998660E1
8.092815640E-1,7.029816151E0,2.969568014E0,7.437819481E0,1.065635059E1
8.116866680E-1,7.010663033E0,3.003085375E0,7.488095284E0,1.068828746E1
8.140914080E-1,6.981934071E0,3.024632215E0,7.473731041E0,1.066547979E1
8.164968240E-1,6.953204632E0,3.019843817E0,7.468942642E0,1.064197423E1
8.189016680E-1,6.946022511E0,3.041390896E0,7.416272640E0,1.060652569E1
8.213060950E-1,6.946022511E0,3.077302456E0,7.351631641E0,1.057182609E1
8.237109910E-1,6.941234112E0,3.108425617E0,7.301355839E0,1.054290462E1
8.261161990E-1,6.957993031E0,3.118002176E0,7.253473759E0,1.052371066E1
8.285218760E-1,6.943628788E0,3.129972696E0,7.198410034E0,1.047987676E1
8.309269280E-1,6.953204632E0,3.144337177E0,7.140951157E0,1.045117670E1
8.333315120E-1,6.969963551E0,3.173066378E0,7.081099033E0,1.043027831E1
8.357369280E-1,6.974751472E0,3.170672178E0,7.054763794E0,1.041489378E1
8.381421890E-1,6.974751472E0,3.194613218E0,7.030822754E0,1.040601654E1
8.405473970E-1,6.984328270E0,3.187430859E0,7.018852234E0,1.040215572E1
8.429531260E-1,7.015450954E0,3.201795340E0,7.011670113E0,1.042264665E1
8.453589080E-1,6.967569828E0,3.204189777E0,6.959000111E0,1.035574932E1
8.477648970E-1,6.984328270E0,3.197007418E0,6.963788033E0,1.036802978E1
8.501701580E-1,6.981934071E0,3.216160059E0,6.947029591E0,1.036109594E1
8.525751060E-1,6.953204632E0,3.208977938E0,6.923088551E0,1.032345626E1
8.549809910E-1,6.967569828E0,3.206583738E0,6.927876472E0,1.033560259E1
8.573863030E-1,6.948416710E0,3.232918978E0,6.947029591E0,1.034376527E1
8.597912510E-1,6.929263592E0,3.235312939E0,6.973364353E0,1.034938424E1
8.621968240E-1,6.900534630E0,3.235312939E0,6.987729073E0,1.033987358E1
8.646019810E-1,6.893352032E0,3.237706900E0,7.006881714E0,1.034878928E1
8.670072410E-1,6.890958309E0,3.256859779E0,6.997305393E0,1.034672532E1
8.694120850E-1,6.907717228E0,3.278406620E0,6.990122795E0,1.035984189E1
8.718167200E-1,6.898140430E0,3.283195019E0,6.939846992E0,1.032110397E1
8.742227100E-1,6.919687748E0,3.309530020E0,6.925482273E0,1.033428141E1
8.766282830E-1,6.917293072E0,3.326288700E0,6.903935432E0,1.032363620E1
8.790331260E-1,6.931658268E0,3.357411861E0,6.872812271E0,1.032257958E1
8.814384910E-1,6.969963551E0,3.383746862E0,6.865629673E0,1.035214980E1
8.838436470E-1,6.972357750E0,3.383746862E0,6.848871231E0,1.034265694E1
8.862492200E-1,6.993904591E0,3.414870501E0,6.777048588E0,1.032009833E1
8.886547930E-1,6.991510868E0,3.426840782E0,6.750713348E0,1.030517310E1
8.910598450E-1,7.008269310E0,3.486693144E0,6.757895470E0,1.034127743E1
8.934655220E-1,6.998692513E0,3.510634184E0,6.765078068E0,1.034758573E1
8.958709390E-1,6.993904591E0,3.513028383E0,6.736348152E0,1.032639609E1
8.982760430E-1,6.967569828E0,3.541757345E0,6.683678150E0,1.028409588E1
9.006813030E-1,6.929263592E0,3.563304424E0,6.609461308E0,1.021747577E1
9.030867200E-1,6.883776188E0,3.577668905E0,6.592702866E0,1.018085559E1
9.054925530E-1,6.826317787E0,3.604004145E0,6.585520267E0,1.014675010E1
9.078979180E-1,6.828711510E0,3.644703627E0,6.587914467E0,1.016443714E1
9.103031260E-1,6.778435707E0,3.663856745E0,6.602278709E0,1.014697596E1
9.127088560E-1,6.740129948E0,3.704556227E0,6.640584946E0,1.016122320E1
9.151143760E-1,6.720977306E0,3.757226467E0,6.657343388E0,1.017882644E1
9.175198970E-1,6.706612587E0,3.773985147E0,6.674101830E0,1.018652303E1
9.199255740E-1,6.713795185E0,3.805108309E0,6.698042870E0,1.021849663E1
9.223309390E-1,6.706612587E0,3.845808268E0,6.674101830E0,1.021335052E1
9.247365640E-1,6.764070988E0,3.862566710E0,6.688467026E0,1.026682371E1
9.271420850E-1,6.785618305E0,3.903266430E0,6.662131310E0,1.027930436E1
9.295471370E-1,6.802376747E0,3.946360350E0,6.619038105E0,1.027899581E1
9.319530740E-1,6.831105709E0,3.951148272E0,6.616643906E0,1.029832775E1
9.343588560E-1,6.816740990E0,3.989454031E0,6.595097065E0,1.028975250E1
9.367640120E-1,6.814347267E0,3.989454031E0,6.599884987E0,1.029123676E1
9.391693240E-1,6.816740990E0,4.015789509E0,6.611855507E0,1.031073016E1
9.415742720E-1,6.795194149E0,4.039730549E0,6.642978668E0,1.032585357E1
9.439797410E-1,6.759282589E0,4.044518471E0,6.669313908E0,1.032113263E1
9.463851580E-1,6.728159428E0,4.070853710E0,6.676496506E0,1.031579298E1
9.487900010E-1,6.675488949E0,4.075642109E0,6.733954430E0,1.032081167E1
9.511954700E-1,6.668307304E0,4.106765270E0,6.765078068E0,1.034882238E1
9.536008870E-1,6.632395744E0,4.116341591E0,6.779442310E0,1.033894479E1
9.560059390E-1,6.627607346E0,4.130706310E0,6.793807030E0,1.035102544E1
9.584111990E-1,6.601272106E0,4.161828995E0,6.796200752E0,1.034823457E1
9.608164080E-1,6.582119465E0,4.176194191E0,6.784230232E0,1.033395735E1
9.632218240E-1,6.601272106E0,4.192952633E0,6.803383350E0,1.036550386E1
9.656270330E-1,6.610848427E0,4.228864193E0,6.820141792E0,1.039716035E1
9.680320850E-1,6.634789467E0,4.243228436E0,6.820141792E0,1.041824135E1
9.704378140E-1,6.673095226E0,4.250411034E0,6.853659153E0,1.046751344E1
9.728430220E-1,6.697036266E0,4.281534195E0,6.858448029E0,1.049857796E1
9.752475530E-1,6.730553627E0,4.288716793E0,6.846477509E0,1.051511760E1
9.776526580E-1,6.761677265E0,4.327022076E0,6.844082832E0,1.054916439E1
9.800580740E-1,6.785618305E0,4.338992596E0,6.800989151E0,1.054158081E1
9.824639600E-1,6.835894108E0,4.348569393E0,6.786624908E0,1.056871713E1
9.848692200E-1,6.850258827E0,4.348569393E0,6.767471790E0,1.056573595E1
9.872738030E-1,6.878987789E0,4.370116234E0,6.760289192E0,1.058866842E1
9.896792720E-1,6.871805668E0,4.379692078E0,6.786624908E0,1.060479578E1
9.920845330E-1,6.864623070E0,4.429968357E0,6.784230232E0,1.061948442E1
9.944895850E-1,6.886170387E0,4.420392036E0,6.803383350E0,1.064167437E1
9.968951060E-1,6.876593590E0,4.439544678E0,6.832112312E0,1.066184107E1
9.993004180E-1,6.890958309E0,4.465879440E0,6.832112312E0,1.068209456E1
1.001706043E0,6.898140430E0,4.477849960E0,6.834506989E0,1.069326739E1
1.004111356E0,6.888564110E0,4.513761520E0,6.836900711E0,1.070371757E1
1.006516199E0,6.902928829E0,4.520944118E0,6.832112312E0,1.071294174E1
1.008921720E0,6.867017269E0,4.540097237E0,6.822536469E0,1.069183861E1
1.011326772E0,6.859835148E0,4.583190441E0,6.824930191E0,1.070713057E1
1.013731408E0,6.857440472E0,4.585584641E0,6.791412830E0,1.068528729E1
1.016136668E0,6.823923588E0,4.602343559E0,6.755501270E0,1.064820627E1
1.018541981E0,6.809558868E0,4.643043041E0,6.726772308E0,1.063848703E1
1.020947501E0,6.747312069E0,4.643043041E0,6.705225468E0,1.058508939E1
1.023352710E0,6.716189384E0,4.671772003E0,6.674101830E0,1.055823322E1
1.025757710E0,6.677883625E0,4.678954601E0,6.638190269E0,1.051438614E1
1.028163699E0,6.639577866E0,4.695713043E0,6.633402348E0,1.049455773E1
1.030569064E0,6.567755222E0,4.726836681E0,6.633402348E0,1.046328918E1
1.032973856E0,6.515084743E0,4.738807201E0,6.628614426E0,1.043269630E1
1.035379220E0,6.491143703E0,4.753171444E0,6.616643906E0,1.041669631E1
1.037784428E0,6.436079502E0,4.762748241E0,6.650160789E0,1.040824330E1
1.040190158E0,6.409744740E0,4.786689281E0,6.628614426E0,1.038921321E1
1.042595522E0,6.412138462E0,4.793871880E0,6.621431828E0,1.038942187E1
1.045000574E0,6.397774220E0,4.841753006E0,6.645372868E0,1.041801649E1
1.047406199E0,6.407350063E0,4.860906124E0,6.626219749E0,1.042062049E1
1.049811356E0,6.404956341E0,4.877664566E0,6.621431828E0,1.042393576E1
1.052216251E0,6.450444221E0,4.887241364E0,6.597490788E0,1.044127595E1
1.054621564E0,6.445655823E0,4.915970802E0,6.587914467E0,1.044575823E1
1.057026824E0,6.460020542E0,4.925546646E0,6.590308189E0,1.046064229E1
1.059432397E0,6.457626343E0,4.956670284E0,6.587914467E0,1.047235099E1
1.061837762E0,6.460020542E0,4.961458206E0,6.587914467E0,1.047609421E1
1.064242397E0,6.469596863E0,4.975822926E0,6.631008148E0,1.051592918E1
1.066647814E0,6.452837944E0,4.990187645E0,6.631008148E0,1.051243831E1
1.069053126E0,6.476778984E0,5.028492928E0,6.642978668E0,1.055289404E1
1.071458022E0,6.450444221E0,5.040463448E0,6.647767067E0,1.054548763E1
1.073863335E0,6.450444221E0,5.026099205E0,6.690860748E0,1.056586586E1
1.076268803E0,6.414532661E0,5.040463448E0,6.693254948E0,1.055235343E1
1.078674637E0,6.424108982E0,5.076375008E0,6.705225468E0,1.058294893E1
1.081079845E0,6.369044781E0,5.085951805E0,6.712407589E0,1.055879031E1
1.083484428E0,6.354680061E0,5.078769207E0,6.733954430E0,1.056039761E1
1.085889949E0,6.313980579E0,5.081162930E0,6.745924950E0,1.054476509E1
1.088295262E0,6.261310101E0,5.121863365E0,6.738742828E0,1.052844449E1
1.090699897E0,6.218216419E0,5.126651287E0,6.726772308E0,1.049753469E1
1.093104949E0,6.191881657E0,5.131439209E0,6.721983910E0,1.048122772E1
1.095510158E0,6.132029057E0,5.155380249E0,6.700437069E0,1.044392564E1
1.097915991E0,6.091329098E0,5.152986050E0,6.654949188E0,1.038970183E1
1.100321512E0,6.029082775E0,5.162562847E0,6.626219749E0,1.033966549E1
1.102726564E0,5.969230175E0,5.164956570E0,6.578337669E0,1.027535945E1
1.105132553E0,5.902195454E0,5.176927090E0,6.554397106E0,1.022724825E1
1.107538074E0,5.823190212E0,5.196080208E0,6.556791306E0,1.019314995E1
1.109943231E0,5.830372810E0,5.210444450E0,6.511303425E0,1.017541403E1
1.112348751E0,5.794461250E0,5.212838650E0,6.456238747E0,1.012089357E1
1.114754064E0,5.775308132E0,5.234385490E0,6.382021904E0,1.007388600E1
1.117159689E0,5.753761292E0,5.246356010E0,6.314987183E0,1.002542186E1
1.119565106E0,5.765731812E0,5.255932808E0,6.180917740E0,9.953503761E0
1.121969897E0,5.746579170E0,5.251143932E0,6.080365181E0,9.877678143E0
1.124375314E0,5.744184971E0,5.279873848E0,5.994177818E0,9.838846302E0
1.126780470E0,5.715455532E0,5.284661770E0,5.922354698E0,9.781020761E0
1.129185470E0,5.674756050E0,5.310996532E0,5.867290974E0,9.738308055E0
1.131590731E0,5.624480247E0,5.299026012E0,5.855320454E0,9.695320126E0
1.133996356E0,5.557445049E0,5.327755451E0,5.860108376E0,9.675280037E0
1.136402345E0,5.519139767E0,5.332543850E0,5.884049416E0,9.670520420E0
1.138807553E0,5.447316647E0,5.337331772E0,5.912778854E0,9.649939009E0
1.141212501E0,5.425769806E0,5.342120171E0,5.943902016E0,9.659565056E0
1.143618283E0,5.363523006E0,5.339725971E0,5.967843056E0,9.638215770E0
1.146023439E0,5.334794044E0,5.358878613E0,5.998966217E0,9.652212345E0
1.148428231E0,5.315640926E0,5.366061211E0,6.054030418E0,9.679976017E0
1.150833699E0,5.308459282E0,5.363667011E0,6.077971458E0,9.689705919E0
1.153239376E0,5.318035126E0,5.401972771E0,6.113883018E0,9.738704892E0
1.155645418E0,5.325217724E0,5.437884331E0,6.121065617E0,9.767086264E0
1.158050835E0,5.320429802E0,5.423519135E0,6.130641460E0,9.762494445E0
1.160455678E0,5.282123566E0,5.440278053E0,6.123459339E0,9.746497265E0
1.162861408E0,5.279729843E0,5.457036495E0,6.116276741E0,9.750058241E0
1.165266772E0,5.272547722E0,5.459430695E0,6.075577259E0,9.722025613E0
1.167671564E0,5.251000881E0,5.478583813E0,6.039665699E0,9.698734588E0
1.170076668E0,5.236636162E0,5.519283295E0,5.989389896E0,9.682852767E0
1.172481824E0,5.215089321E0,5.514495373E0,5.884049416E0,9.603585443E0
1.174887501E0,5.193542004E0,5.524071693E0,5.917566776E0,9.617995798E0
1.177292606E0,5.169600964E0,5.540830135E0,5.469870567E0,9.345857731E0
1.179697189E0,5.104960442E0,5.531253815E0,6.042059898E0,9.652040079E0
1.182102449E0,5.088202000E0,5.552800655E0,5.699703693E0,9.445105447E0
1.184507397E0,5.021167278E0,5.538435936E0,5.659004211E0,9.376071785E0
1.186912189E0,4.992438316E0,5.528859615E0,5.972630978E0,9.548039054E0
1.189317710E0,4.942161560E0,5.550406456E0,5.486629009E0,9.237698339E0
1.191723022E0,4.879915237E0,5.526465893E0,5.953478336E0,9.476249379E0
1.194128543E0,4.863156796E0,5.562376976E0,5.649427891E0,9.300879912E0
1.196533595E0,4.800909996E0,5.528859615E0,5.673368931E0,9.263052438E0
1.198938126E0,4.748239517E0,5.519283295E0,5.860108376E0,9.346076009E0
1.201343491E0,4.721904755E0,5.538435936E0,5.364530087E0,9.041506521E0
1.203748439E0,4.657264233E0,5.519283295E0,5.771526814E0,9.244626546E0
1.206153022E0,4.638111115E0,5.550406456E0,5.340589046E0,8.991161099E0
1.208557970E0,4.566287994E0,5.543224335E0,5.402835369E0,8.987154839E0
1.210962970E0,4.556712151E0,5.557589054E0,5.536905289E0,9.072361429E0
1.213368803E0,4.527982712E0,5.586318016E0,5.070055962E0,8.798581924E0
1.215774272E0,4.499253750E0,5.579135895E0,5.489023209E0,9.027702777E0
1.218179064E0,4.496859550E0,5.607865334E0,5.041327000E0,8.779799390E0
1.220584689E0,4.465736389E0,5.624623775E0,5.182578564E0,8.856540785E0
1.223014376E0,4.465736389E0,5.624623775E0,5.182578564E0,8.856540785E0
1.225419689E0,4.465736389E0,5.624623775E0,5.182578564E0,8.856540785E0
1.227801720E0,4.465736389E0,5.624623775E0,5.182578564E0,8.856540785E0
1.230207918E0,4.465736389E0,5.624623775E0,5.182578564E0,8.856540785E0
1.232612918E0,4.547135830E0,5.741934776E0,5.127514362E0,8.940786474E0
1.235045314E0,4.561500072E0,5.780240059E0,5.122725964E0,8.969993275E0
1.237506668E0,4.539953232E0,5.801787376E0,5.062873363E0,8.938937230E0
1.239969585E0,4.556712151E0,5.823333740E0,5.101179600E0,8.983143925E0
1.242434012E0,4.530376434E0,5.878397942E0,4.861769199E0,8.872241698E0
1.244899845E0,4.511224270E0,5.899945259E0,5.252007484E0,9.096377361E0
1.247359324E0,4.496859550E0,5.945433140E0,4.749247074E0,8.838849971E0
1.249807918E0,4.439401150E0,5.964585781E0,5.278342247E0,9.118413403E0
1.252252345E0,4.439401150E0,6.045985222E0,4.770793438E0,8.889470732E0
1.254696876E0,4.410672188E0,6.060349464E0,5.204125404E0,9.124954027E0
1.257142241E0,4.429824829E0,6.129778862E0,4.912045479E0,9.018077827E0
1.259587606E0,4.362790108E0,6.160901546E0,5.043720722E0,9.079083881E0
1.262032189E0,4.360395432E0,6.192025185E0,5.105967522E0,9.133735738E0
1.264476772E0,4.317302227E0,6.239907265E0,4.842616558E0,9.001470786E0
1.266922189E0,4.288573265E0,6.237513065E0,5.240036964E0,9.206324852E0
1.269367553E0,4.259843826E0,6.261454105E0,4.763611317E0,8.946735143E0
1.271812189E0,4.195203304E0,6.280606747E0,5.331012726E0,9.244752487E0
1.274256772E0,4.176050186E0,6.321306705E0,4.818675518E0,8.978749767E0
1.276702137E0,4.123380184E0,6.338065147E0,5.031750202E0,9.082502081E0
1.279147501E0,4.073104382E0,6.330882549E0,5.206519604E0,9.153037722E0
1.281592137E0,4.037192822E0,6.338065147E0,5.170608044E0,9.121687521E0
1.284036720E0,4.003674984E0,6.357217789E0,5.082026482E0,9.070315571E0
1.286482137E0,4.008463383E0,6.381158829E0,5.082026482E0,9.089222181E0
1.288927501E0,3.946216822E0,6.395523548E0,4.976686001E0,9.013476145E0
1.291372085E0,3.907911062E0,6.405099869E0,4.952744961E0,8.990370173E0
1.293816668E0,3.903122663E0,6.400311470E0,4.909651279E0,8.961195742E0
1.296262085E0,3.893546343E0,6.426646709E0,4.900074959E0,8.970631285E0
1.298707449E0,3.915093184E0,6.433829308E0,4.890498161E0,8.979926863E0
1.301152085E0,3.907911062E0,6.443405628E0,4.888104439E0,8.982361046E0
1.303596668E0,3.919881582E0,6.441010952E0,4.892892361E0,8.988464238E0
1.306042085E0,3.948610544E0,6.467346668E0,4.892892361E0,9.019894335E0
1.308487449E0,3.936640024E0,6.472134590E0,4.856980801E0,8.998662308E0
1.310932033E0,3.979733706E0,6.460164070E0,4.804310799E0,8.980723937E0
1.313376616E0,3.984522104E0,6.476922512E0,4.727699757E0,8.954221720E0
1.315822033E0,3.998886824E0,6.498469830E0,4.698970318E0,8.961111985E0
1.318267397E0,3.989310503E0,6.503258228E0,4.696576595E0,8.959062316E0
1.320712033E0,3.967763186E0,6.500863552E0,4.710940838E0,8.955296489E0
1.323156616E0,3.965369463E0,6.517622471E0,4.739670277E0,8.981538397E0
1.325602033E0,3.958187342E0,6.548745632E0,4.782763958E0,9.023754621E0
1.328047397E0,3.922275782E0,6.551139832E0,4.799522877E0,9.018708347E0
1.330491981E0,3.929457903E0,6.577475071E0,4.859375477E0,9.072890815E0
1.332936564E0,3.915093184E0,6.579869270E0,4.919228077E0,9.100628502E0
1.335381981E0,3.888757944E0,6.591839790E0,4.950350761E0,9.114864938E0
1.337827345E0,3.876787901E0,6.610991955E0,4.974291801E0,9.136644788E0
1.340271981E0,3.862423182E0,6.615780830E0,4.998232841E0,9.147086988E0
1.342716564E0,3.843270540E0,6.654086113E0,5.007809162E0,9.172008670E0
1.345161981E0,3.824117422E0,6.673239231E0,5.046114922E0,9.198873393E0
1.347607345E0,3.812146902E0,6.675632954E0,5.089209080E0,9.219359435E0
1.350051928E0,3.766659260E0,6.697180271E0,5.101179600E0,9.222905121E0
1.352496512E0,3.754688740E0,6.706756115E0,5.141879082E0,9.247550249E0
1.354941928E0,3.733141661E0,6.721121311E0,5.168213844E0,9.263922100E0
1.357387293E0,3.675683498E0,6.713938713E0,5.187366962E0,9.246426241E0
1.359831928E0,3.661319017E0,6.740273476E0,5.216095924E0,9.276001303E0
1.362276512E0,3.623013258E0,6.747456074E0,5.252007484E0,9.286440176E0
1.364721876E0,3.623013258E0,6.788155556E0,5.273554325E0,9.328218272E0
1.367167293E0,3.577525377E0,6.800126076E0,5.302283287E0,9.335663368E0
1.369611876E0,3.613436937E0,6.795338154E0,5.299889565E0,9.344644269E0
1.372056460E0,3.603860378E0,6.816884518E0,5.335800648E0,9.377019393E0
1.374501876E0,3.599072218E0,6.836037636E0,5.340589046E0,9.391838092E0
1.376947241E0,3.599072218E0,6.869554996E0,5.342983246E0,9.417620541E0
1.379391876E0,3.639771938E0,6.895890236E0,5.340589046E0,9.451091644E0
1.381836460E0,3.656530619E0,6.905466557E0,5.285524845E0,9.433581368E0
1.384281824E0,3.632589579E0,6.934195518E0,5.266371727E0,9.434693726E0
1.386727241E0,3.620619059E0,6.922224998E0,5.240036964E0,9.406597083E0
1.389171824E0,3.601466417E0,6.943772316E0,5.228066444E0,9.408464969E0
1.391616408E0,3.582313776E0,6.960530758E0,5.235249043E0,9.417525841E0
1.394061824E0,3.534431696E0,6.977289677E0,5.211308002E0,9.398537638E0
1.396507189E0,3.474579096E0,6.984471798E0,5.232854366E0,9.393524951E0
1.398951824E0,3.443455935E0,6.986865520E0,5.201731205E0,9.366519423E0
1.401396408E0,3.405150175E0,7.003624439E0,5.146667004E0,9.334558599E0
1.403841772E0,3.407544374E0,6.998836040E0,5.082026482E0,9.296346473E0
1.406287137E0,3.397967815E0,7.008412838E0,5.026961803E0,9.270079868E0
1.408731772E0,3.419514894E0,7.020383358E0,4.955139160E0,9.248365731E0
1.411176356E0,3.436273336E0,7.029959679E0,4.912045479E0,9.238858063E0
1.413621772E0,3.465002775E0,7.065871239E0,4.878527641E0,9.259201507E0
1.416067137E0,3.515278578E0,7.037142277E0,4.840222359E0,9.236141369E0
1.418511720E0,3.570343256E0,7.063477039E0,4.809098721E0,9.261073877E0
1.420956303E0,3.613436937E0,7.082629681E0,4.777976036E0,9.276293694E0
1.423401720E0,3.673289299E0,7.082629681E0,4.766005516E0,9.293627174E0
1.425847085E0,3.694836140E0,7.089812279E0,4.789946556E0,9.319916322E0
1.428291720E0,3.747506380E0,7.106570721E0,4.842616558E0,9.380729535E0
1.430736303E0,3.747506380E0,7.128117561E0,4.888104439E0,9.420585387E0
1.433181720E0,3.752294779E0,7.106570721E0,4.926409721E0,9.426164451E0
1.435627085E0,3.735535860E0,7.125723839E0,4.981474400E0,9.462835494E0
1.438071720E0,3.723565340E0,7.130511761E0,5.038932323E0,9.492100704E0
1.440516303E0,3.694836140E0,7.149664879E0,5.132302284E0,9.545158391E0
1.442961668E0,3.654136419E0,7.152058601E0,5.204125404E0,9.570139833E0
1.445407085E0,3.615830898E0,7.156846523E0,5.280736446E0,9.601086535E0
1.447851668E0,3.596678257E0,7.156846523E0,5.362135887E0,9.638933962E0
1.450296251E0,3.551190138E0,7.152058601E0,5.412411690E0,9.646610489E0
1.452741668E0,3.529643536E0,7.180787563E0,5.450717449E0,9.681550198E0
1.455187033E0,3.500914097E0,7.199940681E0,5.462687969E0,9.692084666E0
1.457631668E0,3.488943577E0,7.202334881E0,5.512964249E0,9.717979719E0
1.460076251E0,3.469790936E0,7.204728603E0,5.491417408E0,9.700681859E0
1.462521616E0,3.448243856E0,7.216699123E0,5.486629009E0,9.699187070E0
1.464967033E0,3.417120695E0,7.235852242E0,5.489023209E0,9.703795510E0
1.467411616E0,3.405150175E0,7.257399082E0,5.498599529E0,9.721084607E0
1.469856199E0,3.369238615E0,7.278946400E0,5.467476368E0,9.707117356E0
1.472301616E0,3.345297575E0,7.293310642E0,5.448323250E0,9.698846438E0
1.474746981E0,3.321356773E0,7.298098564E0,5.417200565E0,9.676761619E0
1.477191616E0,3.283051252E0,7.302886486E0,5.388470650E0,9.651227512E0
1.479636199E0,3.292627573E0,7.331616402E0,5.359741688E0,9.660270512E0
1.482081564E0,3.273474932E0,7.334010124E0,5.321436405E0,9.634367029E0
1.484526981E0,3.302203894E0,7.341192722E0,5.271160603E0,9.621995388E0
1.486971564E0,3.302203894E0,7.350768566E0,5.213701725E0,9.597970345E0
1.489416147E0,3.314174414E0,7.377104282E0,5.153849602E0,9.589973168E0
1.491861564E0,3.335721493E0,7.381892204E0,5.141879082E0,9.594701188E0
1.494306928E0,3.350085974E0,7.389074802E0,5.120331764E0,9.593711474E0
1.496751564E0,3.352480173E0,7.401045322E0,5.096390724E0,9.591026722E0
1.499196147E0,3.347692013E0,7.415409565E0,5.084420204E0,9.594095561E0
1.501641564E0,3.359662533E0,7.429774284E0,5.050902843E0,9.591688995E0
1.504086928E0,3.357268095E0,7.420197487E0,5.024568081E0,9.569580148E0
1.506531512E0,3.381209135E0,7.398650646E0,5.036538601E0,9.567618705E0
1.508976095E0,3.374027014E0,7.403439045E0,5.010203362E0,9.554951894E0
1.511421512E0,3.364450693E0,7.413015842E0,5.036538601E0,9.572828914E0
1.513866876E0,3.400362253E0,7.415409565E0,5.038932323E0,9.588618327E0
1.516311512E0,3.405150175E0,7.427380085E0,5.055691242E0,9.608383661E0
1.518756095E0,3.457820415E0,7.432168007E0,5.048508644E0,9.627101476E0
1.521201512E0,3.491338015E0,7.441744804E0,5.053297520E0,9.649084034E0
1.523646876E0,3.510490656E0,7.432168007E0,5.072449684E0,9.658696171E0
1.526091460E0,3.555978298E0,7.420197487E0,5.082026482E0,9.671158439E0
1.528536043E0,3.579919338E0,7.436956882E0,5.074843884E0,9.689075837E0
1.530981460E0,3.584707737E0,7.446532726E0,5.074843884E0,9.698196721E0
1.533426824E0,3.548796177E0,7.441744804E0,5.067661762E0,9.677536658E0
1.535871460E0,3.551190138E0,7.422591686E0,5.105967522E0,9.683838241E0
1.538316043E0,3.508096457E0,7.424986362E0,5.093997002E0,9.663641585E0
1.540761460E0,3.460214376E0,7.456109047E0,5.093997002E0,9.670338727E0
1.543206824E0,3.421908855E0,7.439350605E0,5.070055962E0,9.631140384E0
1.545651408E0,3.385997534E0,7.446532726E0,5.079632282E0,9.629044245E0
1.548095991E0,3.338115454E0,7.460897446E0,5.060479164E0,9.613347744E0
1.550541408E0,3.292627573E0,7.460897446E0,5.029356480E0,9.581274113E0
1.552986824E0,3.237563372E0,7.482444286E0,4.974291801E0,9.550516636E0
1.555431408E0,3.206440210E0,7.472867966E0,4.890498161E0,9.489045617E0
1.557875991E0,3.194469690E0,7.496808529E0,4.849798679E0,9.483001737E0
1.560321408E0,3.187287092E0,7.513567448E0,4.770793438E0,9.453727563E0
1.562766772E0,3.204046011E0,7.525537968E0,4.725306034E0,9.446065300E0
1.565211408E0,3.206440210E0,7.556661129E0,4.643906593E0,9.431344267E0
1.567655991E0,3.213622332E0,7.602149010E0,4.593630314E0,9.445712123E0
1.570101408E0,3.237563372E0,7.626090050E0,4.564900875E0,9.459248703E0
1.572546772E0,3.213622332E0,7.659607887E0,4.564900875E0,9.478147576E0
1.574991356E0,3.213622332E0,7.676366329E0,4.538566113E0,9.479058543E0
1.577435939E0,3.208834171E0,7.702701092E0,4.555325031E0,9.506797936E0
1.579881356E0,3.192075491E0,7.729036808E0,4.593630314E0,9.540901183E0
1.582326720E0,3.139405251E0,7.755371571E0,4.660665035E0,9.577236141E0
1.584771356E0,3.089129210E0,7.757765770E0,4.725306034E0,9.594486236E0
1.587215939E0,3.014912128E0,7.748188972E0,4.797128201E0,9.598779426E0
1.589661356E0,2.959847927E0,7.757765770E0,4.871345997E0,9.626714980E0
1.592106720E0,2.897601366E0,7.760159492E0,4.931198597E0,9.640170570E0
1.594551303E0,2.844931126E0,7.781706810E0,4.981474400E0,9.667661619E0
1.596995887E0,2.775502205E0,7.793677330E0,5.022173882E0,9.678173862E0
1.599441303E0,2.749167204E0,7.791283131E0,5.012597561E0,9.663754314E0
1.601886720E0,2.691708803E0,7.805647850E0,5.010203362E0,9.657927954E0
1.604331303E0,2.655797482E0,7.805647850E0,5.003020763E0,9.644252972E0
1.606775887E0,2.627068281E0,7.800859451E0,4.967109680E0,9.613900067E0
1.609221303E0,2.591156721E0,7.808041573E0,4.935986519E0,9.593933983E0
1.611666668E0,2.579186201E0,7.824800491E0,4.897680759E0,9.584726444E0
1.614111303E0,2.564821720E0,7.808041573E0,4.864163399E0,9.550073781E0
1.616555887E0,2.543274641E0,7.808041573E0,4.840222359E0,9.532130485E0
1.619001303E0,2.540880680E0,7.812829971E0,4.746852398E0,9.488361001E0
1.621446668E0,2.536092520E0,7.803253651E0,4.701364994E0,9.456498592E0
1.623891251E0,2.466663361E0,7.796071053E0,4.686999798E0,9.425026212E0
1.626335835E0,2.473845959E0,7.781706810E0,4.631936073E0,9.387742353E0
1.628781251E0,2.435540199E0,7.767342091E0,4.598418236E0,9.349273206E0
1.631226616E0,2.385264158E0,7.762553692E0,4.593630314E0,9.329960578E0
1.633671251E0,2.368505478E0,7.743401051E0,4.540959835E0,9.283878190E0
1.636115835E0,2.323017597E0,7.755371571E0,4.493077755E0,9.259046747E0
1.638561251E0,2.287106276E0,7.743401051E0,4.421255112E0,9.205357772E0
1.641006616E0,2.251194715E0,7.726642132E0,4.380555153E0,9.162867440E0
1.643451199E0,2.217677116E0,7.748188972E0,4.339855671E0,9.153516886E0
1.645895783E0,2.217677116E0,7.733824730E0,4.320703030E0,9.132284020E0
1.648341199E0,2.217677116E0,7.736218452E0,4.277609348E0,9.114006225E0
1.650786616E0,2.215283155E0,7.762553692E0,4.196209908E0,9.097961138E0
1.653231199E0,2.181765556E0,7.757765770E0,4.121993065E0,9.051732293E0
1.655675783E0,2.212889194E0,7.784100533E0,4.035805225E0,9.043053882E0
1.658121199E0,2.234436035E0,7.796071053E0,3.999893665E0,9.042708531E0
1.660566564E0,2.244012356E0,7.820012093E0,3.947223663E0,9.042607767E0
1.663011199E0,2.277529716E0,7.889441013E0,3.961587906E0,9.117269320E0
1.665455783E0,2.308652878E0,7.930140495E0,3.956799984E0,9.158235228E0
1.667901199E0,2.337382078E0,7.970840931E0,3.992711544E0,9.216257679E0
1.670346564E0,2.375687599E0,8.033086777E0,4.062140465E0,9.309960252E0
1.672791147E0,2.378081799E0,8.107303619E0,4.112416267E0,9.396574513E0
1.675235731E0,2.411599159E0,8.159974098E0,4.196209908E0,9.487316026E0
1.677681147E0,2.440328360E0,8.212644577E0,4.313520908E0,9.592142413E0
1.680126512E0,2.447510719E0,8.289255142E0,4.447590351E0,9.720242768E0
1.682571147E0,2.457087278E0,8.339531898E0,4.567295551E0,9.820654705E0
1.685015731E0,2.464269400E0,8.404171944E0,4.634329796E0,9.908569139E0
1.687461147E0,2.452298880E0,8.468812943E0,4.703758717E0,9.992992971E0
1.689906512E0,2.437934399E0,8.519088745E0,4.754034996E0,1.005580658E1
1.692351147E0,2.413993359E0,8.581335068E0,4.789946556E0,1.011979562E1
1.694795731E0,2.409205198E0,8.607670784E0,4.828251839E0,1.015914769E1
1.697241147E0,2.378081799E0,8.634005547E0,4.856980801E0,1.018781563E1
1.699686512E0,2.349352598E0,8.636399269E0,4.895287037E0,1.020150406E1
1.702131095E0,2.318229437E0,8.605276108E0,4.909651279E0,1.017495161E1
1.704575678E0,2.241618156E0,8.598093987E0,4.873739719E0,1.013436782E1
1.707021095E0,2.174583435E0,8.566970825E0,4.813887596E0,1.006455742E1
1.709466460E0,2.117125273E0,8.533453941E0,4.761217594E0,9.998562325E0
1.711911095E0,2.038120031E0,8.487965584E0,4.744458199E0,9.935259262E0
1.714355678E0,2.002208471E0,8.454447746E0,4.715729237E0,9.885576750E0
1.716801095E0,1.923203349E0,8.413748741E0,4.691788197E0,9.823581602E0
1.719246460E0,1.865744948E0,8.370655060E0,4.665453434E0,9.762956831E0
1.721691095E0,1.834621549E0,8.363471985E0,4.631936073E0,9.734902755E0
1.724135678E0,1.808286548E0,8.332348824E0,4.667847157E0,9.720428706E0
1.726581043E0,1.798710108E0,8.317984581E0,4.631936073E0,9.689120565E0
1.729026460E0,1.772374988E0,8.294043541E0,4.512230873E0,9.606908910E0
1.731471043E0,1.741251826E0,8.296437263E0,4.461955070E0,9.579763684E0
1.733915626E0,1.765192747E0,8.298831940E0,4.445195675E0,9.578427929E0
1.736361043E0,1.784345508E0,8.301225662E0,4.560112953E0,9.637887037E0
1.738806408E0,1.801104188E0,8.337136269E0,4.624753475E0,9.702585334E0
1.741251043E0,1.808286548E0,8.344319344E0,4.684606075E0,9.738742199E0
1.743695626E0,1.815468788E0,8.344319344E0,4.701364994E0,9.748149826E0
1.746141043E0,1.808286548E0,8.370655060E0,4.737276554E0,9.786702995E0
1.748586408E0,1.834621549E0,8.382624626E0,4.734881878E0,9.800680499E0
1.751031043E0,1.772374988E0,8.404171944E0,4.703758717E0,9.792689376E0
1.753475626E0,1.731675267E0,8.430506706E0,4.694182396E0,9.803442810E0
1.755920991E0,1.671822906E0,8.430506706E0,4.686999798E0,9.789606849E0
1.758366408E0,1.597605824E0,8.444871902E0,4.686999798E0,9.789595136E0
1.760810991E0,1.516206384E0,8.416142464E0,4.718123436E0,9.766832881E0
1.763255574E0,1.418048382E0,8.411354065E0,4.754034996E0,9.765376960E0
1.765700991E0,1.346225381E0,8.420930862E0,4.794734478E0,9.783346977E0
1.768146356E0,1.262431979E0,8.394596100E0,4.833039761E0,9.768380189E0
1.770590991E0,1.173850298E0,8.389807701E0,4.828251839E0,9.750836559E0
1.773035574E0,1.113997936E0,8.382624626E0,4.806704998E0,9.726962525E0
1.775480991E0,1.085268617E0,8.385018349E0,4.794734478E0,9.719867252E0
1.777926356E0,1.094845057E0,8.396989822E0,4.754034996E0,9.711280684E0
1.780370991E0,1.123574257E0,8.406565666E0,4.756428719E0,9.724010467E0
1.782815574E0,1.188214898E0,8.430506706E0,4.686999798E0,9.718706965E0
1.785260991E0,1.295949459E0,8.485571861E0,4.600812435E0,9.739193492E0
1.787706356E0,1.346225381E0,8.511906624E0,4.536171913E0,9.738672023E0
1.790150939E0,1.456354022E0,8.571758270E0,4.488289833E0,9.784720359E0
1.792595522E0,1.554512024E0,8.578940392E0,4.447590351E0,9.787532161E0
1.795040939E0,1.611970425E0,8.583729744E0,4.397314072E0,9.778304353E0
1.797486303E0,1.657458305E0,8.607670784E0,4.397314072E0,9.806912634E0
1.799930939E0,1.652670026E0,8.574152946E0,4.390131950E0,9.773467936E0
1.802375522E0,1.628728986E0,8.595699310E0,4.337461948E0,9.764854371E0
1.804820939E0,1.583241105E0,8.583729744E0,4.313520908E0,9.736196965E0
1.807266303E0,1.576058865E0,8.566970825E0,4.327885151E0,9.726640764E0
1.809710939E0,1.499447823E0,8.533453941E0,4.387737751E0,9.711870186E0
1.812155522E0,1.458747983E0,8.533453941E0,4.483501911E0,9.749336964E0
1.814600939E0,1.446777582E0,8.535847664E0,4.543354511E0,9.777317164E0
1.817046303E0,1.398895621E0,8.550211906E0,4.605600834E0,9.811961661E0
1.819490887E0,1.410866141E0,8.514300346E0,4.600812435E0,9.780149729E0
1.821935470E0,1.406077862E0,8.533453941E0,4.591236115E0,9.791646449E0
1.824380887E0,1.406077862E0,8.509512901E0,4.540959835E0,9.747265309E0
1.826826303E0,1.408472061E0,8.514300346E0,4.514625072E0,9.739555610E0
1.829270887E0,1.408472061E0,8.516695023E0,4.476319313E0,9.723956101E0
1.831715470E0,1.391713262E0,8.526270866E0,4.421255112E0,9.704723461E0
1.834160887E0,1.370166421E0,8.507117271E0,4.378161430E0,9.665231389E0
1.836606251E0,1.343831301E0,8.521482468E0,4.330279350E0,9.652609246E0
1.839050887E0,1.300737500E0,8.521482468E0,4.287185192E0,9.627436749E0
1.841495470E0,1.295949459E0,8.540636063E0,4.239303589E0,9.622559133E0
1.843940887E0,1.274402499E0,8.526270866E0,4.260850430E0,9.616456884E0
1.846386251E0,1.250461578E0,8.538241386E0,4.215362549E0,9.603879505E0
1.848830887E0,1.209761739E0,8.578940392E0,4.169874668E0,9.615071318E0
1.851275470E0,1.149909258E0,8.576546669E0,4.040593147E0,9.550174713E0
1.853720835E0,1.123574257E0,8.574152946E0,4.021440506E0,9.536797240E0
1.856166251E0,1.113997936E0,8.586123466E0,4.007076263E0,9.540396625E0
1.858610835E0,1.058933496E0,8.593305588E0,4.040593147E0,9.554717895E0
1.861055418E0,1.039780736E0,8.598093987E0,4.074110985E0,9.571141233E0
1.863500835E0,1.025416136E0,8.634005547E0,4.038199425E0,9.586687886E0
1.865946199E0,1.020628095E0,8.638793945E0,3.952012062E0,9.554519448E0
1.868390835E0,1.008657575E0,8.655552864E0,3.841883183E0,9.523447478E0
1.870835418E0,1.032598495E0,8.662734985E0,3.741331100E0,9.492459928E0
1.873280835E0,1.051751256E0,8.667522430E0,3.674296379E0,9.472728206E0
1.875726199E0,1.078086376E0,8.698645592E0,3.616837978E0,9.482100101E0
1.878170835E0,1.090056896E0,8.681887627E0,3.513891697E0,9.429254035E0
1.880615418E0,1.097239137E0,8.674704552E0,3.365457535E0,9.369137484E0
1.883060835E0,1.106815577E0,8.693858147E0,3.264905453E0,9.352423098E0
1.885506199E0,1.145121217E0,8.657946587E0,3.183506012E0,9.295485583E0
1.887950783E0,1.142727017E0,8.648369789E0,3.159565449E0,9.278091338E0
1.890395366E0,1.137938857E0,8.622035027E0,3.171535969E0,9.257053162E0
1.892840783E0,1.157091618E0,8.605276108E0,3.169141293E0,9.243002458E0
1.895286199E0,1.154697537E0,8.583729744E0,3.214629650E0,9.238375751E0
1.897730783E0,1.178638577E0,8.586123466E0,3.272087574E0,9.263760693E0
1.900175366E0,1.197791338E0,8.605276108E0,3.363063335E0,9.316419697E0
1.902620783E0,1.221732259E0,8.590911865E0,3.446856976E0,9.336874177E0
1.905066147E0,1.209761739E0,8.586123466E0,3.525862217E0,9.360381617E0
1.907510783E0,1.214550018E0,8.605276108E0,3.576138496E0,9.397588796E0
1.909955366E0,1.231308699E0,8.605276108E0,3.624020100E0,9.418090023E0
1.912400783E0,1.212155938E0,8.634005547E0,3.683872700E0,9.465003532E0
1.914846147E0,1.185820818E0,8.605276108E0,3.743725300E0,9.458986575E0
1.917290783E0,1.197791338E0,8.612458229E0,3.813154221E0,9.494697781E0
1.919735366E0,1.173850298E0,8.607670784E0,3.839489460E0,9.497978741E0
1.922180731E0,1.145121217E0,8.612458229E0,3.882583141E0,9.516311848E0
1.924626147E0,1.063721776E0,8.590911865E0,3.959194183E0,9.518954211E0
1.927070731E0,9.966870546E-1,8.571758270E0,4.009469986E0,9.515475527E0
1.929515314E0,9.368345737E-1,8.552605629E0,4.093263626E0,9.527829195E0
1.931960731E0,8.745880127E-1,8.519088745E0,4.181845188E0,9.530351852E0
1.934406095E0,7.812181711E-1,8.504723549E0,4.260850430E0,9.544394735E0
1.936850731E0,7.117892504E-1,8.478388786E0,4.375767231E0,9.567500155E0
1.939295314E0,6.399662495E-1,8.452054024E0,4.459560871E0,9.577810668E0
1.941740731E0,5.753256083E-1,8.432900429E0,4.526595592E0,9.588267667E0
1.944186095E0,5.250495672E-1,8.440083504E0,4.603206158E0,9.628093972E0
1.946630731E0,4.747734368E-1,8.387413025E0,4.634329796E0,9.594327476E0
1.949075314E0,4.436502159E-1,8.389807701E0,4.679817677E0,9.616984572E0
1.951520731E0,4.580147564E-1,8.375442505E0,4.694182396E0,9.612136237E0
1.953966095E0,4.412560761E-1,8.349107742E0,4.746852398E0,9.614307812E0
1.956410678E0,4.149210155E-1,8.339531898E0,4.746852398E0,9.604819593E0
1.958855314E0,4.508325160E-1,8.315589905E0,4.773188114E0,9.598729614E0
1.961300731E0,4.460442364E-1,8.308407784E0,4.782763958E0,9.597053008E0
1.963746095E0,4.340738356E-1,8.294043541E0,4.773188114E0,9.579295544E0
1.966190678E0,4.388619959E-1,8.286861420E0,4.766005516E0,9.569716852E0
1.968635262E0,4.197091758E-1,8.260525703E0,4.761217594E0,9.543669822E0
1.971080678E0,4.053446352E-1,8.267707825E0,4.749247074E0,9.543303659E0
1.973526043E0,3.718272150E-1,8.260525703E0,4.751640797E0,9.536908862E0
1.975970678E0,3.502803743E-1,8.270102501E0,4.763611317E0,9.550355202E0
1.978415262E0,3.430980146E-1,8.282073021E0,4.730093956E0,9.543806295E0
1.980860678E0,3.167629540E-1,8.289255142E0,4.720517159E0,9.544389547E0
1.983306043E0,3.023983538E-1,8.291648865E0,4.708547115E0,9.540089182E0
1.985750678E0,2.832455635E-1,8.308407784E0,4.694182396E0,9.547000383E0
1.988195262E0,2.353636026E-1,8.301225662E0,4.689394474E0,9.537094110E0
1.990640678E0,2.138167024E-1,8.298831940E0,4.617571354E0,9.499383893E0
1.993086043E0,1.779052317E-1,8.277284622E0,4.564900875E0,9.454280035E0
1.995530678E0,1.587524414E-1,8.279678345E0,4.493077755E0,9.421572244E0
1.997975262E0,1.348114312E-1,8.284466743E0,4.426043510E0,9.393637448E0
2.000420626E0,1.156586707E-1,8.279678345E0,4.373373508E0,9.364445860E0
2.002866043E0,1.228409410E-1,8.250949860E0,4.294367790E0,9.302411419E0
2.005310626E0,1.348114312E-1,8.282073021E0,4.208180428E0,9.290839045E0
2.007755210E0,1.539642215E-1,8.272496223E0,4.143539906E0,9.253476195E0
2.010200626E0,1.443878412E-1,8.255737305E0,4.064534187E0,9.203177954E0
2.012645991E0,1.539642215E-1,8.270102501E0,4.011864185E0,9.193114521E0
2.015090626E0,1.731170416E-1,8.277284622E0,3.992711544E0,9.191580697E0
2.017535210E0,1.922698319E-1,8.303619385E0,3.990317345E0,9.214645684E0
2.019980626E0,1.898757219E-1,8.284466743E0,4.007076263E0,9.204623957E0
2.022425991E0,1.802993119E-1,8.308407784E0,4.004682064E0,9.224945863E0
2.024870626E0,1.683288217E-1,8.344319344E0,4.023834705E0,9.265378872E0
2.027315210E0,1.228409410E-1,8.332348824E0,4.095657825E0,9.285340050E0
2.029760626E0,1.252350807E-1,8.329955101E0,4.143539906E0,9.304448332E0
2.032205991E0,5.820028484E-2,8.339531898E0,4.215362549E0,9.344541775E0
2.034650626E0,3.136023879E-3,8.334742546E0,4.263244152E0,9.361794371E0
2.037095210E0,-5.911055207E-2,8.327560425E0,4.366190910E0,9.402945270E0
2.039540626E0,-1.022043228E-1,8.349107742E0,4.433225155E0,9.453651733E0
2.041985991E0,-1.572685987E-1,8.334742546E0,4.505048275E0,9.475659696E0
2.044430574E0,-1.907859743E-1,8.334742546E0,4.576871395E0,9.510630072E0
2.046875158E0,-2.123328745E-1,8.344319344E0,4.634329796E0,9.547238512E0
2.049320574E0,-2.697912455E-1,8.317984581E0,4.658270836E0,9.537355083E0
2.051765991E0,-2.650030255E-1,8.317984581E0,4.684606075E0,9.550111422E0
2.054210574E0,-3.272495866E-1,8.313196182E0,4.694182396E0,9.552574073E0
2.056655158E0,-3.511905968E-1,8.315589905E0,4.698970318E0,9.557860239E0
2.059100574E0,-3.679493070E-1,8.301225662E0,4.734881878E0,9.563725246E0
2.061545939E0,-4.062548876E-1,8.325166702E0,4.732487679E0,9.584877844E0
2.063990574E0,-4.230135679E-1,8.284466743E0,4.749247074E0,9.558591814E0
2.066435158E0,-4.445604682E-1,8.294043541E0,4.756428719E0,9.571437009E0
2.068880574E0,-4.780778289E-1,8.303619385E0,4.744458199E0,9.575413145E0
2.071325939E0,-4.828660190E-1,8.291648865E0,4.749247074E0,9.567651136E0
2.073770574E0,-4.996246994E-1,8.294043541E0,4.761217594E0,9.576532571E0
2.076215158E0,-5.068070292E-1,8.296437263E0,4.801917076E0,9.599277694E0
2.078660574E0,-5.044128895E-1,8.272496223E0,4.840222359E0,9.597727784E0
2.081105939E0,-4.661073387E-1,8.258131981E0,4.830646038E0,9.578577191E0
2.083550522E0,-4.685014188E-1,8.260525703E0,4.804310799E0,9.567506505E0
2.085995158E0,-4.254076779E-1,8.234190941E0,4.792340279E0,9.536739353E0
2.088440574E0,-3.990725875E-1,8.253343582E0,4.792340279E0,9.552144501E0
2.090885939E0,-3.775256872E-1,8.255737305E0,4.785157681E0,9.549736023E0
2.093330522E0,-3.368260264E-1,8.236585617E0,4.780369759E0,9.529256499E0
2.095775106E0,-3.200672865E-1,8.248556137E0,4.782763958E0,9.540228115E0
2.098220522E0,-2.769735456E-1,8.231796265E0,4.799522877E0,9.532817209E0
2.100665939E0,-2.602148354E-1,8.234190941E0,4.806704998E0,9.538030465E0
2.103110522E0,-2.458502501E-1,8.238979340E0,4.818675518E0,9.547819471E0
2.105555106E0,-2.243033648E-1,8.231796265E0,4.868951321E0,9.566580826E0
2.108000522E0,-2.314856648E-1,8.243766785E0,4.914439201E0,9.600259844E0
2.110445887E0,-2.362738550E-1,8.250949860E0,4.924015999E0,9.611447991E0
2.112890522E0,-2.195151746E-1,8.260525703E0,4.940774441E0,9.627861854E0
2.115335106E0,-1.907859743E-1,8.282073021E0,4.931198597E0,9.640842931E0
2.117780522E0,-1.812095940E-1,8.303619385E0,4.890498161E0,9.638459632E0
2.120225887E0,-1.812095940E-1,8.317984581E0,4.871345997E0,9.641147039E0
2.122670522E0,-1.476922035E-1,8.322772980E0,4.840222359E0,9.629024641E0
2.125115106E0,-1.357217133E-1,8.344319344E0,4.849798679E0,9.652286409E0
2.127560522E0,-1.165689230E-1,8.358683586E0,4.852192879E0,9.665658557E0
2.130005887E0,-1.022043228E-1,8.385018349E0,4.852192879E0,9.688279216E0
2.132450522E0,-1.045984328E-1,8.392201424E0,4.782763958E0,9.659959454E0
2.134895106E0,-9.981022775E-2,8.396989822E0,4.744458199E0,9.645168934E0
2.137340470E0,-1.022043228E-1,8.413748741E0,4.713335514E0,9.644539661E0
2.139785887E0,-9.981022775E-2,8.416142464E0,4.686999798E0,9.633762669E0
2.142230470E0,-1.333276033E-1,8.454447746E0,4.694182396E0,9.671132887E0
2.144675053E0,-1.357217133E-1,8.454447746E0,4.694182396E0,9.671166188E0
2.147120470E0,-1.548745036E-1,8.459236145E0,4.727699757E0,9.691945484E0
2.149565835E0,-1.883918792E-1,8.456841469E0,4.734881878E0,9.693955102E0
2.152010470E0,-2.123328745E-1,8.478388786E0,4.775581837E0,9.733156915E0
2.154455053E0,-2.434561551E-1,8.497541428E0,4.766005516E0,9.745885788E0
2.156900470E0,-2.626089454E-1,8.511906624E0,4.770793438E0,9.761249298E0
2.159345835E0,-2.650030255E-1,8.526270866E0,4.768399239E0,9.772673779E0
2.161790470E0,-2.602148354E-1,8.543029785E0,4.773188114E0,9.789504300E0
2.164235053E0,-2.554266453E-1,8.552605629E0,4.768399239E0,9.795403877E0
2.166680470E0,-2.290915549E-1,8.547817230E0,4.751640797E0,9.782420590E0
2.169125835E0,-2.147269696E-1,8.550211906E0,4.744458199E0,9.780701146E0
2.171570470E0,-2.362738550E-1,8.550211906E0,4.713335514E0,9.766139496E0
2.174015053E0,-2.051505744E-1,8.547817230E0,4.698970318E0,9.756412671E0
2.176460470E0,-1.883918792E-1,8.554999352E0,4.794734478E0,9.808821750E0
2.178905835E0,-1.620568037E-1,8.526270866E0,4.847404957E0,9.809224848E0
2.181350418E0,-1.429040134E-1,8.550211906E0,4.351826191E0,9.595047493E0
2.183795001E0,-1.907859743E-1,8.514300346E0,5.050902843E0,9.901582157E0
2.186240418E0,-1.812095940E-1,8.528664589E0,4.509836674E0,9.649330723E0
2.188685835E0,-2.362738550E-1,8.478388786E0,4.986262321E0,9.838786190E0
2.191130418E0,-2.458502501E-1,8.509512901E0,4.739670277E0,9.743547942E0
2.193575001E0,-2.865499258E-1,8.485571861E0,4.852192879E0,9.779101002E0
2.196020418E0,-2.961263359E-1,8.483176231E0,5.012597561E0,9.857895520E0
2.198465783E0,-3.320378065E-1,8.485571861E0,4.710940838E0,9.711237949E0
2.200910418E0,-3.320378065E-1,8.475995064E0,5.223278522E0,9.961695636E0
2.203355001E0,-3.080968261E-1,8.521482468E0,4.658270836E0,9.716484667E0
2.205800418E0,-3.128850460E-1,8.511906624E0,5.256795406E0,1.000921322E1
2.208245783E0,-2.913381159E-1,8.526270866E0,4.672635555E0,9.727059978E0
2.210690418E0,-2.937322259E-1,8.504723549E0,5.091602802E0,9.916704108E0
2.213135001E0,-2.697912455E-1,8.545423508E0,4.746852398E0,9.779041769E0
2.215580418E0,-2.769735456E-1,8.543029785E0,4.809098721E0,9.807522764E0
2.218025783E0,-2.817617357E-1,8.543029785E0,4.859375477E0,9.832409553E0
2.220470418E0,-2.745794356E-1,8.576546669E0,4.478713512E0,9.679432905E0
2.222915001E0,-2.793676257E-1,8.586123466E0,4.935986519E0,9.907750772E0
2.225360418E0,-2.769735456E-1,8.602881432E0,4.323096752E0,9.632001287E0
2.227805783E0,-3.080968261E-1,8.581335068E0,4.912045479E0,9.892543959E0
2.230275158E0,-3.080968261E-1,8.581335068E0,4.912045479E0,9.892543959E0
2.232767866E0,-3.080968261E-1,8.581335068E0,4.912045479E0,9.892543959E0
2.235258647E0,-3.080968261E-1,8.581335068E0,4.912045479E0,9.892543959E0
2.237747553E0,-3.080968261E-1,8.581335068E0,4.912045479E0,9.892543959E0
2.240234793E0,-2.530325651E-1,8.701039314E0,4.095657825E0,9.620110376E0
2.242720366E0,-2.913381159E-1,8.677098274E0,4.605600834E0,9.827943396E0
2.245204324E0,-2.745794356E-1,8.729769707E0,4.330279350E0,9.748620018E0
2.247686772E0,-2.937322259E-1,8.698645592E0,4.272820950E0,9.695860592E0
2.250167762E0,-2.841558456E-1,8.710617065E0,4.624753475E0,9.866303204E0
2.252647449E0,-2.506384552E-1,8.744133949E0,4.014258385E0,9.624810052E0
2.255125887E0,-3.176732063E-1,8.720192909E0,4.552930355E0,9.842350098E0
2.257603074E0,-2.865499258E-1,8.760892868E0,4.208180428E0,9.723380956E0
2.260079116E0,-3.009145260E-1,8.744133949E0,4.236909389E0,9.721205134E0
2.262554116E0,-3.057027459E-1,8.751316071E0,4.512230873E0,9.850848420E0
2.265028022E0,-3.033086061E-1,8.760892868E0,3.968770504E0,9.622701246E0
2.267500991E0,-3.224614263E-1,8.741739273E0,4.548142433E0,9.859390776E0
2.269972970E0,-2.985204458E-1,8.777651787E0,4.124386787E0,9.702930058E0
2.272444064E0,-3.224614263E-1,8.758499146E0,4.287185192E0,9.756805088E0
2.274914272E0,-3.152791262E-1,8.775257111E0,4.531383991E0,9.881193205E0
2.277383699E0,-3.080968261E-1,8.772862434E0,4.200997829E0,9.731722443E0
2.279852345E0,-3.009145260E-1,8.765680313E0,4.414072990E0,9.818948073E0
2.282320314E0,-3.080968261E-1,8.760892868E0,4.428437233E0,9.821365680E0
2.284787553E0,-3.152791262E-1,8.772862434E0,4.452378273E0,9.843078203E0
2.287254168E0,-3.296437263E-1,8.775257111E0,4.483501911E0,9.859796739E0
2.289720158E0,-3.464024067E-1,8.782439232E0,4.528989315E0,9.887516256E0
2.292185626E0,-3.392201066E-1,8.787227631E0,4.521807194E0,9.888234423E0
2.294650522E0,-3.057027459E-1,8.775257111E0,4.569689274E0,9.898517646E0
2.297114845E0,-2.961263359E-1,8.775257111E0,4.607995033E0,9.915969261E0
2.299578595E0,-2.865499258E-1,8.760892868E0,4.634329796E0,9.915259319E0
2.302041876E0,-2.626089454E-1,8.780045509E0,4.636723995E0,9.932641744E0
2.304504689E0,-2.554266453E-1,8.784833908E0,4.643906593E0,9.940041147E0
2.306967085E0,-2.266974598E-1,8.765680313E0,4.639117718E0,9.920179247E0
2.309429012E0,-1.716331840E-1,8.775257111E0,4.634329796E0,9.925301404E0
2.311890522E0,-1.620568037E-1,8.768074989E0,4.627147198E0,9.915437086E0
2.314351668E0,-1.572685987E-1,8.751316071E0,4.610388756E0,9.892722116E0
2.316812449E0,-1.452981085E-1,8.727375984E0,4.584053993E0,9.859094995E0
2.319263803E0,-1.524803936E-1,8.713010788E0,4.557718754E0,9.834256835E0
2.321686824E0,-1.357217133E-1,8.689069748E0,4.581659794E0,9.823948286E0
2.324091408E0,-1.333276033E-1,8.667522430E0,4.584053993E0,9.805981457E0
2.326496408E0,-1.596626937E-1,8.650763512E0,4.622359276E0,9.809556911E0
2.328901356E0,-1.548745036E-1,8.657946587E0,4.612782955E0,9.811309383E0
2.331306512E0,-1.883918792E-1,8.624428749E0,4.631936073E0,9.791378582E0
2.333711095E0,-2.266974598E-1,8.600487709E0,4.641512394E0,9.775654345E0
2.336115783E0,-2.458502501E-1,8.586123466E0,4.612782955E0,9.749857697E0
2.338521408E0,-2.985204458E-1,8.576546669E0,4.605600834E0,9.739498255E0
2.340926616E0,-3.272495866E-1,8.566970825E0,4.552930355E0,9.707175502E0
2.343331043E0,-3.464024067E-1,8.571758270E0,4.538566113E0,9.705339604E0
2.345736043E0,-3.464024067E-1,8.586123466E0,4.531383991E0,9.714677127E0
2.348141356E0,-4.038607776E-1,8.586123466E0,4.543354511E0,9.722483732E0
2.350546981E0,-3.990725875E-1,8.600487709E0,4.531383991E0,9.729393025E0
2.352952397E0,-4.349840581E-1,8.607670784E0,4.521807194E0,9.732828353E0
2.355357501E0,-4.397722483E-1,8.622035027E0,4.514625072E0,9.742418959E0
2.357763439E0,-4.278017581E-1,8.638793945E0,4.505048275E0,9.752293840E0
2.360168751E0,-4.182253778E-1,8.669917107E0,4.521807194E0,9.787191395E0
2.362573439E0,-4.134371877E-1,8.691463470E0,4.473925591E0,9.784093098E0
2.364978491E0,-4.182253778E-1,8.722586632E0,4.481107235E0,9.815230617E0
2.367383803E0,-4.373781383E-1,8.741739273E0,4.471531391E0,9.828728205E0
2.369789533E0,-3.966784775E-1,8.751316071E0,4.469136715E0,9.834432864E0
2.372194845E0,-4.014666677E-1,8.775257111E0,4.485896111E0,9.863547879E0
2.374599741E0,-4.301958680E-1,8.813562393E0,4.483501911E0,9.897764391E0
2.377005158E0,-4.254076779E-1,8.837503433E0,4.500260353E0,9.926468751E0
2.379410366E0,-4.230135679E-1,8.847079277E0,4.557718754E0,9.961051774E0
2.381815262E0,-4.517427385E-1,8.854262352E0,4.576871395E0,9.977463859E0
2.384220366E0,-4.708955288E-1,8.859050751E0,4.607995033E0,9.996906573E0
2.386625626E0,-4.708955288E-1,8.854262352E0,4.600812435E0,9.989353305E0
2.389031408E0,-4.948365390E-1,8.847079277E0,4.629541874E0,9.997416311E0
2.391436720E0,-4.924424291E-1,8.854262352E0,4.619965553E0,9.999227123E0
2.393841512E0,-4.876542091E-1,8.849474907E0,4.612782955E0,9.991435300E0
2.396247033E0,-4.756837487E-1,8.847079277E0,4.603206158E0,9.984317387E0
2.398652501E0,-4.445604682E-1,8.849474907E0,4.612782955E0,9.989424745E0
2.401057449E0,-4.421663284E-1,8.823138237E0,4.569689274E0,9.946121831E0
2.403462397E0,-4.062548876E-1,8.818350792E0,4.531383991E0,9.922791674E0
2.405867449E0,-3.727374971E-1,8.813562393E0,4.464348793E0,9.886770223E0
2.408273126E0,-3.631610870E-1,8.801592827E0,4.430831432E0,9.860638389E0
2.410678387E0,-3.272495866E-1,8.808774948E0,4.375767231E0,9.841186272E0
2.413083126E0,-2.769735456E-1,8.794409752E0,4.351826191E0,9.816147331E0
2.415488803E0,-2.745794356E-1,8.787227631E0,4.327885151E0,9.799048585E0
2.417894116E0,-2.482443452E-1,8.753710747E0,4.308732510E0,9.759828530E0
2.420299116E0,-2.338797599E-1,8.744133949E0,4.306338310E0,9.749827071E0
2.422704481E0,-2.219092548E-1,8.708222389E0,4.303944588E0,9.716291469E0
2.425109481E0,-2.338797599E-1,8.701039314E0,4.347037792E0,9.729312538E0
2.427514741E0,-2.147269696E-1,8.660340309E0,4.375767231E0,9.705407812E0
2.429919793E0,-2.338797599E-1,8.665128708E0,4.433225155E0,9.736151218E0
2.432324637E0,-2.482443452E-1,8.631611824E0,4.469136715E0,9.723144086E0
2.434730314E0,-2.386679649E-1,8.645976067E0,4.502654552E0,9.751090327E0
2.437135522E0,-2.219092548E-1,8.667522430E0,4.514625072E0,9.775327531E0
2.439540314E0,-2.434561551E-1,8.653157234E0,4.545748234E0,9.777536910E0
2.441945470E0,-2.219092548E-1,8.653157234E0,4.572083473E0,9.789296253E0
2.444350626E0,-2.219092548E-1,8.674704552E0,4.636723995E0,9.838645851E0
2.446756356E0,-2.195151746E-1,8.660340309E0,4.701364994E0,9.856597485E0
2.449161564E0,-2.290915549E-1,8.643581390E0,4.730093956E0,9.855849584E0
2.451566303E0,-2.578207254E-1,8.672310829E0,4.751640797E0,9.892094667E0
2.453971772E0,-2.697912455E-1,8.667522430E0,4.737276554E0,9.881321852E0
2.456376876E0,-2.578207254E-1,8.691463470E0,4.749247074E0,9.907742253E0
2.458781668E0,-2.937322259E-1,8.691463470E0,4.739670277E0,9.904155199E0
2.461186876E0,-3.176732063E-1,8.715404510E0,4.732487679E0,9.922481125E0
2.463592033E0,-3.248555064E-1,8.717798233E0,4.682211876E0,9.900941631E0
2.465997762E0,-3.392201066E-1,8.732163429E0,4.667847157E0,9.907297589E0
2.468403126E0,-3.224614263E-1,8.765680313E0,4.641512394E0,9.923949316E0
2.470807866E0,-2.841558456E-1,8.777651787E0,4.612782955E0,9.919963812E0
2.473213439E0,-2.434561551E-1,8.784833908E0,4.634329796E0,9.935270019E0
2.475618491E0,-1.979682744E-1,8.813562393E0,4.615176678E0,9.950775310E0
2.478022918E0,-1.692390889E-1,8.832715988E0,4.581659794E0,9.951739550E0
2.480428074E0,-1.069925278E-1,8.861444473E0,4.572083473E0,9.971990415E0
2.482833387E0,-8.065743744E-2,8.863839149E0,4.615176678E0,9.993698307E0
2.485239064E0,-8.065743744E-2,8.851868629E0,4.624753475E0,9.987513633E0
2.487644428E0,-4.474595189E-2,8.842291832E0,4.639117718E0,9.985466451E0
2.490049220E0,-6.868694723E-2,8.851868629E0,4.663058758E0,1.000521929E1
2.492454533E0,-1.093866229E-1,8.818350792E0,4.715729237E0,1.000066890E1
2.494859428E0,-1.381158084E-1,8.799198151E0,4.761217594E0,1.000570622E1
2.497264272E0,-1.883918792E-1,8.772862434E0,4.749247074E0,9.977672803E0
2.499669741E0,-2.075446695E-1,8.768074989E0,4.761217594E0,9.979549428E0
2.502075210E0,-2.458502501E-1,8.734558105E0,4.775581837E0,9.957867720E0
2.504481043E0,-2.697912455E-1,8.703434944E0,4.780369759E0,9.933504023E0
2.506886251E0,-2.673971355E-1,8.708222389E0,4.816281319E0,9.954958772E0
2.509291095E0,-2.721853256E-1,8.703434944E0,4.809098721E0,9.947426561E0
2.511696668E0,-2.578207254E-1,8.708222389E0,4.845010281E0,9.968637486E0
2.514101824E0,-2.386679649E-1,8.701039314E0,4.777976036E0,9.929456307E0
2.516506668E0,-2.266974598E-1,8.710617065E0,4.792340279E0,9.944484237E0
2.518912033E0,-2.386679649E-1,8.717798233E0,4.739670277E0,9.925796833E0
2.521317553E0,-1.788154840E-1,8.736951828E0,4.708547115E0,9.926566282E0
2.523723491E0,-1.620568037E-1,8.763286591E0,4.686999798E0,9.939286764E0
2.526128908E0,-1.429040134E-1,8.775257111E0,4.682211876E0,9.947294455E0
2.528533960E0,-1.237512156E-1,8.811168671E0,4.643906593E0,9.960817042E0
2.530939741E0,-8.544563502E-2,8.818350792E0,4.610388756E0,9.951195713E0
2.533344949E0,-6.389874220E-2,8.842291832E0,4.600812435E0,9.967832410E0
2.535749845E0,-4.474595189E-2,8.887779236E0,4.574477196E0,9.996022387E0
2.538155366E0,-2.080495656E-2,8.911720276E0,4.543354511E0,1.000306260E1
2.540561043E0,7.924214005E-3,8.926085472E0,4.517018795E0,1.000392540E1
2.542967033E0,1.989470422E-2,8.969179153E0,4.540959835E0,1.005320281E1
2.545372710E0,2.947109938E-2,8.978755951E0,4.531383991E0,1.005745335E1
2.547778126E0,3.904750943E-2,8.995514870E0,4.557718754E0,1.008432510E1
2.550184012E0,5.820028484E-2,8.971573830E0,4.603206158E0,1.008375085E1
2.552589428E0,6.298848987E-2,8.966784477E0,4.651088238E0,1.010147579E1
2.554994376E0,5.101798475E-2,8.947632790E0,4.696576595E0,1.010547214E1
2.557399689E0,3.665339947E-2,8.942843437E0,4.749247074E0,1.012576614E1
2.559805053E0,6.298848987E-2,8.923691750E0,4.828251839E0,1.014634209E1
2.562210835E0,7.256488502E-2,8.882991791E0,4.885710239E0,1.013819379E1
2.564616408E0,5.580618978E-2,8.856657028E0,4.935986519E0,1.013940092E1
2.567021668E0,6.059437990E-2,8.803986549E0,4.988656521E0,1.011931543E1
2.569427606E0,7.017078996E-2,8.789621353E0,5.031750202E0,1.012822184E1
2.571833022E0,6.298848987E-2,8.775257111E0,5.089209080E0,1.014441491E1
2.574237866E0,7.256488502E-2,8.739345551E0,5.093997002E0,1.011584064E1
2.576643022E0,1.012940705E-1,8.717798233E0,5.098784924E0,1.009989476E1
2.579048126E0,1.012940705E-1,8.681887627E0,5.079632282E0,1.005922946E1
2.581453543E0,1.084763408E-1,8.696251869E0,5.065268040E0,1.006446740E1
2.583858543E0,1.108704805E-1,8.696251869E0,5.050902843E0,1.005727142E1
2.586263387E0,1.252350807E-1,8.689069748E0,5.022173882E0,1.003682457E1
2.588669168E0,1.300232708E-1,8.684281349E0,5.026961803E0,1.003513795E1
2.591074428E0,1.276291609E-1,8.701039314E0,4.991050243E0,1.003169761E1
2.593479220E0,1.156586707E-1,8.724980354E0,4.947957039E0,1.003099885E1
2.595884533E0,1.228409410E-1,8.729769707E0,4.919228077E0,1.002111640E1
2.598289845E0,1.180527508E-1,8.744133949E0,4.892892361E0,1.002068913E1
2.600695366E0,1.084763408E-1,8.756104469E0,4.885710239E0,1.002752697E1
2.603100366E0,1.108704805E-1,8.770468712E0,4.840222359E0,1.001804203E1
2.605505001E0,8.692947030E-2,8.789621353E0,4.816281319E0,1.002305173E1
2.607910574E0,8.453539014E-2,8.765680313E0,4.794734478E0,9.991685358E0
2.610315783E0,8.692947030E-2,8.808774948E0,4.761217594E0,1.001355410E1
2.612720939E0,1.108704805E-1,8.801592827E0,4.746852398E0,1.000064679E1
2.615126512E0,1.060822606E-1,8.830321312E0,4.684606075E0,9.996567511E0
2.617531408E0,1.443878412E-1,8.818350792E0,4.653482914E0,9.971913646E0
2.619936720E0,1.539642215E-1,8.799198151E0,4.636723995E0,9.947301266E0
2.622342137E0,1.755111217E-1,8.787227631E0,4.636723995E0,9.937071148E0
2.624747085E0,1.683288217E-1,8.787227631E0,4.622359276E0,9.930252227E0
2.627152553E0,1.874816418E-1,8.765680313E0,4.646300316E0,9.922721771E0
2.629557918E0,2.090285122E-1,8.744133949E0,4.641512394E0,9.901879051E0
2.631962866E0,2.233931124E-1,8.715404510E0,4.643906593E0,9.877957720E0
2.634368074E0,1.922698319E-1,8.696251869E0,4.631936073E0,9.854775292E0
2.636773126E0,1.731170416E-1,8.653157234E0,4.622359276E0,9.811896091E0
2.639178543E0,1.276291609E-1,8.614852905E0,4.576871395E0,9.756010022E0
2.641583439E0,8.453539014E-2,8.564577103E0,4.552930355E0,9.699912474E0
2.643988022E0,2.947109938E-2,8.528664589E0,4.540959835E0,9.662261870E0
2.646393647E0,-4.714005440E-2,8.487965584E0,4.528989315E0,9.620786150E0
2.648798803E0,-1.117807254E-1,8.454447746E0,4.512230873E0,9.583861908E0
2.651203595E0,-1.692390889E-1,8.406565666E0,4.488289833E0,9.531197920E0
2.653608803E0,-2.458502501E-1,8.399383545E0,4.457166195E0,9.511909207E0
2.656013908E0,-2.865499258E-1,8.368260384E0,4.438014030E0,9.476595446E0
2.658419428E0,-3.416141868E-1,8.351501465E0,4.421255112E0,9.455779911E0
2.660824793E0,-3.631610870E-1,8.337136269E0,4.382949352E0,9.426026319E0
2.663229793E0,-3.559787869E-1,8.361077309E0,4.390131950E0,9.450269478E0
2.665635783E0,-3.751316071E-1,8.375442505E0,4.342249870E0,9.441604462E0
2.668041408E0,-3.751316071E-1,8.416142464E0,4.303944588E0,9.460238724E0
2.670446303E0,-3.224614263E-1,8.452054024E0,4.294367790E0,9.485926065E0
2.672851668E0,-2.793676257E-1,8.468812943E0,4.256062508E0,9.482241665E0
2.675257397E0,-2.314856648E-1,8.507117271E0,4.265638828E0,9.519469759E0
2.677663491E0,-1.931800842E-1,8.550211906E0,4.251274109E0,9.550747287E0
2.680069064E0,-1.644508988E-1,8.610064507E0,4.251274109E0,9.603831863E0
2.682474324E0,-1.500862986E-1,8.629217148E0,4.251274109E0,9.620771592E0
2.684880158E0,-1.261453182E-1,8.657946587E0,4.258456230E0,9.649373099E0
2.687285314E0,-1.069925278E-1,8.698645592E0,4.280003548E0,9.695169565E0
2.689690001E0,-1.285394132E-1,8.693858147E0,4.323096752E0,9.710244970E0
2.692095314E0,-1.237512156E-1,8.710617065E0,4.378161430E0,9.749792897E0
2.694500939E0,-1.596626937E-1,8.722586632E0,4.404496193E0,9.772849965E0
2.696906876E0,-1.429040134E-1,8.720192909E0,4.459560871E0,9.795400405E0
2.699312241E0,-1.955741793E-1,8.741739273E0,4.485896111E0,9.827487914E0
2.701717293E0,-2.003623843E-1,8.713010788E0,4.500260353E0,9.808620969E0
2.704123074E0,-2.099387646E-1,8.708222389E0,4.519413471E0,9.813374017E0
2.706528595E0,-2.266974598E-1,8.693858147E0,4.555325031E0,9.817614138E0
2.708933803E0,-2.458502501E-1,8.684281349E0,4.555325031E0,9.809595865E0
2.711339116E0,-2.769735456E-1,8.653157234E0,4.528989315E0,9.770649348E0
2.713744428E0,-2.769735456E-1,8.643581390E0,4.490684032E0,9.744457742E0
2.716150158E0,-3.176732063E-1,8.629217148E0,4.473925591E0,9.725241130E0
2.718555470E0,-3.200672865E-1,8.624428749E0,4.466742992E0,9.717767608E0
2.720960210E0,-3.224614263E-1,8.600487709E0,4.478713512E0,9.702125794E0
2.723365678E0,-3.009145260E-1,8.602881432E0,4.485896111E0,9.706872946E0
2.725771043E0,-2.745794356E-1,8.617246628E0,4.533777714E0,9.741020155E0
2.728176043E0,-2.769735456E-1,8.619640350E0,4.538566113E0,9.745434648E0
2.730581356E0,-2.506384552E-1,8.631611824E0,4.555325031E0,9.763120836E0
2.732986616E0,-2.434561551E-1,8.631611824E0,4.584053993E0,9.776376864E0
2.735392241E0,-2.075446695E-1,8.655552864E0,4.615176678E0,9.811295834E0
2.737797553E0,-1.907859743E-1,8.660340309E0,4.639117718E0,9.826459523E0
2.740202710E0,-1.596626937E-1,8.655552864E0,4.660665035E0,9.831881108E0
2.742608647E0,-1.141748205E-1,8.681887627E0,4.675029278E0,9.861242690E0
2.745014064E0,-1.093866229E-1,8.703434944E0,4.706152916E0,9.894929031E0
2.747418856E0,-8.544563502E-2,8.677098274E0,4.706152916E0,9.871535376E0
2.749824168E0,-6.868694723E-2,8.708222389E0,4.715729237E0,9.903330617E0
2.752229689E0,-1.841086149E-2,8.703434944E0,4.701364994E0,9.892065082E0
2.754635783E0,3.136023879E-3,8.703434944E0,4.684606075E0,9.884094483E0
2.757041303E0,2.707700431E-2,8.691463470E0,4.682211876E0,9.872455544E0
2.759446356E0,8.692947030E-2,8.710617065E0,4.658270836E0,9.878354801E0
2.761852345E0,1.060822606E-1,8.715404510E0,4.651088238E0,9.879380093E0
2.764257606E0,1.228409410E-1,8.727375984E0,4.670241356E0,9.899158337E0
2.766662501E0,1.611465514E-1,8.708222389E0,4.677423954E0,9.886222749E0
2.769067918E0,1.994521022E-1,8.724980354E0,4.701364994E0,9.913016500E0
2.771473231E0,2.114225924E-1,8.710617065E0,4.698970318E0,9.899488432E0
2.773879168E0,2.257871926E-1,8.713010788E0,4.701364994E0,9.903048503E0
2.776284793E0,2.521222830E-1,8.713010788E0,4.694182396E0,9.900276309E0
2.778689949E0,2.593045831E-1,8.727375984E0,4.670241356E0,9.901791997E0
2.781095835E0,2.688809633E-1,8.720192909E0,4.646300316E0,9.884440701E0
2.783501147E0,2.616986930E-1,8.724980354E0,4.634329796E0,9.882852880E0
2.785906043E0,2.377576828E-1,8.722586632E0,4.619965553E0,9.873405085E0
2.788311303E0,1.994521022E-1,8.715404510E0,4.624753475E0,9.868454875E0
2.790716772E0,1.300232708E-1,8.696251869E0,4.629541874E0,9.852632165E0
2.793122606E0,7.256488502E-2,8.645976067E0,4.617571354E0,9.802047389E0
2.795528126E0,1.031832397E-2,8.648369789E0,4.596024513E0,9.793765762E0
2.797933335E0,-6.629284471E-2,8.617246628E0,4.584053993E0,9.760885472E0
2.800339012E0,-1.788154840E-1,8.610064507E0,4.560112953E0,9.744732727E0
2.802744272E0,-2.673971355E-1,8.593305588E0,4.550536156E0,9.727475595E0
2.805149116E0,-3.440083265E-1,8.581335068E0,4.528989315E0,9.709242890E0
2.807554428E0,-4.038607776E-1,8.588518143E0,4.507442951E0,9.707872546E0
2.809959533E0,-4.325899482E-1,8.588518143E0,4.533777714E0,9.721364015E0
2.812365001E0,-4.972306192E-1,8.607670784E0,4.543354511E0,9.745835256E0
2.814770262E0,-5.259598494E-1,8.602881432E0,4.500260353E0,9.723093434E0
2.817175158E0,-5.307480097E-1,8.636399269E0,4.445195675E0,9.727736138E0
2.819580991E0,-5.020188093E-1,8.662734985E0,4.414072990E0,9.735452772E0
2.821986460E0,-4.756837487E-1,8.669917107E0,4.361402988E0,9.716767657E0
2.824391772E0,-4.325899482E-1,8.710617065E0,4.330279350E0,9.737212279E0
2.826797553E0,-3.751316071E-1,8.763286591E0,4.277609348E0,9.758783599E0
2.829203335E0,-3.057027459E-1,8.801592827E0,4.263244152E0,9.784515377E0
2.831609585E0,-2.266974598E-1,8.839898109E0,4.256062508E0,9.813728058E0
2.834015314E0,-1.572685987E-1,8.880598068E0,4.229727268E0,9.837700352E0
2.836420314E0,-8.305153996E-2,8.894961357E0,4.241697788E0,9.854909194E0
2.838825835E0,-4.953415692E-2,8.914114952E0,4.232121468E0,9.867864568E0
2.841230887E0,1.031832397E-2,8.930873871E0,4.258456230E0,9.894193450E0
2.843635626E0,1.750060916E-2,8.945238113E0,4.299155712E0,9.924733297E0
2.846040626E0,3.186520934E-2,8.928480148E0,4.318308830E0,9.917991949E0
2.848445731E0,3.425930440E-2,8.916508675E0,4.390131950E0,9.938740322E0
2.850851251E0,5.341207981E-2,8.916508675E0,4.418860912E0,9.951548199E0
2.853256408E0,1.750060916E-2,8.902144432E0,4.461955070E0,9.957787144E0
2.855661199E0,-2.319906652E-2,8.880598068E0,4.466742992E0,9.940691787E0
2.858066564E0,-1.841086149E-2,8.871020317E0,4.505048275E0,9.949412062E0
2.860471564E0,1.510649920E-2,8.839898109E0,4.540959835E0,9.938025106E0
2.862876512E0,7.419139147E-4,8.873415947E0,4.576871395E0,9.984250742E0
2.865282137E0,5.341207981E-2,8.842291832E0,4.598418236E0,9.966665840E0
2.867687501E0,1.300232708E-1,8.868626595E0,4.627147198E0,1.000399595E1
2.870093178E0,1.731170416E-1,8.880598068E0,4.617571354E0,1.001084196E1
2.872498491E0,2.138167024E-1,8.921297073E0,4.581659794E0,1.003129431E1
2.874903283E0,2.712750733E-1,8.914114952E0,4.562506676E0,1.001755972E1
2.877308803E0,3.263393641E-1,8.930873871E0,4.562506676E0,1.003411544E1
2.879714116E0,3.694331348E-1,8.976361275E0,4.555325031E0,1.007286100E1
2.882119064E0,3.957681954E-1,8.983543396E0,4.543354511E0,1.007485755E1
2.884524428E0,3.742212951E-1,8.995514870E0,4.533777714E0,1.008040028E1
2.886929845E0,3.885859549E-1,8.988331795E0,4.512230873E0,1.006485643E1
2.889335418E0,3.263393641E-1,8.988331795E0,4.517018795E0,1.006479332E1
2.891740678E0,2.664868832E-1,8.981149673E0,4.536171913E0,1.006523325E1
2.894145418E0,1.898757219E-1,8.966784477E0,4.567295551E0,1.006476355E1
2.896550939E0,1.228409410E-1,8.933267593E0,4.603206158E0,1.005026700E1
2.898956564E0,5.580618978E-2,8.909326553E0,4.612782955E0,1.003279525E1
2.901362085E0,-1.122857630E-2,8.909326553E0,4.639117718E0,1.004478168E1
2.903767710E0,-5.432235450E-2,8.859050751E0,4.658270836E0,1.000925663E1
2.906173283E0,-1.022043228E-1,8.842291832E0,4.691788197E0,1.001046687E1
2.908579481E0,-1.237512156E-1,8.818350792E0,4.682211876E0,9.985075518E0
2.910985262E0,-1.333276033E-1,8.825533867E0,4.655877113E0,9.979229228E0
2.913390574E0,-1.381158084E-1,8.806380272E0,4.596024513E0,9.934528212E0
2.915796720E0,-1.189630181E-1,8.806380272E0,4.557718754E0,9.916616658E0
2.918202606E0,-7.586924732E-2,8.782439232E0,4.509836674E0,9.872974315E0
2.920608074E0,-4.474595189E-2,8.770468712E0,4.485896111E0,9.851212491E0
2.923013856E0,-6.440386176E-3,8.775257111E0,4.428437233E0,9.829355786E0
2.925419324E0,3.136023879E-3,8.770468712E0,4.387737751E0,9.806802426E0
2.927825210E0,1.989470422E-2,8.768074989E0,4.380555153E0,9.801469189E0
2.930230835E0,3.186520934E-2,8.756104469E0,4.375767231E0,9.788652600E0
2.932635939E0,8.214126527E-2,8.772862434E0,4.361402988E0,9.797535328E0
2.935041824E0,8.692947030E-2,8.780045509E0,4.380555153E0,9.812543978E0
2.937447137E0,7.735309005E-2,8.768074989E0,4.366190910E0,9.795343056E0
2.939851981E0,8.214126527E-2,8.775257111E0,4.378161430E0,9.807149538E0
2.942256928E0,9.650588036E-2,8.794409752E0,4.399708271E0,9.834042360E0
2.944661928E0,8.214126527E-2,8.832715988E0,4.390131950E0,9.863917957E0
2.947067293E0,5.341207981E-2,8.851868629E0,4.373373508E0,9.873440481E0
2.949472137E0,7.974718511E-2,8.873415947E0,4.382949352E0,9.897177133E0
2.951876928E0,9.411177039E-2,8.875809669E0,4.394919872E0,9.904755171E0
2.954282606E0,6.538258493E-2,8.909326553E0,4.387737751E0,9.931395526E0
2.956687501E0,8.214126527E-2,8.938055992E0,4.390131950E0,9.958355820E0
2.959091928E0,3.186520934E-2,8.961997032E0,4.359008312E0,9.965909876E0
2.961497189E0,2.468290925E-2,8.940449715E0,4.382949352E0,9.957032458E0
2.963902397E0,-6.440386176E-3,8.957208633E0,4.323096752E0,9.945893299E0
2.966307866E0,5.530118942E-3,8.959602356E0,4.308732510E0,9.941814764E0
2.968712866E0,2.228879929E-2,8.966784477E0,4.299155712E0,9.944167159E0
2.971117553E0,1.510649920E-2,8.976361275E0,4.318308830E0,9.961078310E0
2.973523387E0,1.989470422E-2,8.976361275E0,4.370978832E0,9.984032927E0
2.975928803E0,4.622979462E-2,8.981149673E0,4.438014030E0,1.001794166E1
2.978333543E0,8.453539014E-2,8.983543396E0,4.466742992E0,1.003309479E1
2.980738543E0,1.108704805E-1,8.969179153E0,4.514625072E0,1.004192743E1
2.983143543E0,1.252350807E-1,8.954814911E0,4.581659794E0,1.005962228E1
2.985548960E0,1.611465514E-1,8.950026512E0,4.627147198E0,1.007667772E1
2.987954324E0,1.707229316E-1,8.950026512E0,4.636723995E0,1.008123655E1
2.990359689E0,1.755111217E-1,8.938055992E0,4.622359276E0,1.006408736E1
2.992765887E0,1.802993119E-1,8.940449715E0,4.624753475E0,1.006739756E1
2.995171668E0,1.946639121E-1,8.921297073E0,4.636723995E0,1.005617447E1
2.997576772E0,1.898757219E-1,8.887779236E0,4.651088238E0,1.003301023E1
2.999982137E0,1.683288217E-1,8.861444473E0,4.698970318E0,1.003164268E1
3.002387397E0,1.970579922E-1,8.839898109E0,4.710940838E0,1.001876210E1
3.004792970E0,1.707229316E-1,8.806380272E0,4.663058758E0,9.966222795E0
3.007198231E0,1.324173510E-1,8.772862434E0,4.634329796E0,9.922583449E0
3.009602970E0,1.204468608E-1,8.768074989E0,4.634329796E0,9.918198381E0
3.012008335E0,9.889996052E-2,8.746527672E0,4.641512394E0,9.902280789E0
3.014413491E0,7.735309005E-2,8.741739273E0,4.653482914E0,9.903478795E0
3.016818283E0,4.862388968E-2,8.746527672E0,4.646300316E0,9.904151514E0
3.019223231E0,4.383569956E-2,8.765680313E0,4.617571354E0,9.907625252E0
3.021628022E0,1.510649920E-2,8.751316071E0,4.629541874E0,9.900425200E0
3.024033491E0,-1.601678133E-2,8.792016029E0,4.576871395E0,9.911990424E0
3.026438543E0,-3.756365180E-2,8.787227631E0,4.581659794E0,9.910014477E0
3.028843178E0,-3.756365180E-2,8.815957069E0,4.555325031E0,9.923381290E0
3.031248803E0,-6.868694723E-2,8.796803474E0,4.519413471E0,9.890074185E0
3.033653960E0,-8.065743744E-2,8.803986549E0,4.526595592E0,9.899835981E0
3.036058543E0,-1.165689230E-1,8.813562393E0,4.502654552E0,9.897796138E0
3.038463543E0,-1.237512156E-1,8.813562393E0,4.464348793E0,9.880516513E0
3.040868595E0,-1.548745036E-1,8.792016029E0,4.466742992E0,9.862825403E0
3.043274012E0,-2.027564794E-1,8.758499146E0,4.481107235E0,9.840362774E0
3.045679272E0,-2.506384552E-1,8.765680313E0,4.449984550E0,9.833734463E0
3.048084012E0,-2.985204458E-1,8.746527672E0,4.426043510E0,9.807177062E0
3.050489428E0,-3.033086061E-1,8.715404510E0,4.385344028E0,9.761225033E0
3.052894741E0,-3.416141868E-1,8.713010788E0,4.373373508E0,9.754980937E0
3.055299793E0,-3.631610870E-1,8.667522430E0,4.414072990E0,9.733543621E0
3.057705106E0,-3.559787869E-1,8.638793945E0,4.394919872E0,9.699010383E0
3.060110262E0,-3.440083265E-1,8.612458229E0,4.363796711E0,9.661029977E0
3.062515470E0,-3.104909062E-1,8.588518143E0,4.344644070E0,9.629900341E0
3.064920314E0,-2.338797599E-1,8.574152946E0,4.335067272E0,9.610598667E0
3.067325053E0,-1.931800842E-1,8.526270866E0,4.366190910E0,9.581139624E0
3.069730678E0,-9.981022775E-2,8.523877144E0,4.354220390E0,9.572130319E0
3.072135991E0,1.989470422E-2,8.509512901E0,4.311126232E0,9.539287972E0
3.074540522E0,1.204468608E-1,8.499936104E0,4.308732510E0,9.530403824E0
3.076945522E0,2.090285122E-1,8.485571861E0,4.296761990E0,9.513715695E0
3.079350678E0,3.311275244E-1,8.487965584E0,4.296761990E0,9.519315563E0
3.081756303E0,3.837976754E-1,8.497541428E0,4.303944588E0,9.533071382E0
3.084161460E0,4.412560761E-1,8.509512901E0,4.323096752E0,9.554877407E0
3.086566043E0,4.268915355E-1,8.511906624E0,4.359008312E0,9.572656069E0
3.088971512E0,3.933741152E-1,8.509512901E0,4.366190910E0,9.572365229E0
3.091376668E0,3.430980146E-1,8.504723549E0,4.409284592E0,9.585918292E0
3.093781356E0,2.760632932E-1,8.521482468E0,4.449984550E0,9.617392416E0
3.096186251E0,2.114225924E-1,8.547817230E0,4.514625072E0,9.669111565E0
3.098591303E0,1.132645607E-1,8.540636063E0,4.557718754E0,9.681327050E0
3.100996928E0,2.947109938E-2,8.566970825E0,4.588841915E0,9.718607297E0
3.103402137E0,-6.629284471E-2,8.571758270E0,4.651088238E0,9.752541022E0
3.105806824E0,-1.381158084E-1,8.614852905E0,4.670241356E0,9.800302081E0
3.108212293E0,-1.931800842E-1,8.598093987E0,4.713335514E0,9.807143846E0
3.110617345E0,-2.410620600E-1,8.667522430E0,4.720517159E0,9.872554798E0
3.113022397E0,-2.817617357E-1,8.689069748E0,4.689394474E0,9.877739787E0
3.115427762E0,-3.033086061E-1,8.724980354E0,4.660665035E0,9.896417375E0
3.117832866E0,-3.128850460E-1,8.751316071E0,4.591236115E0,9.887511268E0
3.120238491E0,-3.248555064E-1,8.763286591E0,4.555325031E0,9.881887932E0
3.122643699E0,-3.248555064E-1,8.770468712E0,4.502654552E0,9.864104143E0
3.125048699E0,-3.033086061E-1,8.806380272E0,4.430831432E0,9.862889880E0
3.127454689E0,-2.745794356E-1,8.808774948E0,4.361402988E0,9.833196122E0
3.129860106E0,-2.458502501E-1,8.827927589E0,4.320703030E0,9.831643939E0
3.132265262E0,-2.075446695E-1,8.801592827E0,4.289579868E0,9.793447122E0
3.134670731E0,-1.381158084E-1,8.815957069E0,4.217756748E0,9.773926898E0
3.137075991E0,-9.741612524E-2,8.782439232E0,4.162692547E0,9.719502971E0
3.139481564E0,-5.192825198E-2,8.756104469E0,4.069322586E0,9.655643341E0
3.141886616E0,-8.834481239E-3,8.763286591E0,3.968770504E0,9.620104429E0
3.144291251E0,6.059437990E-2,8.748921394E0,3.911312103E0,9.583614121E0
3.146696512E0,1.419937611E-1,8.760892868E0,3.882583141E0,9.583728811E0
3.149100991E0,2.090285122E-1,8.782439232E0,3.901735783E0,9.612412491E0
3.151505418E0,2.377576828E-1,8.753710747E0,3.999893665E0,9.627207793E0
3.153910522E0,3.119747639E-1,8.780045509E0,3.999893665E0,9.653272851E0
3.156315731E0,3.694331348E-1,8.815957069E0,3.999893665E0,9.687968271E0
3.158721356E0,4.197091758E-1,8.827927589E0,4.011864185E0,9.705849554E0
3.161126564E0,4.268915355E-1,8.873415947E0,4.047775745E0,9.762388818E0
3.163531251E0,4.292855561E-1,8.875809669E0,4.078898907E0,9.777612166E0
3.165936824E0,4.077387154E-1,8.885385513E0,4.143539906E0,9.812504753E0
3.168342137E0,3.814036548E-1,8.906932831E0,4.234515190E0,9.869652481E0
3.170747033E0,3.622508347E-1,8.918902397E0,4.277609348E0,9.898282042E0
3.173152397E0,3.263393641E-1,8.935661316E0,4.327885151E0,9.933938313E0
3.175557606E0,2.880337536E-1,8.930873871E0,4.299155712E0,9.915957411E0
3.177963231E0,2.449400127E-1,8.938055992E0,4.677423954E0,1.009094324E1
3.180368439E0,2.066344023E-1,8.954814911E0,4.272820950E0,9.924132543E0
3.182773126E0,1.515701413E-1,8.952420235E0,4.897680759E0,1.020568853E1
3.185178491E0,1.300232708E-1,8.954814911E0,4.447590351E0,9.999333781E0
3.187583491E0,3.904750943E-2,8.938055992E0,4.715729237E0,1.010586324E1
3.189988126E0,-1.841086149E-2,8.930873871E0,4.904862881E0,1.018913769E1
3.192393283E0,-1.093866229E-1,8.945238113E0,4.488289833E0,1.000869602E1
3.194798074E0,-1.764213890E-1,8.899750710E0,5.053297520E0,1.023584403E1
3.197203074E0,-1.931800842E-1,8.933267593E0,4.555325031E0,1.002953511E1
3.199607866E0,-2.482443452E-1,8.882991791E0,4.758822918E0,1.008045455E1
3.202012189E0,-2.362738550E-1,8.887779236E0,4.823463917E0,1.011505063E1
3.204417449E0,-2.386679649E-1,8.885385513E0,4.409284592E0,9.922138314E0
3.206822293E0,-2.482443452E-1,8.847079277E0,4.897680759E0,1.011532075E1
3.209226616E0,-2.027564794E-1,8.866232872E0,4.296761990E0,9.854611059E0
3.211631616E0,-2.266974598E-1,8.832715988E0,4.526595592E0,9.927654865E0
3.214036564E0,-1.859977841E-1,8.868626595E0,4.488289833E0,9.941422357E0
3.216441876E0,-1.524803936E-1,8.866232872E0,4.112416267E0,9.774727780E0
3.218847033E0,-1.141748205E-1,8.849474907E0,4.600812435E0,9.974653732E0
3.221251668E0,-5.911055207E-2,8.832715988E0,4.033411026E0,9.710240486E0
3.223656981E0,-5.671645701E-2,8.815957069E0,4.366190910E0,9.838086139E0
3.226061876E0,1.989470422E-2,8.827927589E0,4.270426750E0,9.806591964E0
3.228466251E0,3.665339947E-2,8.823138237E0,4.026228905E0,9.698434462E0
3.230870939E0,7.974718511E-2,8.801592827E0,4.526595592E0,9.897699913E0
3.233276043E0,1.372055411E-1,8.808774948E0,4.021440506E0,9.684282379E0
3.235681512E0,1.539642215E-1,8.763286591E0,4.464348793E0,9.836122559E0
3.238086303E0,2.209990025E-1,8.782439232E0,4.294367790E0,9.778633552E0
3.240490783E0,2.784573734E-1,8.744133949E0,4.172268867E0,9.692535506E0
3.242896147E0,3.359157741E-1,8.756104469E0,4.588841915E0,9.891393987E0
3.245301095E0,4.508325160E-1,8.758499146E0,4.078898907E0,9.672226917E0
3.247705678E0,5.370200872E-1,8.760892868E0,4.596024513E0,9.907829013E0
3.250110678E0,6.303899288E-1,8.820744514E0,4.382949352E0,9.869811056E0
3.252515626E0,6.902424097E-1,8.811168671E0,4.337461948E0,9.845136062E0
3.254921043E0,7.189716101E-1,8.830321312E0,4.756428719E0,1.005560087E1
3.257325991E0,7.524889708E-1,8.866232872E0,4.275214672E0,9.871868389E0
3.259730731E0,6.854541302E-1,8.868626595E0,4.876133919E0,1.014391774E1
3.262136356E0,6.591190100E-1,8.882991791E0,4.586447716E0,1.001885641E1
3.264541616E0,5.633550882E-1,8.866232872E0,4.646300316E0,1.002574491E1
3.266946303E0,4.699852765E-1,8.854262352E0,4.962321281E0,1.016087991E1
3.269351356E0,3.957681954E-1,8.813562393E0,4.490684032E0,9.899583709E0
3.271756460E0,2.784573734E-1,8.787227631E0,5.072449684E0,1.015000757E1
3.274161668E0,2.186049223E-1,8.784833908E0,4.686999798E0,9.959370563E0
3.276566408E0,1.683288217E-1,8.741739273E0,4.684606075E0,9.919267825E0
3.278970835E0,1.228409410E-1,8.744133949E0,5.120331764E0,1.013374392E1
3.281376095E0,1.108704805E-1,8.708222389E0,4.976686001E0,1.003059485E1
3.283780991E0,1.132645607E-1,8.693858147E0,4.888104439E0,9.974445515E0
3.286185366E0,1.443878412E-1,8.681887627E0,4.837828159E0,9.939849189E0
3.288590314E0,1.707229316E-1,8.681887627E0,4.751640797E0,9.898606434E0
3.290995470E0,1.779052317E-1,8.696251869E0,4.703758717E0,9.888467672E0
3.293400991E0,1.970579922E-1,8.674704552E0,4.631936073E0,9.835861055E0
3.295806095E0,2.090285122E-1,8.705828667E0,4.555325031E0,9.827824369E0
3.298210574E0,2.353636026E-1,8.686676025E0,4.500260353E0,9.786014492E0
3.300615731E0,1.970579922E-1,8.686676025E0,4.442801952E0,9.758876032E0
3.303020887E0,1.467819512E-1,8.677098274E0,4.402102470E0,9.730985847E0
3.305425678E0,8.932358027E-2,8.660340309E0,4.356614590E0,9.694821487E0
3.307830835E0,2.228879929E-2,8.638793945E0,4.296761990E0,9.648389566E0
3.310235939E0,-2.559316158E-2,8.626822472E0,4.246485710E0,9.615371124E0
3.312641251E0,-1.045984328E-1,8.607670784E0,4.229727268E0,9.591325765E0
3.315046043E0,-1.381158084E-1,8.598093987E0,4.174663067E0,9.558980484E0
3.317450522E0,-1.668449938E-1,8.598093987E0,4.131569386E0,9.540698247E0
3.319856147E0,-1.644508988E-1,8.617246628E0,4.074110985E0,9.533224211E0
3.322261512E0,-1.596626937E-1,8.653157234E0,4.014258385E0,9.540277390E0
3.324666251E0,-1.213571206E-1,8.655552864E0,3.975952625E0,9.525834463E0
3.327071199E0,-9.741612524E-2,8.679493904E0,3.908917904E0,9.519597865E0
3.329475887E0,-5.671645701E-2,8.732163429E0,3.844277382E0,9.541088172E0
3.331881095E0,-1.122857630E-2,8.744133949E0,3.794001102E0,9.531760014E0
3.334286408E0,2.947109938E-2,8.799198151E0,3.736543179E0,9.559733865E0
3.336691824E0,5.341207981E-2,8.815957069E0,3.741331100E0,9.577134765E0
3.339097762E0,8.453539014E-2,8.868626595E0,3.683872700E0,9.603676482E0
3.341502814E0,8.453539014E-2,8.878203392E0,3.710207939E0,9.622644369E0
3.343907449E0,1.012940705E-1,8.926085472E0,3.743725300E0,9.679914331E0
3.346312397E0,1.108704805E-1,8.923691750E0,3.786818981E0,9.694563667E0
3.348717606E0,1.252350807E-1,8.935661316E0,3.861036301E0,9.734953944E0
3.351123387E0,1.132645607E-1,8.954814911E0,3.870612621E0,9.756186807E0
3.353528647E0,1.012940705E-1,8.957208633E0,3.963982582E0,9.795662556E0
3.355933751E0,1.348114312E-1,8.961997032E0,4.033411026E0,9.828731832E0
3.358339481E0,1.802993119E-1,8.961997032E0,4.117204189E0,9.864140560E0
3.360744637E0,2.042403221E-1,8.964390755E0,4.181845188E0,9.893929699E0
3.363149637E0,2.640927732E-1,8.978755951E0,4.263244152E0,9.942990200E0
3.365554949E0,3.287334442E-1,8.957208633E0,4.349432468E0,9.962791525E0
3.367960366E0,3.957681954E-1,8.964390755E0,4.368585110E0,9.980053603E0
3.370366147E0,4.795617163E-1,8.957208633E0,4.418860912E0,9.999394867E0
3.372771199E0,5.298377275E-1,8.957208633E0,4.478713512E0,1.002851880E1
3.375176147E0,5.896902084E-1,8.961997032E0,4.548142433E0,1.006730972E1
3.377581616E0,6.016607285E-1,8.961997032E0,4.615176678E0,1.009847722E1
3.379986460E0,6.112370491E-1,8.952420235E0,4.679817677E0,1.012028321E1
3.382391199E0,6.016607285E-1,8.921297073E0,4.732487679E0,1.011671769E1
3.384796408E0,5.657491684E-1,8.916508675E0,4.811493397E0,1.014764346E1
3.387201772E0,5.442023277E-1,8.897356987E0,4.876133919E0,1.016050193E1
3.389607449E0,5.130790472E-1,8.871020317E0,4.974291801E0,1.018340957E1
3.392012710E0,4.532265961E-1,8.851868629E0,5.029356480E0,1.019094790E1
3.394417553E0,4.221033156E-1,8.837503433E0,5.038932323E0,1.018187002E1
3.396823126E0,3.909800351E-1,8.815957069E0,5.007809162E0,1.014653227E1
3.399228543E0,3.885859549E-1,8.813562393E0,5.003020763E0,1.014199674E1
3.401633647E0,3.790095150E-1,8.808774948E0,4.976686001E0,1.012450334E1
3.404038908E0,3.837976754E-1,8.803986549E0,4.974291801E0,1.011934083E1
3.406443960E0,4.029504955E-1,8.820744514E0,4.945562840E0,1.012059755E1
3.408849481E0,4.149210155E-1,8.851868629E0,4.871345997E0,1.011225739E1
3.411254637E0,4.029504955E-1,8.861444473E0,4.823463917E0,1.009719622E1
3.413659376E0,3.933741152E-1,8.856657028E0,4.754034996E0,1.005962055E1
3.416064949E0,3.622508347E-1,8.842291832E0,4.708547115E0,1.002435866E1
3.418470001E0,3.454921544E-1,8.847079277E0,4.629541874E0,9.991137799E0
3.420874741E0,3.000042439E-1,8.851868629E0,4.607995033E0,9.983947065E0
3.423279793E0,2.640927732E-1,8.818350792E0,4.572083473E0,9.936649484E0
3.425684897E0,2.497282028E-1,8.806380272E0,4.555325031E0,9.917947560E0
3.428090522E0,2.281812727E-1,8.801592827E0,4.519413471E0,9.896726788E0
3.430495731E0,2.257871926E-1,8.787227631E0,4.497866154E0,9.874064473E0
3.432900418E0,2.114225924E-1,8.780045509E0,4.497866154E0,9.867355198E0
3.435305783E0,2.353636026E-1,8.772862434E0,4.512230873E0,9.868066618E0
3.437711199E0,2.377576828E-1,8.770468712E0,4.481107235E0,9.851800454E0
3.440116356E0,2.377576828E-1,8.770468712E0,4.447590351E0,9.836600534E0
3.442521512E0,2.521222830E-1,8.782439232E0,4.466742992E0,9.856297351E0
3.444926668E0,2.976101637E-1,8.777651787E0,4.500260353E0,9.868540214E0
3.447332241E0,2.664868832E-1,8.780045509E0,4.524201393E0,9.880719238E0
3.449737658E0,3.095806539E-1,8.787227631E0,4.524201393E0,9.888357187E0
3.452143022E0,3.167629540E-1,8.803986549E0,4.526595592E0,9.904573973E0
3.454549012E0,3.119747639E-1,8.803986549E0,4.536171913E0,9.908802301E0
3.456954272E0,3.287334442E-1,8.820744514E0,4.507442951E0,9.911137242E0
3.459359272E0,3.167629540E-1,8.806380272E0,4.507442951E0,9.897965156E0
3.461764741E0,3.383098543E-1,8.811168671E0,4.500260353E0,9.899671214E0
3.464170001E0,3.191570342E-1,8.830321312E0,4.454772472E0,9.895525932E0
3.466575783E0,3.215511739E-1,8.839898109E0,4.433225155E0,9.894477198E0
3.468981095E0,3.359157741E-1,8.854262352E0,4.359008312E0,9.874804032E0
3.471385835E0,3.167629540E-1,8.868626595E0,4.303944588E0,9.862900966E0
3.473791251E0,3.526744545E-1,8.899750710E0,4.280003548E0,9.881719098E0
3.476196251E0,3.502803743E-1,8.928480148E0,4.232121468E0,9.886926025E0
3.478601043E0,3.814036548E-1,8.950026512E0,4.169874668E0,9.881108139E0
3.481006303E0,3.598567545E-1,8.969179153E0,4.121993065E0,9.877575532E0
3.483411512E0,3.670389950E-1,8.990725517E0,4.090869427E0,9.884486614E0
3.485817241E0,3.861918151E-1,9.009879112E0,4.095657825E0,9.904619062E0
3.488222606E0,3.933741152E-1,9.019455910E0,4.088475227E0,9.910648707E0
3.490627814E0,3.885859549E-1,9.029031754E0,4.095657825E0,9.922138201E0
3.493033856E0,4.221033156E-1,9.021849632E0,4.133963585E0,9.932854419E0
3.495439272E0,4.292855561E-1,9.041001320E0,4.162692547E0,9.962529809E0
3.497844220E0,4.508325160E-1,9.019455910E0,4.184239388E0,9.952974134E0
3.500249585E0,4.963203967E-1,9.014666557E0,4.191421986E0,9.953821645E0
3.502655158E0,5.274436474E-1,9.002696991E0,4.229727268E0,9.960790264E0
3.505061095E0,5.777196884E-1,8.964390755E0,4.327885151E0,9.971191078E0
3.507466564E0,6.040548086E-1,8.952420235E0,4.366190910E0,9.978693969E0
3.509871408E0,6.351780891E-1,8.950026512E0,4.416466713E0,1.000058018E1
3.512276824E0,6.567250490E-1,8.938055992E0,4.466742992E0,1.001358705E1
3.514682033E0,7.117892504E-1,8.909326553E0,4.502654552E0,1.000782901E1
3.517087085E0,7.357302904E-1,8.885385513E0,4.560112953E0,1.001429004E1
3.519492501E0,7.812181711E-1,8.856657028E0,4.591236115E0,1.000650412E1
3.521897658E0,7.788239717E-1,8.859050751E0,4.603206158E0,1.001393299E1
3.524303126E0,8.243118525E-1,8.861444473E0,4.600812435E0,1.001859088E1
3.526708439E0,8.243118525E-1,8.856657028E0,4.572083473E0,1.000119048E1
3.529113283E0,8.626174927E-1,8.830321312E0,4.543354511E0,9.967986438E0
3.531518960E0,8.650115728E-1,8.873415947E0,4.512230873E0,9.992296185E0
3.533924481E0,8.721939325E-1,8.909326553E0,4.464348793E0,1.000336104E1
3.536329533E0,8.578293324E-1,8.930873871E0,4.433225155E0,1.000749042E1
3.538735210E0,8.458588123E-1,8.954814911E0,4.378161430E0,1.000362358E1
3.541140835E0,8.506469727E-1,8.971573830E0,4.366190910E0,1.001380848E1
3.543546720E0,8.338882923E-1,9.007484436E0,4.354220390E0,1.003939145E1
3.545952241E0,7.884004116E-1,9.031425476E0,4.354220390E0,1.005720918E1
3.548357449E0,7.405184507E-1,9.036213875E0,4.344644070E0,1.005372870E1
3.550763387E0,7.237597704E-1,9.041001320E0,4.323096752E0,1.004752201E1
3.553168908E0,6.926364899E-1,9.021849632E0,4.356614590E0,1.004258964E1
3.555573908E0,6.495426893E-1,9.029031754E0,4.373373508E0,1.005344299E1
3.557979116E0,6.327840090E-1,9.029031754E0,4.390131950E0,1.005967636E1
3.560384376E0,5.825079679E-1,8.971573830E0,4.438014030E0,1.002618677E1
3.562790106E0,5.322318077E-1,8.952420235E0,4.457166195E0,1.001476057E1
3.565195522E0,4.819557369E-1,8.935661316E0,4.478713512E0,1.000685761E1
3.567600574E0,4.699852765E-1,8.916508675E0,4.466742992E0,9.983827225E0
3.570006564E0,4.412560761E-1,8.873415947E0,4.485896111E0,9.952662026E0
3.572412137E0,3.909800351E-1,8.854262352E0,4.452378273E0,9.918391980E0
3.574817033E0,3.742212951E-1,8.859050751E0,4.435619831E0,9.914511842E0
3.577222189E0,3.550685346E-1,8.815957069E0,4.375767231E0,9.848579165E0
3.579627449E0,3.454921544E-1,8.803986549E0,4.361402988E0,9.831143373E0
3.582033387E0,3.574626148E-1,8.820744514E0,4.323096752E0,9.829673384E0
3.584438751E0,3.933741152E-1,8.811168671E0,4.318308830E0,9.820347636E0
3.586843335E0,3.957681954E-1,8.794409752E0,4.301550388E0,9.798041186E0
3.589248647E0,4.388619959E-1,8.796803474E0,4.275214672E0,9.790495989E0
3.591653751E0,4.699852765E-1,8.827927589E0,4.282397270E0,9.823040164E0
3.594058543E0,4.963203967E-1,8.835109711E0,4.272820950E0,9.826621820E0
3.596463803E0,5.442023277E-1,8.866232872E0,4.320703030E0,9.877991506E0
3.598869376E0,5.944783688E-1,8.859050751E0,4.356614590E0,9.890211091E0
3.601275158E0,6.830600500E-1,8.859050751E0,4.380555153E0,9.906493561E0
3.603680366E0,7.285479307E-1,8.882991791E0,4.399708271E0,9.939605531E0
3.606085366E0,8.195236921E-1,8.897356987E0,4.402102470E0,9.960576620E0
3.608491199E0,8.674057722E-1,8.914114952E0,4.406890392E0,9.981709327E0
3.610896616E0,9.535932541E-1,8.918902397E0,4.421255112E0,1.000018284E1
3.613301616E0,1.008657575E0,8.938055992E0,4.445195675E0,1.003324472E1
3.615706928E0,1.066115856E0,8.966784477E0,4.433225155E0,1.005948866E1
3.618112293E0,1.104421377E0,8.995514870E0,4.423649311E0,1.008502393E1
3.620517814E0,1.111603737E0,9.009879112E0,4.416466713E0,1.009548229E1
3.622922814E0,1.130756497E0,9.031425476E0,4.445195675E0,1.012941365E1
3.625327345E0,1.135544777E0,9.043396950E0,4.466742992E0,1.015008785E1
3.627732970E0,1.121180177E0,9.031425476E0,4.490684032E0,1.014839565E1
3.630138387E0,1.106815577E0,9.045790672E0,4.497866154E0,1.016278355E1
3.632543022E0,1.061327696E0,9.038607597E0,4.509836674E0,1.015684354E1
3.634948231E0,1.013445616E0,9.024243355E0,4.536171913E0,1.015090616E1
3.637353543E0,9.799282551E-1,9.009879112E0,4.552930355E0,1.014235455E1
3.639758960E0,9.535932541E-1,8.995514870E0,4.569689274E0,1.013462816E1
3.642163803E0,9.081053734E-1,8.983543396E0,4.564900875E0,1.011765918E1
3.644568387E0,8.602234125E-1,8.950026512E0,4.564900875E0,1.008371355E1
3.646973647E0,8.099473715E-1,8.897356987E0,4.557718754E0,1.002954517E1
3.649378803E0,7.860063314E-1,8.873415947E0,4.564900875E0,1.000967714E1
3.651783491E0,7.884004116E-1,8.868626595E0,4.540959835E0,9.994720061E0
3.654188178E0,7.548830509E-1,8.837503433E0,4.507442951E0,9.949289287E0
3.656593178E0,7.884004116E-1,8.818350792E0,4.461955070E0,9.914329476E0
3.658998908E0,7.884004116E-1,8.811168671E0,4.445195675E0,9.900405706E0
3.661404220E0,8.147355318E-1,8.775257111E0,4.416466713E0,9.857692913E0
3.663809116E0,8.410706520E-1,8.777651787E0,4.361402988E0,9.837500026E0
3.666214897E0,8.602234125E-1,8.782439232E0,4.311126232E0,9.821254124E0
3.668620262E0,9.057112932E-1,8.784833908E0,4.296761990E0,9.821190525E0
3.671025158E0,9.416227341E-1,8.796803474E0,4.275214672E0,9.825877326E0
3.673430314E0,9.727460146E-1,8.799198151E0,4.268033028E0,9.827931055E0
3.675835626E0,1.027810335E0,8.815957069E0,4.239303589E0,9.836116513E0
3.678241199E0,1.049357176E0,8.827927589E0,4.232121468E0,9.846030069E0
3.680646147E0,1.046963215E0,8.842291832E0,4.215362549E0,9.851473912E0
3.683050835E0,1.054145455E0,8.849474907E0,4.217756748E0,9.859710987E0
3.685456303E0,1.075692296E0,8.878203392E0,4.189027309E0,9.875604244E0
3.687861460E0,1.042174935E0,8.909326553E0,4.155510426E0,9.885873514E0
3.690266616E0,1.020628095E0,8.918902397E0,4.160298347E0,9.894270262E0
3.692672241E0,1.006263375E0,8.928480148E0,4.167480946E0,9.904454613E0
3.695077710E0,9.703519344E-1,8.928480148E0,4.212968349E0,9.920102971E0
3.697483439E0,9.320464134E-1,8.964390755E0,4.246485710E0,9.963014253E0
3.699888856E0,8.865585327E-1,8.957208633E0,4.299155712E0,9.974984329E0
3.702293960E0,8.674057722E-1,8.966784477E0,4.327885151E0,9.994308706E0
3.704699533E0,8.195236921E-1,8.966784477E0,4.315915108E0,9.985087188E0
3.707105001E0,8.171296120E-1,8.942843437E0,4.315915108E0,9.963396648E0
3.709510106E0,8.195236921E-1,8.926085472E0,4.318308830E0,9.949593564E0
3.711915470E0,7.979768515E-1,8.926085472E0,4.347037792E0,9.960346705E0
3.714320731E0,7.716417313E-1,8.887779236E0,4.335067272E0,9.918712566E0
3.716726147E0,7.716417313E-1,8.827927589E0,4.330279350E0,9.863014536E0
3.719131512E0,7.189716101E-1,8.784833908E0,4.359008312E0,9.833167365E0
3.721536460E0,7.141833305E-1,8.732163429E0,4.382949352E0,9.796477990E0
3.723941928E0,6.950305700E-1,8.691463470E0,4.370978832E0,9.753464036E0
3.726347137E0,6.710895300E-1,8.660340309E0,4.390131950E0,9.732682773E0
3.728752137E0,6.471486092E-1,8.610064507E0,4.404496193E0,9.692863294E0
3.731157501E0,6.567250490E-1,8.574152946E0,4.397314072E0,9.658351701E0
3.733562762E0,6.519367695E-1,8.598093987E0,4.320703030E0,9.644724798E0
3.735968439E0,6.399662495E-1,8.590911865E0,4.205786228E0,9.586551062E0
3.738373803E0,6.998187304E-1,8.593305588E0,4.153115749E0,9.569901651E0
3.740778647E0,7.261538506E-1,8.605276108E0,4.155510426E0,9.583649785E0
3.743184428E0,7.620652914E-1,8.614852905E0,4.208180428E0,9.617963225E0
3.745590001E0,8.171296120E-1,8.614852905E0,4.210574150E0,9.623529813E0
3.747995053E0,8.745880127E-1,8.600487709E0,4.287185192E0,9.649520708E0
3.750400418E0,8.889524937E-1,8.588518143E0,4.339855671E0,9.663706725E0
3.752805574E0,9.823224545E-1,8.617246628E0,4.347037792E0,9.701475889E0
3.755211303E0,1.001475334E0,8.641187668E0,4.373373508E0,9.736502093E0
3.757616876E0,1.046963215E0,8.645976067E0,4.370978832E0,9.744459455E0
3.760021981E0,1.068510056E0,8.691463470E0,4.354220390E0,9.779697654E0
3.762427241E0,1.099633336E0,8.705828667E0,4.349432468E0,9.793784205E0
3.764832085E0,1.118785977E0,8.746527672E0,4.339855671E0,9.827907998E0
3.767236616E0,1.140332937E0,8.789621353E0,4.370978832E0,9.882472297E0
3.769641460E0,1.152303457E0,8.811168671E0,4.397314072E0,9.914679402E0
3.772046460E0,1.169062138E0,8.856657028E0,4.399708271E0,9.958138022E0
3.774451824E0,1.169062138E0,8.854262352E0,4.469136715E0,9.986883951E0
3.776856928E0,1.152303457E0,8.873415947E0,4.550536156E0,1.003856031E1
3.779261564E0,1.130756497E0,8.871020317E0,4.579266071E0,1.004705377E1
3.781666876E0,1.128362417E0,8.882991791E0,4.612782955E0,1.007266159E1
3.784071981E0,1.116391897E0,8.854262352E0,4.646300316E0,1.006143127E1
3.786476772E0,1.087662816E0,8.863839149E0,4.677423954E0,1.008111848E1
3.788881981E0,1.087662816E0,8.856657028E0,4.660665035E0,1.006703445E1
3.791287449E0,1.085268617E0,8.830321312E0,4.648694515E0,1.003806471E1
3.793693543E0,1.061327696E0,8.823138237E0,4.639117718E0,1.002474927E1
3.796099481E0,1.054145455E0,8.818350792E0,4.675029278E0,1.003645516E1
3.798505314E0,1.030204415E0,8.808774948E0,4.691788197E0,1.003337997E1
3.800911668E0,1.023022175E0,8.789621353E0,4.746852398E0,1.004174415E1
3.803317345E0,1.046963215E0,8.780045509E0,4.768399239E0,1.004604213E1
3.805722762E0,1.037386656E0,8.777651787E0,4.732487679E0,1.002595540E1
3.808128751E0,1.042174935E0,8.756104469E0,4.708547115E0,9.996294814E0
3.810534845E0,1.044569016E0,8.775257111E0,4.655877113E0,9.988666251E0
3.812941147E0,1.058933496E0,8.734558105E0,4.576871395E0,9.917741538E0
3.815347033E0,1.070904016E0,8.775257111E0,4.495472431E0,9.917723789E0
3.817752762E0,1.082874537E0,8.758499146E0,4.414072990E0,9.867520707E0
3.820159168E0,1.087662816E0,8.768074989E0,4.347037792E0,9.846770384E0
3.822564845E0,1.106815577E0,8.775257111E0,4.272820950E0,9.822788654E0
3.824970001E0,1.106815577E0,8.794409752E0,4.222544670E0,9.818175345E0
3.827375314E0,1.123574257E0,8.794409752E0,4.208180428E0,9.813910765E0
3.829780470E0,1.121180177E0,8.820744514E0,4.174663067E0,9.822952229E0
3.832185991E0,1.157091618E0,8.835109711E0,4.141145229E0,9.825838815E0
3.834591303E0,1.166668057E0,8.847079277E0,4.117204189E0,9.827680114E0
3.836995991E0,1.185820818E0,8.832715988E0,4.126780987E0,9.821067358E0
3.839401356E0,1.171456337E0,8.839898109E0,4.107628345E0,9.817775673E0
3.841806408E0,1.142727017E0,8.818350792E0,4.054958344E0,9.773015036E0
3.844211408E0,1.111603737E0,8.803986549E0,4.019046783E0,9.741590172E0
3.846617137E0,1.075692296E0,8.792016029E0,4.047775745E0,9.738642013E0
3.849022501E0,1.030204415E0,8.751316071E0,4.107628345E0,9.722112154E0
3.851428178E0,9.655637741E-1,8.701039314E0,4.244091988E0,9.728962707E0
3.853833543E0,9.176818132E-1,8.657946587E0,4.342249870E0,9.729198988E0
3.856238283E0,8.338882923E-1,8.648369789E0,4.418860912E0,9.747615168E0
3.858643803E0,8.075531721E-1,8.576546669E0,4.550536156E0,9.742518884E0
3.861048908E0,7.668534517E-1,8.554999352E0,4.634329796E0,9.759768992E0
3.863453803E0,7.477008104E-1,8.511906624E0,4.718123436E0,9.760753026E0
3.865859168E0,6.902424097E-1,8.475995064E0,4.751640797E0,9.741510004E0
3.868264376E0,6.615132093E-1,8.452054024E0,4.768399239E0,9.726893042E0
3.870669481E0,6.447545290E-1,8.423324585E0,4.761217594E0,9.697283044E0
3.873074272E0,6.495426893E-1,8.423324585E0,4.742064476E0,9.688213368E0
3.875479116E0,6.543308496E-1,8.408959389E0,4.727699757E0,9.669017109E0
3.877884793E0,6.878482103E-1,8.401777267E0,4.710940838E0,9.656912550E0
3.880290053E0,7.165774107E-1,8.392201424E0,4.686999798E0,9.639009027E0
3.882695106E0,7.692476511E-1,8.385018349E0,4.696576595E0,9.641478433E0
3.885100418E0,7.979768515E-1,8.396989822E0,4.706152916E0,9.658886085E0
3.887505366E0,8.243118525E-1,8.396989822E0,4.675029278E0,9.645974645E0
3.889910783E0,8.697997332E-1,8.399383545E0,4.696576595E0,9.662506260E0
3.892316147E0,8.913466930E-1,8.396989822E0,4.727699757E0,9.677555579E0
3.894721095E0,9.248640537E-1,8.392201424E0,4.734881878E0,9.680058091E0
3.897126668E0,9.607754946E-1,8.401777267E0,4.754034996E0,9.701226703E0
3.899531824E0,9.607754946E-1,8.396989822E0,4.799522877E0,9.719462304E0
3.901936876E0,1.003869295E0,8.373048782E0,4.825858116E0,9.716203272E0
3.904342293E0,1.032598495E0,8.382624626E0,4.833039761E0,9.731029165E0
3.906747449E0,1.068510056E0,8.365866661E0,4.825858116E0,9.716910275E0
3.909153074E0,1.133150697E0,8.392201424E0,4.828251839E0,9.748081404E0
3.911558335E0,1.176244378E0,8.389807701E0,4.823463917E0,9.748755216E0
3.913963231E0,1.221732259E0,8.389807701E0,4.849798679E0,9.767397310E0
3.916368595E0,1.257643819E0,8.361077309E0,4.888104439E0,9.766414221E0
3.918773231E0,1.274402499E0,8.382624626E0,4.926409721E0,9.806223029E0
3.921177606E0,1.291161180E0,8.341925621E0,4.940774441E0,9.780903452E0
3.923582814E0,1.315102220E0,8.337136269E0,4.969503880E0,9.794554804E0
3.925987866E0,1.331860900E0,8.322772980E0,5.026961803E0,9.813905874E0
3.928393126E0,1.329466820E0,8.294043541E0,5.034144402E0,9.792918367E0
3.930798074E0,1.341437340E0,8.262920380E0,5.041327000E0,9.771913081E0
3.933202762E0,1.358195901E0,8.253343582E0,5.036538601E0,9.763662093E0
3.935608439E0,1.351013660E0,8.238979340E0,5.067661762E0,9.766637815E0
3.938013751E0,1.331860900E0,8.231796265E0,5.082026482E0,9.765414295E0
3.940418491E0,1.310313940E0,8.250949860E0,5.072449684E0,9.773681088E0
3.942823699E0,1.343831301E0,8.227008820E0,5.072449684E0,9.758037840E0
3.945229012E0,1.358195901E0,8.210249901E0,5.093997002E0,9.757136106E0
3.947634428E0,1.322284460E0,8.224615097E0,5.077238560E0,9.755566671E0
3.950039481E0,1.324678540E0,8.210249901E0,5.055691242E0,9.732573689E0
3.952444116E0,1.300737500E0,8.217432022E0,5.024568081E0,9.719279370E0
3.954849689E0,1.264826059E0,8.219825745E0,4.998232841E0,9.702971286E0
3.957255158E0,1.236096859E0,8.231796265E0,4.971898079E0,9.695884472E0
3.959660210E0,1.193003178E0,8.219825745E0,4.955139160E0,9.671721457E0
3.962065731E0,1.149909258E0,8.215038300E0,4.931198597E0,9.650174359E0
3.964470991E0,1.078086376E0,8.231796265E0,4.928803921E0,9.654939050E0
3.966876303E0,1.056539536E0,8.234190941E0,4.897680759E0,9.638747484E0
3.969281356E0,1.023022175E0,8.260525703E0,4.897680759E0,9.657646509E0
3.971686199E0,9.918987751E-1,8.277284622E0,4.890498161E0,9.665106112E0
3.974091668E0,9.727460146E-1,8.253343582E0,4.909651279E0,9.652387828E0
3.976496928E0,9.224698544E-1,8.289255142E0,4.900074959E0,9.673336345E0
3.978901824E0,8.721939325E-1,8.308407784E0,4.861769199E0,9.665772701E0
3.981307085E0,8.554352522E-1,8.327560425E0,4.854587078E0,9.677140476E0
3.983712397E0,8.362823725E-1,8.334742546E0,4.864163399E0,9.686453793E0
3.986118178E0,8.123413324E-1,8.351501465E0,4.859375477E0,9.696442914E0
3.988523856E0,8.051590919E-1,8.377836227E0,4.864163399E0,9.720931364E0
3.990929168E0,7.836122513E-1,8.394596100E0,4.864163399E0,9.733620981E0
3.993335262E0,7.764298916E-1,8.404171944E0,4.866557598E0,9.742501336E0
3.995740783E0,7.381243706E-1,8.420930862E0,4.888104439E0,9.764756483E0
3.998145731E0,7.309420109E-1,8.399383545E0,4.945562840E0,9.774585002E0
4.000551303E0,7.453066111E-1,8.411354065E0,4.979079723E0,9.802938031E0
4.002956668E0,7.189716101E-1,8.420930862E0,5.065268040E0,9.853219630E0
4.005362345E0,7.141833305E-1,8.394596100E0,5.129908562E0,9.863836138E0
4.007767658E0,7.333360910E-1,8.408959389E0,5.173001766E0,9.899915510E0
4.010172606E0,7.716417313E-1,8.416142464E0,5.228066444E0,9.937784646E0
4.012578387E0,7.716417313E-1,8.432900429E0,5.263978004E0,9.970892891E0
4.014983283E0,8.027650118E-1,8.454447746E0,5.252007484E0,9.985274206E0
4.017387658E0,8.578293324E-1,8.442477226E0,5.256795406E0,9.982243777E0
4.019792658E0,8.841644526E-1,8.449659348E0,5.235249043E0,9.979294685E0
4.022197710E0,8.889524937E-1,8.449659348E0,5.208913326E0,9.965929845E0
4.024603178E0,9.248640537E-1,8.456841469E0,5.204125404E0,9.972786089E0
4.027008178E0,9.368345737E-1,8.464024544E0,5.187366962E0,9.971266043E0
4.029412866E0,9.081053734E-1,8.478388786E0,5.151455402E0,9.962189746E0
4.031818283E0,9.272581339E-1,8.487965584E0,5.084420204E0,9.937640374E0
4.034223491E0,8.937407732E-1,8.485571861E0,5.079632282E0,9.930073842E0
4.036628439E0,8.913466930E-1,8.492753983E0,5.019779682E0,9.905531646E0
4.039033387E0,8.721939325E-1,8.509512901E0,4.986262321E0,9.901279918E0
4.041438387E0,8.458588123E-1,8.492753983E0,4.976686001E0,9.879764718E0
4.043843960E0,8.434647322E-1,8.514300346E0,4.952744961E0,9.886072314E0
4.046248960E0,8.291000128E-1,8.550211906E0,4.943168640E0,9.911026520E0
4.048653803E0,8.123413324E-1,8.554999352E0,4.909651279E0,9.897099981E0
4.051059585E0,7.979768515E-1,8.576546669E0,4.885710239E0,9.902731157E0
4.053464949E0,7.931885719E-1,8.593305588E0,4.880921841E0,9.914506899E0
4.055869897E0,7.836122513E-1,8.588518143E0,4.871345997E0,9.904882830E0
4.058275262E0,7.979768515E-1,8.636399269E0,4.871345997E0,9.947571121E0
4.060680626E0,8.003709316E-1,8.655552864E0,4.888104439E0,9.972600163E0
4.063086408E0,7.788239717E-1,8.629217148E0,4.916833401E0,9.962188818E0
4.065491824E0,7.524889708E-1,8.662734985E0,4.947957039E0,1.000457375E1
4.067896824E0,7.477008104E-1,8.674704552E0,4.979079723E0,1.002999454E1
4.070302606E0,7.309420109E-1,8.681887627E0,4.995838642E0,1.004329890E1
4.072707449E0,7.046068907E-1,8.669917107E0,5.036538601E0,1.005140063E1
4.075111876E0,6.758778095E-1,8.686676025E0,5.048508644E0,1.006988534E1
4.077516876E0,6.854541302E-1,8.696251869E0,5.101179600E0,1.010527967E1
4.079922137E0,6.710895300E-1,8.686676025E0,5.086814404E0,1.008882462E1
4.082327710E0,6.495426893E-1,8.689069748E0,5.134696484E0,1.011370094E1
4.084732606E0,6.734837294E-1,8.696251869E0,5.141879082E0,1.012508259E1
4.087137241E0,6.399662495E-1,8.686676025E0,5.122725964E0,1.010496009E1
4.089542553E0,6.327840090E-1,8.677098274E0,5.101179600E0,1.008535985E1
