"Time (s)","Acceleration x (m/s^2)","Acceleration y (m/s^2)","Acceleration z (m/s^2)","Absolute acceleration (m/s^2)"
1.708010400E-2,7.247679234E0,-1.478667498E0,6.441874504E0,9.808825565E0
1.950770800E-2,7.209372997E0,-1.497820258E0,6.393992424E0,9.752008186E0
2.196010400E-2,7.149521351E0,-1.488243818E0,6.365263462E0,9.687471505E0
2.441286500E-2,7.087274075E0,-1.509790659E0,6.317381382E0,9.613440028E0
2.686562500E-2,7.048968792E0,-1.531337619E0,6.259922981E0,9.550894810E0
2.931838500E-2,6.974751472E0,-1.514578938E0,6.219223499E0,9.466776030E0
3.177125000E-2,6.912505150E0,-1.536125779E0,6.159370899E0,9.385108403E0
3.422411500E-2,6.838288307E0,-1.548096299E0,6.149794579E0,9.326240533E0
3.667703100E-2,6.795194149E0,-1.562460780E0,6.123459339E0,9.279692963E0
3.913005200E-2,6.735341549E0,-1.548096299E0,6.104306221E0,9.220844992E0
4.158302100E-2,6.694642067E0,-1.531337619E0,6.054030418E0,9.155026576E0
4.403599000E-2,6.658730507E0,-1.531337619E0,5.963054657E0,9.068721393E0
4.648895800E-2,6.646759987E0,-1.533731699E0,5.948689938E0,9.050892952E0
4.894192700E-2,6.632395744E0,-1.505002499E0,5.893625736E0,8.999362763E0
5.139489600E-2,6.591696262E0,-1.524155378E0,5.852926254E0,8.945963054E0
5.384786500E-2,6.598878384E0,-1.505002499E0,5.800255775E0,8.913652198E0
5.630083300E-2,6.570148945E0,-1.471485138E0,5.742797375E0,8.849398135E0
5.875385400E-2,6.555784702E0,-1.454726458E0,5.675762653E0,8.792543649E0
6.120687500E-2,6.598878384E0,-1.461908698E0,5.673368931E0,8.824368985E0
6.365994800E-2,6.591696262E0,-1.454726458E0,5.656610012E0,8.807038407E0
6.611302100E-2,6.589301586E0,-1.423603058E0,5.690127373E0,8.821739657E0
6.856609400E-2,6.603666782E0,-1.440361857E0,5.685339451E0,8.832108577E0
7.101916700E-2,6.610848427E0,-1.416420817E0,5.761950493E0,8.883109722E0
7.347224000E-2,6.613242626E0,-1.409238577E0,5.831379414E0,8.928937074E0
7.592531200E-2,6.641972065E0,-1.416420817E0,5.917566776E0,9.007754293E0
7.837843700E-2,6.610848427E0,-1.402056217E0,5.998966217E0,9.036408259E0
8.083156200E-2,6.632395744E0,-1.414026737E0,6.152188301E0,9.156285591E0
8.328468700E-2,6.615637302E0,-1.423603058E0,6.274287224E0,9.228216661E0
8.573781200E-2,6.615637302E0,-1.442755938E0,6.396386147E0,9.314609887E0
8.819093700E-2,6.596484184E0,-1.476273298E0,6.530456066E0,9.398927751E0
9.064406200E-2,6.594089985E0,-1.466696978E0,6.592702866E0,9.439118276E0
9.309718700E-2,6.589301586E0,-1.505002499E0,6.693254948E0,9.512286250E0
9.555031200E-2,6.603666782E0,-1.500214338E0,6.748318672E0,9.560275254E0
9.800343700E-2,6.646759987E0,-1.514578938E0,6.822536469E0,9.644706919E0
1.004565620E-1,6.653942585E0,-1.545702219E0,6.875206470E0,9.691883784E0
1.029096870E-1,6.701824665E0,-1.552884459E0,6.918299675E0,9.756473460E0
1.053628120E-1,6.737736225E0,-1.557672739E0,6.932664871E0,9.792102737E0
1.078159370E-1,6.783223629E0,-1.598372340E0,6.959000111E0,9.848583628E0
1.102690620E-1,6.804770470E0,-1.612736940E0,7.002093315E0,9.896218085E0
1.127221870E-1,6.857440472E0,-1.612736940E0,7.035610676E0,9.956165318E0
1.151753120E-1,6.917293072E0,-1.605554700E0,7.071522236E0,1.002163540E1
1.176284370E-1,6.965175152E0,-1.639072061E0,7.078704834E0,1.006520165E1
1.200815620E-1,7.003480434E0,-1.646254301E0,7.085886955E0,1.009795451E1
1.225346870E-1,7.053757191E0,-1.663012981E0,7.078704834E0,1.013060535E1
1.249878120E-1,7.087274075E0,-1.679771662E0,7.061945915E0,1.014505627E1
1.274409370E-1,7.101639271E0,-1.689348102E0,7.071522236E0,1.016334611E1
1.298940620E-1,7.111215115E0,-1.713289022E0,7.121798515E0,1.020905254E1
1.323471870E-1,7.101639271E0,-1.732441783E0,7.162498474E0,1.023406172E1
1.348003650E-1,7.094456673E0,-1.765959263E0,7.184044838E0,1.024989892E1
1.372505210E-1,7.046574593E0,-1.758776903E0,7.215168476E0,1.023748826E1
1.396767710E-1,6.998692513E0,-1.770747423E0,7.253473759E0,1.023377374E1
1.420825520E-1,6.938840389E0,-1.773141623E0,7.248685837E0,1.018994522E1
1.444878650E-1,6.912505150E0,-1.777929664E0,7.272626877E0,1.018993930E1
1.468924480E-1,6.838288307E0,-1.782717943E0,7.294173241E0,1.015604419E1
1.492976560E-1,6.816740990E0,-1.758776903E0,7.320508957E0,1.015633326E1
1.517030730E-1,6.799982548E0,-1.775535703E0,7.318114281E0,1.014628436E1
1.541089580E-1,6.797588825E0,-1.780323863E0,7.286991596E0,1.012309308E1
1.565144270E-1,6.802376747E0,-1.782717943E0,7.267838478E0,1.011295648E1
1.589193750E-1,6.768859386E0,-1.775535703E0,7.224744797E0,1.005817686E1
1.613252080E-1,6.773647785E0,-1.746806502E0,7.234321594E0,1.006325227E1
1.637306250E-1,6.768859386E0,-1.734835982E0,7.215168476E0,1.004419083E1
1.661353650E-1,6.788012028E0,-1.725259542E0,7.246292114E0,1.007781609E1
1.685404170E-1,6.797588825E0,-1.703712702E0,7.267838478E0,1.009610454E1
1.709454690E-1,6.785618305E0,-1.677377582E0,7.298962116E0,1.010609021E1
1.733510940E-1,6.833499432E0,-1.660618901E0,7.306143761E0,1.014071527E1
1.757564580E-1,6.855046749E0,-1.639072061E0,7.279808998E0,1.013281018E1
1.781613540E-1,6.910110950E0,-1.603160620E0,7.210380554E0,1.011480821E1
1.805668750E-1,6.957993031E0,-1.591190100E0,7.088280678E0,1.005928804E1
1.829719270E-1,7.022633553E0,-1.579219580E0,6.978152275E0,1.002526437E1
1.853766670E-1,7.036998272E0,-1.560066819E0,6.872812271E0,9.959352473E0
1.877816670E-1,7.113609791E0,-1.548096299E0,6.781836510E0,9.949540334E0
1.901867190E-1,7.135156155E0,-1.514578938E0,6.659737587E0,9.877069780E0
1.925924480E-1,7.142338753E0,-1.507396579E0,6.587914467E0,9.832897047E0
1.949977600E-1,7.163885593E0,-1.493031979E0,6.559185505E0,9.827172318E0
1.974023440E-1,7.180644035E0,-1.459514618E0,6.520879745E0,9.808858462E0
1.998073960E-1,7.180644035E0,-1.454726458E0,6.382021904E0,9.716382115E0
2.022125000E-1,7.147126675E0,-1.457120538E0,6.571156025E0,9.817571567E0
2.046172400E-1,7.190220833E0,-1.428391337E0,6.262316704E0,9.641378944E0
2.070224480E-1,7.139944553E0,-1.414026737E0,6.300622940E0,9.626844201E0
2.094279690E-1,7.113609791E0,-1.409238577E0,6.652555466E0,9.841031036E0
2.118336980E-1,7.123185635E0,-1.399662256E0,6.099518299E0,9.481716696E0
2.142388540E-1,7.060939312E0,-1.421209097E0,6.738742828E0,9.863435212E0
2.166433850E-1,7.036998272E0,-1.394873977E0,6.310198784E0,9.554246531E0
2.190487500E-1,6.934051991E0,-1.428391337E0,6.403568745E0,9.546050046E0
2.214538540E-1,6.902928829E0,-1.435573578E0,6.664525986E0,9.701917570E0
2.238586460E-1,6.857440472E0,-1.425997257E0,6.118670940E0,9.300327525E0
2.262636980E-1,6.792799950E0,-1.452332377E0,6.805777550E0,9.724711232E0
2.286688020E-1,6.747312069E0,-1.445150137E0,6.331746101E0,9.365131487E0
2.310741670E-1,6.668307304E0,-1.469091058E0,6.520879745E0,9.441738373E0
2.334789060E-1,6.625213146E0,-1.466696978E0,6.693254948E0,9.531228203E0
2.358834900E-1,6.553390026E0,-1.469091058E0,6.257528782E0,9.179423502E0
2.382891670E-1,6.467202663E0,-1.509790659E0,6.899147511E0,9.576137765E0
2.406943230E-1,6.455232143E0,-1.524155378E0,6.389204502E0,9.209506274E0
2.430989580E-1,6.381015301E0,-1.505002499E0,6.712407589E0,9.382899575E0
2.455042190E-1,6.352286339E0,-1.526549339E0,6.798595428E0,9.428827839E0
2.479094270E-1,6.306797981E0,-1.514578938E0,6.417933464E0,9.124665478E0
2.503149480E-1,6.256522179E0,-1.516972899E0,7.076310158E0,9.566579430E0
2.527204170E-1,6.244551659E0,-1.485849738E0,6.530456066E0,9.156911668E0
2.551252080E-1,6.182305336E0,-1.516972899E0,6.992517471E0,9.456077762E0
2.575304170E-1,6.165545940E0,-1.483455539E0,7.045187473E0,9.478885146E0
2.599351560E-1,6.124846458E0,-1.481061459E0,6.798595428E0,9.269745789E0
2.623396350E-1,6.103299618E0,-1.500214338E0,7.449790001E0,9.746808726E0
2.647449480E-1,6.091329098E0,-1.454726458E0,6.872812271E0,9.298175507E0
2.671501560E-1,6.055417538E0,-1.476273298E0,7.394725800E0,9.671061682E0
2.695555210E-1,6.055417538E0,-1.433179617E0,7.277414799E0,9.575116267E0
2.719602600E-1,6.074570656E0,-1.402056217E0,7.047581196E0,9.409281110E0
2.743645310E-1,6.110482216E0,-1.385297537E0,7.610194683E0,9.857591252E0
2.767696350E-1,6.179911137E0,-1.349386096E0,6.985334873E0,9.423749136E0
2.791745310E-1,6.199063778E0,-1.337415576E0,7.478519440E0,9.805372260E0
2.815792190E-1,6.285251141E0,-1.270380855E0,7.258262157E0,9.685071965E0
2.839841670E-1,6.354680061E0,-1.258410335E0,7.069128513E0,9.588437474E0
2.863891670E-1,6.400167942E0,-1.236863494E0,7.538372040E0,9.965893537E0
2.887946870E-1,6.481567383E0,-1.205740213E0,6.853659153E0,9.509845897E0
2.911999480E-1,6.510296822E0,-1.200951934E0,7.397119999E0,9.926914653E0
2.936048960E-1,6.574937344E0,-1.167434573E0,7.088280678E0,9.738399639E0
2.960103650E-1,6.596484184E0,-1.186587334E0,6.994911194E0,9.687640358E0
2.984154170E-1,6.641972065E0,-1.188981414E0,7.375572681E0,9.996426466E0
3.008203120E-1,6.646759987E0,-1.186587334E0,6.738742828E0,9.539290473E0
3.032255210E-1,6.627607346E0,-1.196163654E0,7.361208439E0,9.977142692E0
3.056305210E-1,6.641972065E0,-1.208134174E0,6.944635391E0,9.685212533E0
3.080358330E-1,6.627607346E0,-1.224892974E0,6.992517471E0,9.711891809E0
3.104405210E-1,6.627607346E0,-1.241651535E0,7.308538437E0,9.943923358E0
3.128445310E-1,6.589301586E0,-1.248834014E0,6.721983910E0,9.495448882E0
3.152493230E-1,6.536631584E0,-1.279957175E0,7.320508957E0,9.897256904E0
3.176541670E-1,6.539025784E0,-1.282351375E0,6.779442310E0,9.506004486E0
3.200588020E-1,6.464808464E0,-1.318262815E0,6.875206470E0,9.528904939E0
3.224636980E-1,6.455232143E0,-1.337415576E0,7.066734314E0,9.664234906E0
3.248687500E-1,6.416926861E0,-1.320656896E0,6.487362385E0,9.219921675E0
3.272742710E-1,6.388197422E0,-1.349386096E0,7.052370071E0,9.610714477E0
3.296791670E-1,6.397774220E0,-1.332627296E0,6.461027145E0,9.189792285E0
3.320836980E-1,6.390591621E0,-1.346991897E0,6.650160789E0,9.320873723E0
3.344894270E-1,6.390591621E0,-1.330233335E0,6.760289192E0,9.397376866E0
3.368946350E-1,6.416926861E0,-1.306292295E0,6.291046143E0,9.080782536E0
3.392993750E-1,6.416926861E0,-1.332627296E0,6.918299675E0,9.529728026E0
3.417045310E-1,6.471991062E0,-1.284745455E0,6.295834541E0,9.120020382E0
3.441096870E-1,6.457626343E0,-1.260804415E0,6.619038105E0,9.332857611E0
3.465153650E-1,6.507902622E0,-1.253622055E0,6.635796547E0,9.378601208E0
3.489204170E-1,6.529448986E0,-1.244045734E0,6.250346184E0,9.124044129E0
3.513249480E-1,6.570148945E0,-1.244045734E0,6.870418549E0,9.587343635E0
3.537302600E-1,6.613242626E0,-1.205740213E0,6.276681900E0,9.197038826E0
3.561352600E-1,6.603666782E0,-1.200951934E0,6.693254948E0,9.478943101E0
3.585399480E-1,6.608454704E0,-1.200951934E0,6.674101830E0,9.468769421E0
3.609450000E-1,6.620425224E0,-1.167434573E0,6.391598225E0,9.276069291E0
3.633500520E-1,6.582119465E0,-1.215316534E0,7.023640156E0,9.702206551E0
3.657554170E-1,6.562966824E0,-1.205740213E0,6.429903984E0,9.266607159E0
3.681603650E-1,6.486355782E0,-1.229681253E0,7.030822754E0,9.644552655E0
3.705650520E-1,6.481567383E0,-1.205740213E0,6.930270195E0,9.565206228E0
3.729705210E-1,6.445655823E0,-1.203346133E0,6.805777550E0,9.450562362E0
3.753752600E-1,6.412138462E0,-1.210528374E0,7.373178959E0,9.846048271E0
3.777797920E-1,6.424108982E0,-1.198557854E0,6.741137028E0,9.388751012E0
3.801852080E-1,6.390591621E0,-1.220104694E0,7.260656357E0,9.749125472E0
3.825904170E-1,6.416926861E0,-1.217710733E0,6.947029591E0,9.535249860E0
3.849957810E-1,6.426503181E0,-1.200951934E0,6.779442310E0,9.418230552E0
3.874008850E-1,6.443261623E0,-1.222498775E0,7.167286396E0,9.714943020E0
3.898059900E-1,6.495932102E0,-1.229681253E0,6.461027145E0,9.244139854E0
3.922121350E-1,6.452837944E0,-1.289533615E0,6.961393833E0,9.579301570E0
3.946178650E-1,6.469596863E0,-1.289533615E0,6.568761826E0,9.309522675E0
3.970229170E-1,6.452837944E0,-1.308686495E0,6.523273945E0,9.268488595E0
3.994282290E-1,6.424108982E0,-1.330233335E0,6.875206470E0,9.503007995E0
4.018336980E-1,6.436079502E0,-1.344597816E0,6.288652420E0,9.098253234E0
4.042392710E-1,6.371438503E0,-1.392479777E0,6.968576431E0,9.544385051E0
4.066443230E-1,6.414532661E0,-1.378115177E0,6.556791306E0,9.275610111E0
4.090494270E-1,6.397774220E0,-1.433179617E0,6.693254948E0,9.369374609E0
4.114554170E-1,6.395379543E0,-1.457120538E0,7.021246433E0,9.608432819E0
4.138608330E-1,6.416926861E0,-1.435573578E0,6.477786064E0,9.230359372E0
4.162658330E-1,6.402562141E0,-1.481061459E0,7.145739555E0,9.708137762E0
4.186714060E-1,6.445655823E0,-1.459514618E0,6.683678150E0,9.399373145E0
4.210769270E-1,6.481567383E0,-1.490637898E0,6.937452793E0,9.610461401E0
4.234828650E-1,6.546208382E0,-1.490637898E0,7.150527954E0,9.808409430E0
4.258882290E-1,6.586907864E0,-1.459514618E0,6.724378109E0,9.525481567E0
4.282931770E-1,6.610848427E0,-1.478667498E0,7.423454762E0,1.004974901E1
4.306989580E-1,6.697036266E0,-1.428391337E0,6.848871231E0,9.684917847E0
4.331042710E-1,6.752100468E0,-1.464302778E0,7.212774277E0,9.987950546E0
4.355091150E-1,6.816740990E0,-1.435573578E0,7.298962116E0,1.008978083E1
4.379140620E-1,6.881381512E0,-1.414026737E0,6.920694351E0,9.861485356E0
4.403190620E-1,6.946022511E0,-1.414026737E0,7.555130482E0,1.035985989E1
4.427244270E-1,7.022633553E0,-1.416420817E0,6.944635391E0,9.977554343E0
4.451295310E-1,7.046574593E0,-1.416420817E0,7.349237919E0,1.027967701E1
4.475343750E-1,7.092062473E0,-1.382903457E0,7.251080036E0,1.023659776E1
4.499398960E-1,7.130368233E0,-1.387691736E0,6.896753311E0,1.001663844E1
4.523446870E-1,7.144732475E0,-1.409238577E0,7.488095284E0,1.044532079E1
4.547491150E-1,7.132761955E0,-1.366144776E0,6.846477509E0,9.980826566E0
4.571541670E-1,7.139944553E0,-1.406844497E0,7.286991596E0,1.029845941E1
4.595591150E-1,7.161491871E0,-1.390085697E0,7.143345356E0,1.021012669E1
4.619643230E-1,7.130368233E0,-1.385297537E0,6.889570713E0,1.001136279E1
4.643689580E-1,7.113609791E0,-1.402056217E0,7.399513721E0,1.035963364E1
4.667732290E-1,7.104032993E0,-1.385297537E0,6.757895470E0,9.902296967E0
4.691784900E-1,7.041786671E0,-1.399662256E0,7.270232201E0,1.021773410E1
4.715833850E-1,7.025027752E0,-1.404450297E0,7.035610676E0,1.004108127E1
4.739879690E-1,6.967569828E0,-1.409238577E0,6.906329155E0,9.911123300E0
4.763930730E-1,6.919687748E0,-1.404450297E0,7.334873199E0,1.018110623E1
4.787981770E-1,6.895746708E0,-1.392479777E0,6.702831268E0,9.716906380E0
4.812035940E-1,6.821529388E0,-1.404450297E0,7.260656357E0,1.006095793E1
4.836082810E-1,6.819135189E0,-1.370932937E0,6.872812271E0,9.778323494E0
4.860125000E-1,6.783223629E0,-1.358962417E0,6.829718590E0,9.721314606E0
4.884178650E-1,6.723371029E0,-1.361356616E0,7.174468994E0,9.926228648E0
4.908229690E-1,6.699429989E0,-1.354174376E0,6.556791306E0,9.471412917E0
4.932277600E-1,6.610848427E0,-1.344597816E0,7.198410034E0,9.865514038E0
4.956329690E-1,6.553390026E0,-1.335021496E0,6.789019108E0,9.529951924E0
4.980379690E-1,6.493537426E0,-1.325445056E0,6.846477509E0,9.528750557E0
5.004433850E-1,6.412138462E0,-1.339809656E0,7.140951157E0,9.690396947E0
5.028484370E-1,6.378621101E0,-1.311080456E0,6.535244465E0,9.225787735E0
5.052531250E-1,6.321162701E0,-1.335021496E0,7.124192238E0,9.617353863E0
5.076586980E-1,6.278069019E0,-1.318262815E0,6.621431828E0,9.219291020E0
5.100639580E-1,6.251733780E0,-1.346991897E0,6.714801788E0,9.272924322E0
5.124686460E-1,6.234975338E0,-1.327839255E0,6.877600193E0,9.377604117E0
5.148733330E-1,6.261310101E0,-1.337415576E0,6.295834541E0,8.979433009E0
5.172779170E-1,6.225398540E0,-1.358962417E0,6.860841751E0,9.363413660E0
5.196830730E-1,6.270886421E0,-1.327839255E0,6.259922981E0,8.959565242E0
5.220880210E-1,6.275674820E0,-1.349386096E0,6.422721863E0,9.080544775E0
5.244926560E-1,6.323556423E0,-1.318262815E0,6.480179787E0,9.149749327E0
5.268981250E-1,6.345103741E0,-1.351780176E0,5.972630978E0,8.818161482E0
5.293032290E-1,6.361862659E0,-1.358962417E0,6.554397106E0,9.234727758E0
5.317079170E-1,6.450444221E0,-1.349386096E0,5.958266258E0,8.884256316E0
5.341131770E-1,6.443261623E0,-1.354174376E0,6.300622940E0,9.113026831E0
5.365183850E-1,6.479173183E0,-1.327839255E0,6.341322422E0,9.162707694E0
5.389235420E-1,6.498326302E0,-1.318262815E0,5.994177818E0,8.938469069E0
5.413281250E-1,6.505507946E0,-1.349386096E0,6.654949188E0,9.403766542E0
5.437325520E-1,6.558178425E0,-1.301504135E0,6.080365181E0,9.037392212E0
5.461378650E-1,6.531843662E0,-1.323050976E0,6.537638187E0,9.335746279E0
5.485425520E-1,6.572543144E0,-1.291927695E0,6.508909225E0,9.339876865E0
5.509470310E-1,6.572543144E0,-1.256016254E0,6.250346184E0,9.156567459E0
5.533520310E-1,6.586907864E0,-1.263198614E0,6.836900711E0,9.577381546E0
5.557570310E-1,6.622818947E0,-1.232075214E0,6.281469822E0,9.210678762E0
5.581621870E-1,6.646759987E0,-1.212922454E0,6.796200752E0,9.583263738E0
5.605669270E-1,6.697036266E0,-1.184193254E0,6.664525986E0,9.522001629E0
5.629714580E-1,6.704218864E0,-1.172222853E0,6.487362385E0,9.402474552E0
5.653765620E-1,6.720977306E0,-1.157858253E0,7.006881714E0,9.777963133E0
5.677812500E-1,6.752100468E0,-1.124340773E0,6.382021904E0,9.358696837E0
5.701855210E-1,6.742524147E0,-1.155464053E0,6.973364353E0,9.768548482E0
5.725901560E-1,6.776041508E0,-1.133917212E0,6.726772308E0,9.615090870E0
5.749951560E-1,6.768859386E0,-1.119552612E0,6.604673386E0,9.523264460E0
5.774006250E-1,6.756888866E0,-1.136311293E0,7.049975395E0,9.831017423E0
5.798055730E-1,6.797588825E0,-1.119552612E0,6.456238747E0,9.441590472E0
5.822101560E-1,6.752100468E0,-1.153069973E0,7.045187473E0,9.826245347E0
5.846155730E-1,6.778435707E0,-1.138705373E0,6.748318672E0,9.632426769E0
5.870206250E-1,6.730553627E0,-1.157858253E0,6.710013390E0,9.574198011E0
5.894250000E-1,6.735341549E0,-1.150675774E0,7.131374836E0,9.876506850E0
5.918296870E-1,6.752100468E0,-1.138705373E0,6.556791306E0,9.480454782E0
5.942343750E-1,6.730553627E0,-1.186587334E0,7.181651115E0,9.913851642E0
5.966395830E-1,6.764070988E0,-1.162646294E0,6.812959671E0,9.670616434E0
5.990446870E-1,6.766465187E0,-1.172222853E0,6.889570713E0,9.727555816E0
6.014494270E-1,6.780829430E0,-1.174616814E0,7.212774277E0,9.969126601E0
6.038550000E-1,6.819135189E0,-1.181799173E0,6.664525986E0,9.607973804E0
6.062599480E-1,6.802376747E0,-1.208134174E0,7.308538437E0,1.005716917E1
6.086643750E-1,6.876593590E0,-1.184193254E0,6.827324390E0,9.762285152E0
6.110694270E-1,6.874199867E0,-1.198557854E0,6.997305393E0,9.881975891E0
6.134744790E-1,6.898140430E0,-1.167434573E0,7.210380554E0,1.004673243E1
6.158799480E-1,6.929263592E0,-1.145887733E0,6.738742828E0,9.733365683E0
6.182853120E-1,6.936446190E0,-1.172222853E0,7.365996361E0,1.018559250E1
6.206900520E-1,6.967569828E0,-1.188981414E0,6.856053352E0,9.847140381E0
6.230953120E-1,6.938840389E0,-1.174616814E0,7.138557434E0,1.002428216E1
6.255004170E-1,6.953204632E0,-1.162646294E0,7.263050556E0,1.012179354E1
6.279050520E-1,6.977145672E0,-1.160252333E0,6.836900711E0,9.837172283E0
6.303099480E-1,6.953204632E0,-1.184193254E0,7.480913162E0,1.028170366E1
6.327147400E-1,7.003480434E0,-1.150675774E0,6.882388592E0,9.886357553E0
6.351200000E-1,6.979540348E0,-1.172222853E0,7.243897438E0,1.012729678E1
6.375249480E-1,7.027421474E0,-1.172222853E0,7.263050556E0,1.017401899E1
6.399295830E-1,7.039391994E0,-1.162646294E0,6.911118031E0,9.933193771E0
6.423350000E-1,7.077698231E0,-1.174616814E0,7.492883682E0,1.037385381E1
6.447398440E-1,7.125580311E0,-1.150675774E0,6.877600193E0,9.969921460E0
6.471444790E-1,7.123185635E0,-1.157858253E0,7.289385319E0,1.025746302E1
6.495496870E-1,7.187826633E0,-1.155464053E0,7.205591679E0,1.024307084E1
6.519550520E-1,7.223738194E0,-1.150675774E0,6.918299675E0,1.006823314E1
6.543607810E-1,7.252467155E0,-1.133917212E0,7.459366322E0,1.046547629E1
6.567659900E-1,7.312319756E0,-1.117158413E0,6.844082832E0,1.007767498E1
6.591708330E-1,7.338654518E0,-1.133917212E0,7.344449997E0,1.044425987E1
6.615764060E-1,7.367383957E0,-1.095611691E0,7.174468994E0,1.034174631E1
6.639817190E-1,7.386536598E0,-1.102793932E0,6.990122795E0,1.022931542E1
6.663867710E-1,7.376960278E0,-1.057306051E0,7.464154243E0,1.054756074E1
6.687919270E-1,7.417660236E0,-1.042941451E0,6.870418549E0,1.016425409E1
6.711968750E-1,7.369778156E0,-1.050123811E0,7.435425282E0,1.052149890E1
6.736023440E-1,7.405689716E0,-1.030970931E0,7.143345356E0,1.034091505E1
6.760074480E-1,7.379354477E0,-1.028576851E0,7.047581196E0,1.025579073E1
6.784122920E-1,7.364989758E0,-1.016606331E0,7.452184200E0,1.052670945E1
6.808180210E-1,7.362595558E0,-9.878771901E-1,6.827324390E0,1.008940400E1
6.832232810E-1,7.326683998E0,-9.974536300E-1,7.416272640E0,1.047264589E1
6.856283850E-1,7.338654518E0,-9.806949496E-1,7.026034355E0,1.020699620E1
6.880339060E-1,7.307531834E0,-9.806949496E-1,7.035610676E0,1.019125123E1
6.904393750E-1,7.285984516E0,-9.854831696E-1,7.327691078E0,1.038035664E1
6.928452080E-1,7.293166637E0,-9.783008099E-1,6.765078068E0,9.995680734E0
6.952504690E-1,7.218949795E0,-1.004635930E0,7.389937401E0,1.037948478E1
6.976554170E-1,7.238102436E0,-9.830890298E-1,6.915905952E0,1.005914241E1
7.000613020E-1,7.185432434E0,-9.854831696E-1,7.131374836E0,1.017143664E1
7.024666150E-1,7.171067715E0,-1.019000530E0,7.021246433E0,1.008763975E1
7.048713020E-1,7.137550831E0,-1.002241850E0,7.004487991E0,1.005047126E1
7.072765620E-1,7.132761955E0,-1.014212251E0,6.978152275E0,1.002993164E1
7.096818230E-1,7.096850872E0,-1.040547371E0,7.009275913E0,1.002885736E1
7.120873440E-1,7.070515633E0,-1.054911971E0,6.994911194E0,1.000169052E1
7.144924480E-1,7.053757191E0,-1.033365011E0,6.992517471E0,9.985921807E0
7.168969790E-1,7.044180870E0,-1.052517891E0,7.002093315E0,9.987872087E0
7.193022920E-1,6.998692513E0,-1.062094212E0,7.030822754E0,9.977084223E0
7.217073440E-1,6.972357750E0,-1.057306051E0,7.035610676E0,9.961500201E0
7.241119790E-1,6.979540348E0,-1.088429332E0,7.052370071E0,9.981712554E0
7.265172400E-1,7.001086712E0,-1.059700131E0,7.061945915E0,1.000046297E1
7.289223960E-1,6.998692513E0,-1.040547371E0,7.047581196E0,9.986632887E0
7.313278650E-1,7.013057232E0,-1.054911971E0,7.030822754E0,9.986404739E0
7.337331770E-1,7.056151390E0,-1.028576851E0,7.040399551E0,1.002070200E1
7.361380730E-1,7.116003513E0,-1.019000530E0,6.997305393E0,1.003185680E1
7.385436980E-1,7.123185635E0,-1.009424090E0,6.975758553E0,1.002097390E1
7.409490620E-1,7.173462391E0,-1.016606331E0,6.992517471E0,1.006912865E1
7.433540620E-1,7.204585075E0,-9.878771901E-1,6.966181755E0,1.007023514E1
7.457592190E-1,7.218949795E0,-9.591479897E-1,6.968576431E0,1.007939772E1
7.481644270E-1,7.233314037E0,-9.711185098E-1,6.975758553E0,1.009579668E1
7.505702080E-1,7.233314037E0,-9.591479897E-1,6.970970154E0,1.009134390E1
7.529754690E-1,7.204585075E0,-9.591479897E-1,6.956605911E0,1.006083380E1
7.553798440E-1,7.197402477E0,-9.423893094E-1,7.023640156E0,1.010060499E1
7.577847400E-1,7.199797153E0,-9.495716691E-1,7.030822754E0,1.010797873E1
7.601896350E-1,7.159097195E0,-9.567539692E-1,7.021246433E0,1.007303094E1
7.625943750E-1,7.139944553E0,-9.399952888E-1,7.049975395E0,1.007792401E1
7.649994790E-1,7.147126675E0,-9.543598294E-1,7.061945915E0,1.009273513E1
7.674045310E-1,7.127974033E0,-9.495716691E-1,7.057157993E0,1.007537489E1
7.698100000E-1,7.101639271E0,-9.304189086E-1,7.047581196E0,1.004825161E1
7.722151040E-1,7.075303555E0,-9.423893094E-1,7.042793274E0,1.002741019E1
7.746196870E-1,7.063333035E0,-9.591479897E-1,7.002093315E0,9.991994256E0
7.770250520E-1,7.036998272E0,-9.806949496E-1,7.009275913E0,9.980533858E0
7.794298440E-1,7.017845631E0,-9.783008099E-1,6.975758553E0,9.943260891E0
7.818342190E-1,6.974751472E0,-1.002241850E0,6.951817513E0,9.898455110E0
7.842392190E-1,6.953204632E0,-9.998477101E-1,6.985334873E0,9.906646930E0
7.866443750E-1,6.929263592E0,-1.011818171E0,6.968576431E0,9.879247310E0
7.890502080E-1,6.905322552E0,-1.004635930E0,6.970970154E0,9.863427284E0
7.914557810E-1,6.881381512E0,-1.040547371E0,6.956605911E0,9.840249801E0
7.938608330E-1,6.869410992E0,-1.042941451E0,6.949423313E0,9.827055440E0
7.962664580E-1,6.804770470E0,-1.045335531E0,6.932664871E0,9.770336214E0
7.986715620E-1,6.799982548E0,-1.052517891E0,6.913511753E0,9.754188911E0
8.010760420E-1,6.802376747E0,-1.057306051E0,6.913511753E0,9.756375877E0
8.034812500E-1,6.795194149E0,-1.074064732E0,6.927876472E0,9.763388294E0
8.058865620E-1,6.795194149E0,-1.069276571E0,6.939846992E0,9.771360816E0
8.082918230E-1,6.792799950E0,-1.083641171E0,6.956605911E0,9.783188394E0
8.106968750E-1,6.807164669E0,-1.057306051E0,6.944635391E0,9.781786526E0
8.131016150E-1,6.778435707E0,-1.069276571E0,6.978152275E0,9.786988924E0
8.155069790E-1,6.783223629E0,-1.062094212E0,6.975758553E0,9.787817647E0
8.179123960E-1,6.790406227E0,-1.076458812E0,6.975758553E0,9.794365099E0
8.203173960E-1,6.783223629E0,-1.078852892E0,6.994911194E0,9.803307043E0
8.227225000E-1,6.773647785E0,-1.078852892E0,6.999699593E0,9.800103176E0
8.251276560E-1,6.783223629E0,-1.074064732E0,6.966181755E0,9.782301677E0
8.275331250E-1,6.768859386E0,-1.081246972E0,6.975758553E0,9.779967269E0
8.299378120E-1,6.773647785E0,-1.093217492E0,7.006881714E0,9.806825182E0
8.323420830E-1,6.795194149E0,-1.088429332E0,7.016458511E0,9.828022791E0
8.347473960E-1,6.790406227E0,-1.086035252E0,7.016458511E0,9.824448042E0
8.371526560E-1,6.780829430E0,-1.102793932E0,7.016458511E0,9.819699194E0
8.395576040E-1,6.804770470E0,-1.109976172E0,7.009275913E0,9.831932520E0
8.419631770E-1,6.809558868E0,-1.119552612E0,7.009275913E0,9.836332592E0
8.443687500E-1,6.826317787E0,-1.138705373E0,6.999699593E0,9.843325599E0
8.467742710E-1,6.874199867E0,-1.133917212E0,6.999699593E0,9.876041031E0
8.491794790E-1,6.857440472E0,-1.133917212E0,6.994911194E0,9.860985786E0
8.515842710E-1,6.902928829E0,-1.141099453E0,6.985334873E0,9.886730383E0
8.539901560E-1,6.898140430E0,-1.155464053E0,6.985334873E0,9.885056493E0
8.563959900E-1,6.914899349E0,-1.165040493E0,6.999699593E0,9.908024361E0
8.588013540E-1,6.926869869E0,-1.169828653E0,7.004487991E0,9.920326471E0
8.612067190E-1,6.893352032E0,-1.177011013E0,7.028429031E0,9.914760300E0
8.636119270E-1,6.924475670E0,-1.184193254E0,7.057157993E0,9.957617984E0
8.660175520E-1,6.902928829E0,-1.208134174E0,7.064340591E0,9.950624231E0
8.684226560E-1,6.895746708E0,-1.215316534E0,7.081099033E0,9.958427610E0
8.708272400E-1,6.898140430E0,-1.239257574E0,7.093069553E0,9.971546341E0
8.732326560E-1,6.890958309E0,-1.224892974E0,7.083492756E0,9.957988694E0
8.756377080E-1,6.898140430E0,-1.244045734E0,7.078704834E0,9.961930200E0
8.780423960E-1,6.902928829E0,-1.248834014E0,7.083492756E0,9.969246834E0
8.804473440E-1,6.898140430E0,-1.253622055E0,7.081099033E0,9.964831819E0
8.828520830E-1,6.890958309E0,-1.277563095E0,7.071522236E0,9.956098664E0
8.852570310E-1,6.893352032E0,-1.267986655E0,7.064340591E0,9.951432077E0
8.876616670E-1,6.919687748E0,-1.301504135E0,7.049975395E0,9.963841860E0
8.900660940E-1,6.917293072E0,-1.287139416E0,7.061945915E0,9.968788865E0
8.924715620E-1,6.907717228E0,-1.306292295E0,7.069128513E0,9.969730929E0
8.948770310E-1,6.910110950E0,-1.296715975E0,7.054763794E0,9.959959732E0
8.972824480E-1,6.900534630E0,-1.320656896E0,7.033216953E0,9.941209862E0
8.996884900E-1,6.876593590E0,-1.318262815E0,7.028429031E0,9.920895670E0
9.020942190E-1,6.878987789E0,-1.320656896E0,7.018852234E0,9.916092694E0
9.045000520E-1,6.874199867E0,-1.330233335E0,6.994911194E0,9.897117113E0
9.069054170E-1,6.852652550E0,-1.337415576E0,6.999699593E0,9.886522229E0
9.093105730E-1,6.850258827E0,-1.339809656E0,6.978152275E0,9.869941494E0
9.117167190E-1,6.816740990E0,-1.337415576E0,6.939846992E0,9.819272601E0
9.141222920E-1,6.814347267E0,-1.346991897E0,6.918299675E0,9.803702680E0
9.165271870E-1,6.797588825E0,-1.337415576E0,6.908723831E0,9.783984834E0
9.189326040E-1,6.792799950E0,-1.361356616E0,6.918299675E0,9.790724865E0
9.213382810E-1,6.795194149E0,-1.346991897E0,6.970970154E0,9.827689229E0
9.237441150E-1,6.788012028E0,-1.332627296E0,7.026034355E0,9.859927057E0
9.261496870E-1,6.792799950E0,-1.320656896E0,7.088280678E0,9.906058185E0
9.285548960E-1,6.823923588E0,-1.301504135E0,7.117010593E0,9.945435432E0
9.309606770E-1,6.804770470E0,-1.301504135E0,7.157710075E0,9.961507300E0
9.333660940E-1,6.852652550E0,-1.291927695E0,7.160103798E0,9.994749148E0
9.357711980E-1,6.857440472E0,-1.291927695E0,7.152921677E0,9.992890248E0
9.381767190E-1,6.876593590E0,-1.289533615E0,7.119404316E0,9.981801148E0
9.405821870E-1,6.867017269E0,-1.272774935E0,7.128981113E0,9.979892481E0
9.429882810E-1,6.871805668E0,-1.282351375E0,7.133769035E0,9.987832539E0
9.453939060E-1,6.850258827E0,-1.270380855E0,7.169680595E0,9.997211279E0
9.477988540E-1,6.845469952E0,-1.284745455E0,7.222351074E0,1.003361275E1
9.502046350E-1,6.847864628E0,-1.265592575E0,7.265444279E0,1.006387873E1
9.526101560E-1,6.823923588E0,-1.258410335E0,7.294173241E0,1.006749686E1
9.550154170E-1,6.833499432E0,-1.260804415E0,7.313326359E0,1.008816558E1
9.574209900E-1,6.831105709E0,-1.246439815E0,7.358814240E0,1.011779445E1
9.598260420E-1,6.840682030E0,-1.236863494E0,7.361208439E0,1.012482847E1
9.622313020E-1,6.859835148E0,-1.239257574E0,7.361208439E0,1.013807118E1
9.646365620E-1,6.895746708E0,-1.227287054E0,7.363602161E0,1.016268631E1
9.670413540E-1,6.883776188E0,-1.203346133E0,7.351631641E0,1.014302244E1
9.694465100E-1,6.883776188E0,-1.208134174E0,7.325296879E0,1.012452158E1
9.718517190E-1,6.886170387E0,-1.200951934E0,7.272626877E0,1.008725581E1
9.742568750E-1,6.912505150E0,-1.184193254E0,7.243897438E0,1.008261331E1
9.766622920E-1,6.886170387E0,-1.150675774E0,7.198410034E0,1.002798606E1
9.790676560E-1,6.895746708E0,-1.157858253E0,7.181651115E0,1.002337623E1
9.814733330E-1,6.862229347E0,-1.141099453E0,7.207985878E0,1.001735294E1
9.838788540E-1,6.840682030E0,-1.143493533E0,7.217562199E0,1.000978083E1
9.862841150E-1,6.819135189E0,-1.133917212E0,7.205591679E0,9.985335468E0
9.886901040E-1,6.795194149E0,-1.133917212E0,7.196015358E0,9.962081550E0
9.910953650E-1,6.776041508E0,-1.109976172E0,7.234321594E0,9.974076125E0
9.935000000E-1,6.797588825E0,-1.119552612E0,7.260656357E0,1.000888319E1
9.959050520E-1,6.819135189E0,-1.119552612E0,7.239109516E0,1.000793232E1
9.983100520E-1,6.819135189E0,-1.095611691E0,7.234321594E0,1.000181877E1
1.000715365E0,6.833499432E0,-1.090823412E0,7.231926918E0,1.000936447E1
1.003120573E0,6.862229347E0,-1.081246972E0,7.231926918E0,1.002796358E1
1.005525521E0,6.883776188E0,-1.088429332E0,7.186439514E0,1.001079247E1
1.007930781E0,6.910110950E0,-1.090823412E0,7.198410034E0,1.003776051E1
1.010335729E0,6.919687748E0,-1.088429332E0,7.193621159E0,1.004066444E1
1.012740833E0,6.922081470E0,-1.093217492E0,7.167286396E0,1.002398776E1
1.015146458E0,6.936446190E0,-1.109976172E0,7.131374836E0,1.001013686E1
1.017552031E0,6.962780952E0,-1.112370372E0,7.095463276E0,1.000316378E1
1.019957865E0,6.965175152E0,-1.098005652E0,7.064340591E0,9.981191778E0
1.022362969E0,6.965175152E0,-1.090823412E0,7.059551716E0,9.977015137E0
1.024767552E0,7.013057232E0,-1.090823412E0,7.023640156E0,9.985208485E0
1.027173073E0,6.996298790E0,-1.071670651E0,6.985334873E0,9.944424470E0
1.029578177E0,7.003480434E0,-1.078852892E0,7.006881714E0,9.965392772E0
1.031982760E0,6.998692513E0,-1.076458812E0,6.951817513E0,9.923115800E0
1.034388073E0,6.996298790E0,-1.033365011E0,6.918299675E0,9.893377098E0
1.036793646E0,7.015450954E0,-1.052517891E0,6.925482273E0,9.913962413E0
1.039199479E0,6.977145672E0,-1.028576851E0,6.884782791E0,9.855900068E0
1.041604740E0,6.986721992E0,-1.021394610E0,6.889570713E0,9.865278291E0
1.044009583E0,6.977145672E0,-1.011818171E0,6.903935432E0,9.867556039E0
1.046415104E0,6.957993031E0,-9.998477101E-1,6.908723831E0,9.856156829E0
1.048820469E0,6.943628788E0,-9.902713299E-1,6.903935432E0,9.841694087E0
1.051225729E0,6.955599308E0,-9.711185098E-1,6.899147511E0,9.844880358E0
1.053631250E0,6.962780952E0,-9.591479897E-1,6.894359112E0,9.845428940E0
1.056036667E0,6.943628788E0,-9.567539692E-1,6.889570713E0,9.828303186E0
1.058442708E0,6.953204632E0,-9.471775889E-1,6.887176991E0,9.832466981E0
1.060848385E0,6.967569828E0,-9.256306291E-1,6.860841751E0,9.822167322E0
1.063253594E0,6.979540348E0,-9.064778686E-1,6.829718590E0,9.807178066E0
1.065659479E0,6.972357750E0,-9.280247688E-1,6.789019108E0,9.775775315E0
1.068064844E0,6.984328270E0,-9.328129292E-1,6.760289192E0,9.764860025E0
1.070469792E0,6.943628788E0,-9.256306291E-1,6.721983910E0,9.708544715E0
1.072875052E0,6.946022511E0,-9.184483886E-1,6.683678150E0,9.683095051E0
1.075280260E0,6.926869869E0,-9.064778686E-1,6.650160789E0,9.645095481E0
1.077686042E0,6.917293072E0,-9.016897082E-1,6.635796547E0,9.627864955E0
1.080091458E0,6.883776188E0,-9.088719487E-1,6.650160789E0,9.614419449E0
1.082496042E0,6.869410992E0,-8.873250484E-1,6.640584946E0,9.595494856E0
1.084901354E0,6.838288307E0,-8.969014287E-1,6.650160789E0,9.580775421E0
1.087306719E0,6.833499432E0,-8.801427484E-1,6.650160789E0,9.575803061E0
1.089711615E0,6.840682030E0,-8.849310279E-1,6.633402348E0,9.569747137E0
1.092116875E0,6.852652550E0,-8.777487278E-1,6.616643906E0,9.566047584E0
1.094521979E0,6.876593590E0,-8.729605079E-1,6.621431828E0,9.586081519E0
1.096927552E0,6.888564110E0,-8.657782078E-1,6.614249229E0,9.589065662E0
1.099332760E0,6.912505150E0,-8.466253877E-1,6.633402348E0,9.617771504E0
1.101737240E0,6.938840389E0,-8.418372273E-1,6.619038105E0,9.626414769E0
1.104142812E0,6.936446190E0,-8.370490074E-1,6.583126545E0,9.599608945E0
1.106548177E0,6.967569828E0,-8.226844072E-1,6.587914467E0,9.624160013E0
1.108952865E0,6.977145672E0,-8.346548676E-1,6.583126545E0,9.628850688E0
1.111357708E0,6.993904591E0,-8.418372273E-1,6.592702866E0,9.648166790E0
1.113762708E0,6.972357750E0,-8.298667073E-1,6.590308189E0,9.629881275E0
1.116168125E0,6.969963551E0,-8.442313075E-1,6.599884987E0,9.635953520E0
1.118572969E0,6.979540348E0,-8.514135480E-1,6.590308189E0,9.636962723E0
1.120977552E0,7.001086712E0,-8.178961873E-1,6.587914467E0,9.648045727E0
1.123383125E0,7.005875111E0,-8.274726272E-1,6.604673386E0,9.663783294E0
1.125788177E0,7.001086712E0,-8.490195274E-1,6.575943947E0,9.642566468E0
1.128192552E0,7.005875111E0,-8.657782078E-1,6.592702866E0,9.658964181E0
1.130597448E0,7.015450954E0,-8.490195274E-1,6.583126545E0,9.657895286E0
1.133002604E0,7.013057232E0,-8.394430876E-1,6.549608707E0,9.632497633E0
1.135408021E0,7.022633553E0,-8.490195274E-1,6.544820786E0,9.637058435E0
1.137813125E0,7.044180870E0,-8.298667073E-1,6.528061867E0,9.639748680E0
1.140217969E0,7.017845631E0,-8.466253877E-1,6.496938705E0,9.600892895E0
1.142623490E0,7.034604073E0,-8.394430876E-1,6.482574463E0,9.602816817E0
1.145028385E0,7.039391994E0,-8.418372273E-1,6.461027145E0,9.592007159E0
1.147432812E0,7.013057232E0,-8.322608471E-1,6.482574463E0,9.586417554E0
1.149837865E0,7.010663033E0,-8.155021667E-1,6.465815544E0,9.571896917E0
1.152243281E0,6.993904591E0,-8.202903271E-1,6.487362385E0,9.574625233E0
1.154648958E0,6.998692513E0,-8.202903271E-1,6.477786064E0,9.571639640E0
1.157054167E0,7.015450954E0,-8.059257269E-1,6.480179787E0,9.584299580E0
1.159459167E0,7.022633553E0,-8.011375070E-1,6.470603943E0,9.582688490E0
1.161864792E0,7.015450954E0,-7.915611267E-1,6.461027145E0,9.570161591E0
1.164269948E0,7.041786671E0,-8.035316467E-1,6.441874504E0,9.577586844E0
1.166674792E0,7.060939312E0,-8.083198071E-1,6.398780823E0,9.563191983E0
1.169080104E0,7.058545113E0,-7.963493466E-1,6.408356667E0,9.566831584E0
1.171485365E0,7.065727711E0,-8.059257269E-1,6.384416103E0,9.556923843E0
1.173890781E0,7.065727711E0,-8.131080270E-1,6.341322422E0,9.528799652E0
1.176295833E0,7.072909832E0,-8.346548676E-1,6.372445583E0,9.556713083E0
1.178700521E0,7.099244595E0,-8.346548676E-1,6.389204502E0,9.587380077E0
1.181105937E0,7.084880352E0,-8.250784874E-1,6.355686665E0,9.553587655E0
1.183510990E0,7.096850872E0,-8.442313075E-1,6.362869263E0,9.568914466E0
1.185915625E0,7.108821392E0,-8.514135480E-1,6.398780823E0,9.602324856E0
1.188320573E0,7.106427193E0,-8.274726272E-1,6.408356667E0,9.604845317E0
1.190725729E0,7.142338753E0,-8.202903271E-1,6.386810303E0,9.616507938E0
1.193131250E0,7.147126675E0,-8.298667073E-1,6.382021904E0,9.617707733E0
1.195536146E0,7.149521351E0,-8.394430876E-1,6.334139824E0,9.588620733E0
1.197940833E0,7.159097195E0,-8.131080270E-1,6.329351902E0,9.590334343E0
1.200346146E0,7.163885593E0,-8.178961873E-1,6.303016663E0,9.576963507E0
1.202750990E0,7.197402477E0,-8.011375070E-1,6.274287224E0,9.581811097E0
1.205155677E0,7.192614555E0,-7.939552069E-1,6.264711380E0,9.571346702E0
1.207560729E0,7.204585075E0,-8.131080270E-1,6.240770340E0,9.566316178E0
1.209965781E0,7.202191353E0,-8.011375070E-1,6.219223499E0,9.549456661E0
1.212371406E0,7.195008755E0,-7.867729664E-1,6.195282459E0,9.527260227E0
1.214776719E0,7.211767673E0,-7.843788266E-1,6.240770340E0,9.569329002E0
1.217181302E0,7.209372997E0,-7.628319263E-1,6.224011421E0,9.554856866E0
1.219586510E0,7.197402477E0,-7.484673262E-1,6.233587742E0,9.550938273E0
1.221991458E0,7.195008755E0,-7.580437660E-1,6.226405144E0,9.545203107E0
1.224396042E0,7.211767673E0,-7.436791658E-1,6.257528782E0,9.577020316E0
1.226801250E0,7.221343517E0,-7.364968657E-1,6.247952461E0,9.577428663E0
1.229206562E0,7.250072956E0,-7.197381258E-1,6.259922981E0,9.605634626E0
1.231611927E0,7.240496635E0,-7.293145657E-1,6.255135059E0,9.596009893E0
1.234016771E0,7.259649754E0,-7.293145657E-1,6.257528782E0,9.612027920E0
1.236421302E0,7.293166637E0,-7.436791658E-1,6.262316704E0,9.641573979E0
1.238826562E0,7.285984516E0,-7.580437660E-1,6.259922981E0,9.635706329E0
1.241231510E0,7.302742958E0,-7.676201463E-1,6.173735142E0,9.593450943E0
1.243636198E0,7.288378716E0,-7.891669869E-1,6.549608707E0,9.830596272E0
1.246040990E0,7.321896076E0,-7.987434268E-1,6.058818817E0,9.537160933E0
1.248445833E0,7.290772438E0,-8.155021667E-1,6.501727104E0,9.802696663E0
1.250851510E0,7.336260796E0,-7.867729664E-1,6.461027145E0,9.807375079E0
1.253256875E0,7.345837116E0,-8.155021667E-1,6.137824059E0,9.607249913E0
1.255661719E0,7.348231316E0,-8.202903271E-1,6.750713348E0,1.001206824E1
1.258067396E0,7.374566078E0,-8.250784874E-1,6.149794579E0,9.637683991E0
1.260472656E0,7.355413437E0,-8.657782078E-1,6.563973427E0,9.896333962E0
1.262877344E0,7.400901318E0,-8.107139468E-1,6.508909225E0,9.889211127E0
1.265282500E0,7.388930798E0,-8.274726272E-1,6.243164539E0,9.708661738E0
1.267687812E0,7.388930798E0,-8.226844072E-1,6.784230232E0,1.006473486E1
1.270093437E0,7.422448158E0,-8.226844072E-1,6.176129341E0,9.690929777E0
1.272498490E0,7.391324520E0,-8.514135480E-1,6.647767067E0,9.977444070E0
1.274903437E0,7.410477638E0,-8.442313075E-1,6.516091347E0,9.903905884E0
1.277309531E0,7.405689716E0,-8.178961873E-1,6.324563503E0,9.773090497E0
1.279715208E0,7.374566078E0,-8.394430876E-1,6.777048588E0,1.005073515E1
1.282120365E0,7.388930798E0,-8.226844072E-1,6.197676182E0,9.679064935E0
1.284525885E0,7.326683998E0,-8.394430876E-1,6.726772308E0,9.981704704E0
1.286931302E0,7.350625038E0,-8.107139468E-1,6.477786064E0,9.831106644E0
1.289337135E0,7.307531834E0,-8.083198071E-1,6.389204502E0,9.740397147E0
1.291742604E0,7.324290276E0,-8.131080270E-1,6.760289192E0,1.000039413E1
1.294147604E0,7.288378716E0,-7.724083066E-1,6.188099861E0,9.592166532E0
1.296553594E0,7.252467155E0,-7.676201463E-1,6.779442310E0,9.957326879E0
1.298959271E0,7.290772438E0,-7.388909459E-1,6.386810303E0,9.720733944E0
1.301364479E0,7.278801918E0,-7.508614659E-1,6.413145542E0,9.730014699E0
1.303770208E0,7.254861355E0,-7.125558853E-1,6.738742828E0,9.927305983E0
1.306175990E0,7.271620274E0,-7.029794455E-1,6.188099861E0,9.574091152E0
1.308582083E0,7.254861355E0,-7.293145657E-1,6.796200752E0,9.967610430E0
1.310987760E0,7.262043476E0,-7.077677250E-1,6.348504543E0,9.671696880E0
1.313392708E0,7.240496635E0,-7.245264053E-1,6.487362385E0,9.748620454E0
1.315798281E0,7.226132393E0,-7.101617455E-1,6.712407589E0,9.888262471E0
1.318203698E0,7.233314037E0,-7.029794455E-1,6.221617222E0,9.566793241E0
1.320608437E0,7.214161873E0,-7.317086458E-1,6.836900711E0,9.966079490E0
1.323013229E0,7.218949795E0,-6.742502451E-1,6.303016663E0,9.607073882E0
1.325418229E0,7.163885593E0,-7.197381258E-1,6.525667667E0,9.717181601E0
1.327823594E0,7.183038235E0,-7.101617455E-1,6.652555466E0,9.816153127E0
1.330228385E0,7.154309273E0,-7.005853653E-1,6.173735142E0,9.475756784E0
1.332632656E0,7.130368233E0,-6.957972050E-1,6.767471790E0,9.855199608E0
1.335037812E0,7.137550831E0,-6.742502451E-1,6.180917740E0,9.465885556E0
1.337443177E0,7.096850872E0,-6.814326048E-1,6.480179787E0,9.634436816E0
1.339848437E0,7.106427193E0,-6.646738648E-1,6.501727104E0,9.654820254E0
1.342253542E0,7.070515633E0,-6.694620848E-1,6.003754616E0,9.299754851E0
1.344658542E0,7.041786671E0,-6.359447241E-1,6.528061867E0,9.623241499E0
1.347064062E0,7.036998272E0,-6.311565042E-1,6.398780823E0,9.532161309E0
1.349469115E0,7.051362514E0,-6.191860437E-1,6.331746101E0,9.497163438E0
1.351873854E0,7.025027752E0,-6.096096635E-1,6.322169304E0,9.470610517E0
1.354279375E0,7.029816151E0,-5.808804631E-1,6.300622940E0,9.457990625E0
1.356684531E0,7.010663033E0,-5.497571826E-1,6.288652420E0,9.433916386E0
1.359089375E0,7.017845631E0,-5.593335032E-1,6.269499302E0,9.427069150E0
1.361494687E0,7.032210350E0,-5.282102227E-1,6.286257744E0,9.447117278E0
1.363900052E0,7.036998272E0,-5.282102227E-1,6.286257744E0,9.450681835E0
1.366305781E0,7.005875111E0,-4.970869422E-1,6.303016663E0,9.437022864E0
1.368710937E0,6.996298790E0,-4.970869422E-1,6.300622940E0,9.428315948E0
1.371115573E0,6.984328270E0,-4.635695815E-1,6.307805061E0,9.422533780E0
1.373521042E0,6.993904591E0,-4.539932013E-1,6.295834541E0,9.421164674E0
1.375926198E0,6.960387230E0,-4.611755013E-1,6.312592983E0,9.407895801E0
1.378331094E0,6.957993031E0,-4.276580811E-1,6.307805061E0,9.401327733E0
1.380736458E0,6.953204632E0,-4.348403811E-1,6.298228264E0,9.391688883E0
1.383141667E0,6.953204632E0,-4.156876206E-1,6.279076099E0,9.377987391E0
1.385547135E0,6.936446190E0,-4.132935405E-1,6.295834541E0,9.376706771E0
1.387952083E0,6.924475670E0,-3.821702003E-1,6.300622940E0,9.369752761E0
1.390356771E0,6.917293072E0,-3.725938201E-1,6.338928223E0,9.389876496E0
1.392762500E0,6.943628788E0,-3.678056002E-1,6.319775581E0,9.396213339E0
1.395167917E0,6.960387230E0,-3.558351398E-1,6.350898743E0,9.429078634E0
1.397572812E0,6.943628788E0,-3.390764594E-1,6.358080864E0,9.420941878E0
1.399978281E0,6.974751472E0,-3.390764594E-1,6.389204502E0,9.464885901E0
1.402383594E0,6.962780952E0,-3.342882395E-1,6.377233982E0,9.447813529E0
1.404789271E0,7.020239830E0,-3.414705396E-1,6.408356667E0,9.511435463E0
1.407194844E0,7.008269310E0,-3.151354790E-1,6.420327187E0,9.509771305E0
1.409599948E0,7.051362514E0,-3.318941593E-1,6.439480305E0,9.555039175E0
1.412005625E0,7.053757191E0,-3.366823196E-1,6.415539265E0,9.540858952E0
1.414410729E0,7.104032993E0,-3.175295591E-1,6.489756584E0,9.627307532E0
1.416815365E0,7.113609791E0,-3.223177791E-1,6.544820786E0,9.671711954E0
1.419220625E0,7.144732475E0,-3.271059394E-1,6.571156025E0,9.712584205E0
1.421625833E0,7.159097195E0,-3.223177791E-1,6.604673386E0,9.745679654E0
1.424031406E0,7.171067715E0,-3.318941593E-1,6.621431828E0,9.766152024E0
1.426436562E0,7.218949795E0,-3.295000792E-1,6.616643906E0,9.798049960E0
1.428841094E0,7.257255077E0,-3.390764594E-1,6.631008148E0,9.836309936E0
1.431246354E0,7.288378716E0,-3.630174398E-1,6.626219749E0,9.856928230E0
1.433651458E0,7.288378716E0,-3.534410596E-1,6.657343388E0,9.877530352E0
1.436056406E0,7.307531834E0,-3.678056002E-1,6.662131310E0,9.895417932E0
1.438461771E0,7.297955036E0,-3.821702003E-1,6.671708107E0,9.895346929E0
1.440866979E0,7.338654518E0,-3.917466402E-1,6.657343388E0,9.916125077E0
1.443272500E0,7.326683998E0,-4.061112404E-1,6.690860748E0,9.930399906E0
1.445677708E0,7.333866596E0,-4.061112404E-1,6.705225468E0,9.945379538E0
1.448082812E0,7.353019238E0,-4.276580811E-1,6.714801788E0,9.966862415E0
1.450488698E0,7.338654518E0,-4.013230205E-1,6.731560230E0,9.966484507E0
1.452894375E0,7.348231316E0,-4.204758406E-1,6.777048588E0,1.000508326E1
1.455299635E0,7.369778156E0,-4.013230205E-1,6.810565948E0,1.004283320E1
1.457705156E0,7.388930798E0,-3.941407204E-1,6.817748070E0,1.006147772E1
1.460110677E0,7.434418678E0,-4.085053205E-1,6.832112312E0,1.010520739E1
1.462516406E0,7.465542316E0,-4.300522208E-1,6.839294910E0,1.013386510E1
1.464921823E0,7.518212318E0,-4.276580811E-1,6.865629673E0,1.019035224E1
1.467326875E0,7.554123878E0,-4.061112404E-1,6.877600193E0,1.022404511E1
1.469732656E0,7.592429161E0,-4.132935405E-1,6.860841751E0,1.024143260E1
1.472138125E0,7.659464359E0,-4.156876206E-1,6.875206470E0,1.030090552E1
1.474543125E0,7.716922283E0,-4.108994007E-1,6.879994392E0,1.034669274E1
1.476948437E0,7.767198086E0,-4.085053205E-1,6.906329155E0,1.040161647E1
1.479353437E0,7.810292244E0,-3.965348005E-1,6.923088551E0,1.044447509E1
1.481758698E0,7.843809605E0,-4.132935405E-1,6.913511753E0,1.046388099E1
1.484163542E0,7.884509563E0,-3.989289403E-1,6.920694351E0,1.049860208E1
1.486568281E0,7.913239002E0,-4.013230205E-1,6.925482273E0,1.052343653E1
1.488974062E0,7.915632725E0,-4.180817008E-1,6.949423313E0,1.054165633E1
1.491379375E0,7.913239002E0,-4.132935405E-1,6.970970154E0,1.055388971E1
1.493784010E0,7.910844326E0,-4.228699207E-1,6.999699593E0,1.057147441E1
1.496189010E0,7.908450603E0,-4.372345209E-1,7.042793274E0,1.059885381E1
1.498594167E0,7.894085407E0,-4.515991211E-1,7.059551716E0,1.059989607E1
1.500999635E0,7.865356922E0,-4.180817008E-1,7.121798515E0,1.061878740E1
1.503404635E0,7.853386402E0,-4.396286011E-1,7.179256916E0,1.064944511E1
1.505809115E0,7.836627483E0,-4.539932013E-1,7.224744797E0,1.066844776E1
1.508214687E0,7.793533802E0,-4.180817008E-1,7.246292114E0,1.065000990E1
1.510619792E0,7.815080166E0,-4.132935405E-1,7.236715317E0,1.065909650E1
1.513024583E0,7.803109646E0,-4.252640009E-1,7.248685837E0,1.065893128E1
1.515429740E0,7.807898045E0,-4.037171006E-1,7.282202721E0,1.068441556E1
1.517834583E0,7.788744926E0,-4.037171006E-1,7.284597397E0,1.067206139E1
1.520240104E0,7.834232807E0,-3.773820400E-1,7.298962116E0,1.071412474E1
1.522645365E0,7.839021206E0,-3.749879599E-1,7.325296879E0,1.073549458E1
1.525050104E0,7.870144367E0,-3.414705396E-1,7.344449997E0,1.077017735E1
1.527455521E0,7.896480083E0,-3.366823196E-1,7.368391037E0,1.080559758E1
1.529860469E0,7.953938007E0,-3.199236989E-1,7.416272640E0,1.087973257E1
1.532265052E0,7.997031689E0,-3.127413988E-1,7.447395802E0,1.093224713E1
1.534669948E0,8.061672211E0,-2.935885787E-1,7.459366322E0,1.098721525E1
1.537075000E0,8.121524811E0,-2.816180587E-1,7.456972599E0,1.102927533E1
1.539480469E0,8.229258537E0,-2.504947782E-1,7.461760521E0,1.111131467E1
1.541885469E0,8.281929016E0,-2.433124930E-1,7.447395802E0,1.114061279E1
1.544290104E0,8.353752136E0,-2.337361127E-1,7.416272640E0,1.117322278E1
1.546695417E0,8.401633263E0,-2.169774175E-1,7.377966881E0,1.118342148E1
1.549100365E0,8.475851059E0,-2.217656076E-1,7.337267399E0,1.121270369E1
1.551504948E0,8.483034134E0,-2.289479077E-1,7.332479477E0,1.121514782E1
1.553909687E0,8.516551018E0,-2.217656076E-1,7.315720558E0,1.122945183E1
1.556314687E0,8.530915260E0,-2.145833075E-1,7.358814240E0,1.126830547E1
1.558720260E0,8.511762619E0,-1.834600419E-1,7.361208439E0,1.125482786E1
1.561125000E0,8.480639458E0,-1.858541369E-1,7.361208439E0,1.123134796E1
1.563529167E0,8.466274261E0,-1.762777418E-1,7.370784760E0,1.122663537E1
1.565934375E0,8.451910019E0,-1.643072516E-1,7.409090519E0,1.124083636E1
1.568339375E0,8.413604736E0,-1.092429757E-1,7.397119999E0,1.120348441E1
1.570744010E0,8.380087852E0,-8.530198783E-2,7.406696320E0,1.118446687E1
1.573148906E0,8.365722656E0,-2.784361690E-2,7.421061039E0,1.118294406E1
1.575553646E0,8.339387894E0,8.067868650E-3,7.456972599E0,1.118713082E1
1.577958854E0,8.334599495E0,4.397934675E-2,7.512036324E0,1.122043549E1
1.580363958E0,8.322628975E0,9.425541759E-2,7.559918404E0,1.124399410E1
1.582768646E0,8.334599495E0,1.588960737E-1,7.638923645E0,1.130680995E1
1.585174271E0,8.346570015E0,2.187485546E-1,7.665258884E0,1.133442878E1
1.587579583E0,8.389663696E0,2.594482303E-1,7.765810966E0,1.143510342E1
1.589984271E0,8.451910019E0,3.145124912E-1,7.806510925E0,1.150979209E1
1.592389375E0,8.516551018E0,3.552122116E-1,7.847210407E0,1.158604886E1
1.594794583E0,8.588374138E0,4.366115332E-1,7.859180927E0,1.164978647E1
1.597200052E0,8.696108818E0,4.868876338E-1,7.868757248E0,1.173783237E1
1.599605208E0,8.772719383E0,5.204049945E-1,7.871151447E0,1.179773079E1
1.602010052E0,8.863695145E0,5.611046553E-1,7.847210407E0,1.185152485E1
1.604415781E0,8.937912941E0,5.706810355E-1,7.804116726E0,1.187923409E1
1.606821302E0,8.988188744E0,6.018043756E-1,7.794540405E0,1.191237027E1
1.609226250E0,9.052828789E0,6.305335760E-1,7.770599365E0,1.194711246E1
1.611631146E0,9.064799309E0,6.496862769E-1,7.775387287E0,1.196032300E1
1.614035937E0,9.086346626E0,6.616567969E-1,7.775387287E0,1.197731740E1
1.616441250E0,9.081557274E0,6.664449573E-1,7.722717285E0,1.193981548E1
1.618846354E0,9.081557274E0,6.664449573E-1,7.705958366E0,1.192898259E1
1.621251354E0,9.060011864E0,6.903859973E-1,7.677229404E0,1.189538983E1
1.623657031E0,9.021705627E0,6.592627168E-1,7.672441483E0,1.186137252E1
1.626062187E0,8.990582466E0,6.496862769E-1,7.674835205E0,1.183873983E1
1.628466927E0,8.945095062E0,6.640509367E-1,7.662864685E0,1.179725326E1
1.630872135E0,8.899606705E0,6.760213971E-1,7.686805725E0,1.177909108E1
1.633277500E0,8.856513023E0,6.736273170E-1,7.679623604E0,1.174172966E1
1.635683229E0,8.827783585E0,6.832036972E-1,7.646105766E0,1.169869496E1
1.638088594E0,8.796660423E0,6.927801371E-1,7.607800484E0,1.165074277E1
1.640493646E0,8.755960464E0,6.951741576E-1,7.552736282E0,1.158421064E1
1.642899219E0,8.710473061E0,6.927801371E-1,7.485701561E0,1.150599901E1
1.645304115E0,8.681743622E0,6.927801371E-1,7.435425282E0,1.145155735E1
1.647708906E0,8.631467819E0,7.310856581E-1,7.358814240E0,1.136612819E1
1.650114271E0,8.600344658E0,7.478443384E-1,7.279808998E0,1.129251161E1
1.652519531E0,8.538097382E0,7.502384782E-1,7.243897438E0,1.122212167E1
1.654925052E0,8.483034134E0,7.765735388E-1,7.164892197E0,1.113106530E1
1.657330052E0,8.423180580E0,7.765735388E-1,7.085886955E0,1.103461968E1
1.659734635E0,8.358540535E0,8.076968789E-1,7.016458511E0,1.094295500E1
1.662140208E0,8.315446854E0,8.316377997E-1,6.937452793E0,1.086123976E1
1.664545312E0,8.272352219E0,8.675493002E-1,6.875206470E0,1.079133528E1
1.666950000E0,8.236441612E0,8.938843608E-1,6.860841751E0,1.075681873E1
1.669355260E0,8.198135376E0,9.321900010E-1,6.868023872E0,1.073536929E1
1.671760260E0,8.159830093E0,9.681014419E-1,6.853659153E0,1.070012576E1
1.674165573E0,8.143072128E0,9.992247224E-1,6.786624908E0,1.064736359E1
1.676570885E0,8.152647972E0,1.059077263E0,6.738742828E0,1.063005026E1
1.678975729E0,8.126312256E0,1.080624223E0,6.671708107E0,1.056959737E1
1.681381094E0,8.131101608E0,1.138082504E0,6.609461308E0,1.054016242E1
1.683786042E0,8.131101608E0,1.178782225E0,6.516091347E0,1.048636197E1
1.686190781E0,8.099977493E0,1.200329065E0,6.480179787E0,1.044237307E1
1.688595885E0,8.083219528E0,1.250605226E0,6.463421345E0,1.042488690E1
1.691000885E0,8.044913292E0,1.267363787E0,6.451450825E0,1.038980551E1
1.693406250E0,8.013790131E0,1.305669427E0,6.441874504E0,1.036452372E1
1.695811198E0,7.994637966E0,1.341580868E0,6.420327187E0,1.034092243E1
1.698215781E0,7.927603245E0,1.377492428E0,6.451450825E0,1.031336979E1
1.700621458E0,7.915632725E0,1.391857028E0,6.463421345E0,1.031359893E1
1.703026927E0,7.879721165E0,1.444527149E0,6.501727104E0,1.031741827E1
1.705431823E0,7.827050686E0,1.461285830E0,6.566367149E0,1.032062286E1
1.707836927E0,7.798321724E0,1.490015030E0,6.623826027E0,1.033968267E1
1.710241979E0,7.762410164E0,1.530714631E0,6.666919708E0,1.034629969E1
1.712647708E0,7.745651722E0,1.542685151E0,6.731560230E0,1.037732630E1
1.715053281E0,7.733681202E0,1.557049751E0,6.779442310E0,1.040168577E1
1.717458385E0,7.726498604E0,1.566626191E0,6.779442310E0,1.039778516E1
1.719864115E0,7.709740162E0,1.580990791E0,6.750713348E0,1.036878758E1
1.722269531E0,7.690587044E0,1.580990791E0,6.721983910E0,1.033584678E1
1.724674531E0,7.678616524E0,1.583384871E0,6.686072350E0,1.030397122E1
1.727079844E0,7.633128643E0,1.576202512E0,6.686072350E0,1.026901313E1
1.729485312E0,7.594823360E0,1.566626191E0,6.702831268E0,1.025005398E1
1.731891146E0,7.551729679E0,1.576202512E0,6.750713348E0,1.025110561E1
1.734296510E0,7.491877079E0,1.576202512E0,6.765078068E0,1.021660011E1
1.736701406E0,7.463147640E0,1.571414471E0,6.755501270E0,1.018845982E1
1.739106979E0,7.434418678E0,1.585779071E0,6.736348152E0,1.015695145E1
1.741512187E0,7.405689716E0,1.592961311E0,6.719589710E0,1.012593955E1
1.743917083E0,7.355413437E0,1.604931831E0,6.614249229E0,1.002128764E1
1.746322656E0,7.336260796E0,1.621690392E0,6.504120827E0,9.937514273E0
1.748728021E0,7.321896076E0,1.643237352E0,6.353292942E0,9.832330464E0
1.751133594E0,7.290772438E0,1.688725114E0,6.200070381E0,9.718437528E0
1.753538854E0,7.269225597E0,1.712666154E0,6.054030418E0,9.613852009E0
1.755943750E0,7.233314037E0,1.760548115E0,5.912778854E0,9.506908825E0
1.758349635E0,7.223738194E0,1.789277434E0,5.752373695E0,9.406046479E0
1.760755312E0,7.202191353E0,1.844341636E0,5.589575291E0,9.301425067E0
1.763160573E0,7.195008755E0,1.885041237E0,5.405230045E0,9.194457205E0
1.765566042E0,7.173462391E0,1.935317397E0,5.192154884E0,9.064352621E0
1.767971354E0,7.142338753E0,2.002351999E0,5.010203362E0,8.951231988E0
1.770376927E0,7.108821392E0,2.040657759E0,4.866557598E0,8.853417901E0
1.772782031E0,7.072909832E0,2.098115921E0,4.746852398E0,8.772727717E0
1.775186979E0,6.996298790E0,2.134027481E0,4.679817677E0,8.683487982E0
1.777592656E0,6.965175152E0,2.193879843E0,4.639117718E0,8.651484662E0
1.779997917E0,6.890958309E0,2.253732443E0,4.627147198E0,8.600878300E0
1.782402865E0,6.871805668E0,2.289644003E0,4.617571354E0,8.589886379E0
1.784808385E0,6.828711510E0,2.337525845E0,4.641512394E0,8.581314891E0
1.787213750E0,6.797588825E0,2.426107407E0,4.667847157E0,8.595464389E0
1.789619062E0,6.790406227E0,2.462018967E0,4.665453434E0,8.598698149E0
1.792024323E0,6.792799950E0,2.545812368E0,4.684606075E0,8.635324305E0
1.794429375E0,6.773647785E0,2.576935768E0,4.689394474E0,8.632109986E0
1.796834948E0,6.725765705E0,2.610453129E0,4.684606075E0,8.602088348E0
1.799240312E0,6.720977306E0,2.670305729E0,4.706152916E0,8.628438092E0
1.801645521E0,6.713795185E0,2.715793371E0,4.766005516E0,8.669797460E0
1.804051406E0,6.682671547E0,2.754099131E0,4.837828159E0,8.697571059E0
1.806457240E0,6.653942585E0,2.816345692E0,4.945562840E0,8.755874986E0
1.808863229E0,6.639577866E0,2.861833334E0,5.010203362E0,8.796375503E0
1.811268750E0,6.622818947E0,2.916897774E0,5.093997002E0,8.849792590E0
1.813673646E0,6.606060505E0,2.986326694E0,5.156243324E0,8.896349124E0
1.816079323E0,6.598878384E0,3.019843817E0,5.201731205E0,8.928754680E0
1.818484740E0,6.613242626E0,3.067725897E0,5.213701725E0,8.962622713E0
1.820889583E0,6.639577866E0,3.106031656E0,5.201731205E0,8.988294299E0
1.823294844E0,6.622818947E0,3.168278217E0,5.206519604E0,9.000420215E0
1.825700156E0,6.627607346E0,3.204189777E0,5.194549084E0,9.009736480E0
1.828106042E0,6.630001545E0,3.244889259E0,5.182578564E0,9.019165558E0
1.830511562E0,6.634789467E0,3.278406620E0,5.184972286E0,9.036167265E0
1.832916510E0,6.598878384E0,3.343047380E0,5.163425922E0,9.021204408E0
1.835322292E0,6.574937344E0,3.364594221E0,5.165819645E0,9.013100906E0
1.837727604E0,6.555784702E0,3.407687902E0,5.201731205E0,9.035964665E0
1.840132396E0,6.550996304E0,3.431628942E0,5.247219563E0,9.067797026E0
1.842537448E0,6.519873142E0,3.484299183E0,5.321436405E0,9.108609773E0
1.844942396E0,6.515084743E0,3.513028383E0,5.383682728E0,9.152690170E0
1.847347760E0,6.510296822E0,3.565698385E0,5.469870567E0,9.220501814E0
1.849752604E0,6.529448986E0,3.592033625E0,5.500993729E0,9.262685443E0
1.852156979E0,6.577331066E0,3.637521505E0,5.527328968E0,9.329748773E0
1.854562031E0,6.601272106E0,3.654280186E0,5.520146370E0,9.348934326E0
1.856967031E0,6.634789467E0,3.683009386E0,5.505781651E0,9.375426443E0
1.859371875E0,6.697036266E0,3.714132786E0,5.474658489E0,9.413658305E0
1.861777240E0,6.761677265E0,3.716526747E0,5.436352730E0,9.438579422E0
1.864182448E0,6.788012028E0,3.730891466E0,5.366923809E0,9.423403291E0
1.866587656E0,6.811953068E0,3.750044107E0,5.307071686E0,9.414379708E0
1.868992500E0,6.833499432E0,3.752438068E0,5.261583805E0,9.405411744E0
1.871397396E0,6.867017269E0,3.757226467E0,5.242430687E0,9.421027354E0
1.873803021E0,6.850258827E0,3.754832506E0,5.331012726E0,9.457510763E0
1.876208177E0,6.840682030E0,3.757226467E0,5.352559566E0,9.463697759E0
1.878613177E0,6.807164669E0,3.766803026E0,5.371712208E0,9.454183620E0
1.881018490E0,6.819135189E0,3.757226467E0,5.386076927E0,9.467163256E0
1.883423542E0,6.811953068E0,3.769196987E0,5.407623768E0,9.479026603E0
1.885828958E0,6.819135189E0,3.766803026E0,5.460293770E0,9.513370476E0
1.888234010E0,6.802376747E0,3.750044107E0,5.453111649E0,9.490605190E0
1.890638750E0,6.795194149E0,3.754832506E0,5.424382210E0,9.470868652E0
1.893044427E0,6.768859386E0,3.759620428E0,5.405230045E0,9.442918775E0
1.895449844E0,6.756888866E0,3.747649908E0,5.393259525E0,9.422721226E0
1.897855052E0,6.756888866E0,3.764408588E0,5.393259525E0,9.429399105E0
1.900260625E0,6.701824665E0,3.805108309E0,5.390864849E0,9.405037315E0
1.902665937E0,6.685065746E0,3.795531988E0,5.424382210E0,9.408511543E0
1.905071406E0,6.641972065E0,3.819473028E0,5.472264290E0,9.415404589E0
1.907476354E0,6.610848427E0,3.862566710E0,5.512964249E0,9.434803300E0
1.909881146E0,6.596484184E0,3.876931429E0,5.551270008E0,9.453084132E0
1.912286667E0,6.543814182E0,3.910448790E0,5.558451653E0,9.434484541E0
1.914691406E0,6.550996304E0,3.958330870E0,5.541693211E0,9.449566100E0
1.917096094E0,6.560572624E0,4.001424789E0,5.536905289E0,9.471527526E0
1.919501510E0,6.572543144E0,4.037336349E0,5.491417408E0,9.468583491E0
1.921906719E0,6.584513664E0,4.104371071E0,5.443535328E0,9.478067258E0
1.924312187E0,6.613242626E0,4.140282631E0,5.369318485E0,9.471351503E0
1.926717240E0,6.632395744E0,4.183376312E0,5.319042206E0,9.475311112E0
1.929121823E0,6.661124706E0,4.250411034E0,5.273554325E0,9.499839553E0
1.931527187E0,6.661124706E0,4.271957874E0,5.218489647E0,9.479073827E0
1.933932135E0,6.677883625E0,4.341386795E0,5.184972286E0,9.503983724E0
1.936336562E0,6.685065746E0,4.374904156E0,5.173001766E0,9.517869387E0
1.938741354E0,6.677883625E0,4.398845196E0,5.146667004E0,9.509582010E0
1.941146406E0,6.653942585E0,4.429968357E0,5.173001766E0,9.521529228E0
1.943551667E0,6.649154186E0,4.470668316E0,5.158637524E0,9.529410668E0
1.945956510E0,6.632395744E0,4.501791000E0,5.225672245E0,9.568826779E0
1.948361250E0,6.606060505E0,4.537702560E0,5.256795406E0,9.584606297E0
1.950766875E0,6.565360546E0,4.564038277E0,5.271160603E0,9.577031826E0
1.953172187E0,6.550996304E0,4.587979317E0,5.256795406E0,9.570736896E0
1.955577187E0,6.519873142E0,4.604737759E0,5.278342247E0,9.569391438E0
1.957982292E0,6.491143703E0,4.628678799E0,5.307071686E0,9.577297316E0
1.960387292E0,6.469596863E0,4.676560879E0,5.319042206E0,9.592607321E0
1.962792604E0,6.452837944E0,4.671772003E0,5.357347965E0,9.600299391E0
1.965197604E0,6.431291103E0,4.698107719E0,5.362135887E0,9.601365667E0
1.967602448E0,6.428897381E0,4.705289841E0,5.342983246E0,9.592598396E0
1.970008177E0,6.400167942E0,4.717260361E0,5.342983246E0,9.579257015E0
1.972413333E0,6.397774220E0,4.743595123E0,5.331012726E0,9.583992192E0
1.974817969E0,6.402562141E0,4.717260361E0,5.316648006E0,9.566195341E0
1.977222917E0,6.376227379E0,4.753171444E0,5.314253807E0,9.565051379E0
1.979627812E0,6.392985821E0,4.767536163E0,5.287919044E0,9.568790759E0
1.982033281E0,6.397774220E0,4.793871880E0,5.268765926E0,9.574581816E0
1.984438333E0,6.407350063E0,4.786689281E0,5.249613285E0,9.566868284E0
1.986842969E0,6.402562141E0,4.757960320E0,5.223278522E0,9.534863759E0
1.989248385E0,6.390591621E0,4.774718761E0,5.189760685E0,9.516891115E0
1.991653333E0,6.385803699E0,4.798659801E0,5.182578564E0,9.521803681E0
1.994057969E0,6.369044781E0,4.798659801E0,5.177790165E0,9.507963941E0
1.996462865E0,6.340315819E0,4.798659801E0,5.206519604E0,9.504450902E0
1.998867708E0,6.316374779E0,4.779506683E0,5.220883846E0,9.486722438E0
2.001273021E0,6.282856941E0,4.781901360E0,5.249613285E0,9.481524751E0
2.003677969E0,6.249339581E0,4.791477203E0,5.278342247E0,9.480158008E0
2.006082552E0,6.237369061E0,4.781901360E0,5.316648006E0,9.488840785E0
2.008488073E0,6.199063778E0,4.796265602E0,5.340589046E0,9.484431813E0
2.010893229E0,6.196669579E0,4.798659801E0,5.359741688E0,9.494876551E0
2.013297969E0,6.170334816E0,4.824994564E0,5.359741688E0,9.491071343E0
2.015703125E0,6.139211178E0,4.815418243E0,5.354953289E0,9.463281221E0
2.018108542E0,6.120058537E0,4.844147682E0,5.364530087E0,9.470959102E0
2.020514219E0,6.117664337E0,4.863300323E0,5.354953289E0,9.473807667E0
2.022919427E0,6.103299618E0,4.896817684E0,5.323830605E0,9.464262357E0
2.025324323E0,6.067388058E0,4.889635086E0,5.292706966E0,9.419897884E0
2.027729844E0,6.053023815E0,4.935122967E0,5.247219563E0,9.408923910E0
2.030135208E0,6.031476498E0,4.956670284E0,5.201731205E0,9.381113824E0
2.032540365E0,6.009930134E0,4.973428726E0,5.182578564E0,9.365541846E0
2.034945781E0,5.942894936E0,5.009340286E0,5.168213844E0,9.333912613E0
2.037351094E0,5.909377575E0,5.038069725E0,5.149061203E0,9.317495433E0
2.039756615E0,5.887830734E0,5.054828167E0,5.141879082E0,9.308961223E0
2.042161510E0,5.832766533E0,5.105103970E0,5.163425922E0,9.313657672E0
2.044566302E0,5.806431770E0,5.129045010E0,5.137090683E0,9.295776100E0
2.046971979E0,5.751367092E0,5.148198128E0,5.158637524E0,9.284056683E0
2.049377187E0,5.696303368E0,5.186503887E0,5.149061203E0,9.266095505E0
2.051782083E0,5.662785530E0,5.224809170E0,5.146667004E0,9.265740773E0
2.054187604E0,5.648421288E0,5.253538132E0,5.134696484E0,9.266576170E0
2.056593281E0,5.619691849E0,5.287055492E0,5.132302284E0,9.266845148E0
2.058999271E0,5.600539207E0,5.325361252E0,5.158637524E0,9.291773403E0
2.061404740E0,5.590962887E0,5.363667011E0,5.149061203E0,9.302721165E0
2.063809792E0,5.610115528E0,5.411548615E0,5.158637524E0,9.347181166E0
2.066215573E0,5.598145008E0,5.466613293E0,5.149061203E0,9.366745416E0
2.068621302E0,5.602932930E0,5.483371735E0,5.153849602E0,9.382024766E0
2.071026719E0,5.634056568E0,5.526465893E0,5.146667004E0,9.421921244E0
2.073432396E0,5.665179729E0,5.555194855E0,5.146667004E0,9.457411511E0
2.075837760E0,5.686726570E0,5.603076458E0,5.161031723E0,9.506291250E0
2.078243333E0,5.705879211E0,5.615046978E0,5.139484882E0,9.513154839E0
2.080648542E0,5.710667610E0,5.641382217E0,5.151455402E0,9.538050673E0
2.083053542E0,5.734608650E0,5.679687977E0,5.182578564E0,9.591856570E0
2.085459375E0,5.744184971E0,5.715599537E0,5.208913326E0,9.633094886E0
2.087864740E0,5.753761292E0,5.722781658E0,5.225672245E0,9.652131854E0
2.090269740E0,5.756155491E0,5.777846336E0,5.216095924E0,9.681140998E0
2.092675000E0,5.792067051E0,5.785027981E0,5.218489647E0,9.708100929E0
2.095080260E0,5.799249172E0,5.818545818E0,5.196942806E0,9.720852891E0
2.097485990E0,5.801643372E0,5.844880581E0,5.182578564E0,9.730406743E0
2.099891406E0,5.796854973E0,5.844880581E0,5.146667004E0,9.708467326E0
2.102296458E0,5.787278652E0,5.880792141E0,5.127514362E0,9.714304604E0
2.104702604E0,5.792067051E0,5.883186340E0,5.132302284E0,9.721134140E0
2.107108333E0,5.763337612E0,5.890368462E0,5.072449684E0,9.676892417E0
2.109513333E0,5.717849731E0,5.907127380E0,5.053297520E0,9.650066076E0
2.111918750E0,5.677150249E0,5.895156860E0,5.067661762E0,9.626219668E0
2.114324010E0,5.617297649E0,5.899945259E0,5.084420204E0,9.602849356E0
2.116729844E0,5.545474529E0,5.911915779E0,5.105967522E0,9.579871621E0
2.119135469E0,5.507169247E0,5.907127380E0,5.132302284E0,9.568886755E0
2.121540469E0,5.447316647E0,5.907127380E0,5.132302284E0,9.534565500E0
2.123946146E0,5.358735085E0,5.899945259E0,5.120331764E0,9.473288402E0
2.126351562E0,5.315640926E0,5.907127380E0,5.091602802E0,9.437934702E0
2.128756667E0,5.270153522E0,5.892762661E0,5.079632282E0,9.396905557E0
2.131162083E0,5.217483044E0,5.914309502E0,5.084420204E0,9.383630161E0
2.133567240E0,5.152842522E0,5.923886299E0,5.058085442E0,9.339616870E0
2.135972552E0,5.109748840E0,5.923886299E0,5.060479164E0,9.317210498E0
2.138377552E0,5.054684639E0,5.933462620E0,5.074843884E0,9.301067460E0
2.140782396E0,5.004408836E0,5.909521580E0,5.086814404E0,9.265108412E0
2.143188073E0,4.939767838E0,5.938250542E0,5.089209080E0,9.250090532E0
2.145593281E0,4.884703636E0,5.935856819E0,5.144272804E0,9.249771266E0
2.147997917E0,4.832033157E0,5.938250542E0,5.206519604E0,9.258466953E0
2.150402865E0,4.798516273E0,5.935856819E0,5.244824886E0,9.261119948E0
2.152807969E0,4.743451595E0,5.962191582E0,5.290312767E0,9.275530749E0
2.155213802E0,4.729087353E0,5.964585781E0,5.302283287E0,9.276570422E0
2.157619323E0,4.717116833E0,5.978950024E0,5.309465885E0,9.283828014E0
2.160024271E0,4.712327957E0,5.974162102E0,5.290312767E0,9.267365147E0
2.162429896E0,4.705146313E0,5.971768379E0,5.252007484E0,9.240346423E0
2.164835260E0,4.702752113E0,5.969373703E0,5.220883846E0,9.219920172E0
2.167240365E0,4.681205273E0,5.993314743E0,5.175396442E0,9.198816921E0
2.169645833E0,4.669234753E0,5.983738899E0,5.134696484E0,9.163623321E0
2.172051042E0,4.654870033E0,5.964585781E0,5.105967522E0,9.127705237E0
2.174456510E0,4.633323193E0,5.981344223E0,5.058085442E0,9.101010430E0
2.176861615E0,4.621352673E0,5.964585781E0,5.007809162E0,9.056011079E0
2.179266406E0,4.604594231E0,5.964585781E0,4.959927559E0,9.021056089E0
2.181671927E0,4.563894272E0,5.966979504E0,4.938380241E0,8.990082020E0
2.184077187E0,4.530376434E0,5.950221062E0,4.926409721E0,8.955386874E0
2.186482344E0,4.475312710E0,5.971768379E0,4.926409721E0,8.942033000E0
2.188887656E0,4.422642708E0,5.971768379E0,4.950350761E0,8.929040192E0
2.191292760E0,4.369972229E0,5.981344223E0,4.933592319E0,8.900194895E0
2.193698542E0,4.307725430E0,5.974162102E0,4.952744961E0,8.875629208E0
2.196104062E0,4.252661705E0,5.964585781E0,4.976686001E0,8.856004667E0
2.198509167E0,4.207173824E0,5.988526821E0,5.022173882E0,8.876091233E0
2.200914792E0,4.128168106E0,5.959797859E0,5.077238560E0,8.850949883E0
2.203319948E0,4.075498104E0,5.981344223E0,5.125120163E0,8.868653798E0
2.205724844E0,4.003674984E0,5.998103142E0,5.151455402E0,8.862513607E0
2.208130260E0,3.953398943E0,6.012467861E0,5.216095924E0,8.887451247E0
2.210535677E0,3.874393702E0,6.017255783E0,5.244824886E0,8.872794475E0
2.212941250E0,3.831300020E0,6.043591022E0,5.249613285E0,8.874812220E0
2.215346823E0,3.781023741E0,6.069926262E0,5.263978004E0,8.879730277E0
2.217751979E0,3.711594820E0,6.093867302E0,5.323830605E0,8.902489939E0
2.220157708E0,3.682865620E0,6.108231544E0,5.354953289E0,8.919053565E0
2.222563125E0,3.656530619E0,6.122596264E0,5.354953289E0,8.918067386E0
2.224967812E0,3.623013258E0,6.151325226E0,5.328618526E0,8.908378220E0
2.227372917E0,3.637377977E0,6.175266266E0,5.297495365E0,8.912232557E0
2.229778021E0,3.634983778E0,6.194419384E0,5.254401207E0,8.899026386E0
2.232183333E0,3.611042738E0,6.220754147E0,5.213701725E0,8.883698413E0
2.234588177E0,3.596678257E0,6.235118866E0,5.170608044E0,8.862730352E0
2.236992865E0,3.544008017E0,6.251877785E0,5.108361244E0,8.817104018E0
2.239398542E0,3.539219618E0,6.266242027E0,5.072449684E0,8.804635736E0
2.241803906E0,3.481761456E0,6.266242027E0,4.969503880E0,8.722638407E0
2.244208906E0,3.457820415E0,6.283000469E0,4.924015999E0,8.699341957E0
2.246614167E0,3.409938335E0,6.278212547E0,5.029356480E0,8.737165378E0
2.249019740E0,3.366844654E0,6.304547787E0,4.689394474E0,8.548297272E0
2.251425729E0,3.309386492E0,6.314124107E0,4.859375477E0,8.627498607E0
2.253831250E0,3.208834171E0,6.338065147E0,4.675029278E0,8.504327445E0
2.256236406E0,3.172922611E0,6.323700428E0,4.670241356E0,8.477486616E0
2.258642135E0,3.093917370E0,6.326094627E0,4.780369759E0,8.511388427E0
2.261047500E0,3.010123968E0,6.362006187E0,4.581659794E0,8.398069748E0
2.263452135E0,2.933512926E0,6.345247269E0,4.871345997E0,8.520426797E0
2.265857240E0,2.859295607E0,6.357217789E0,4.703758717E0,8.409229182E0
2.268262448E0,2.801837444E0,6.354823589E0,4.785157681E0,8.433967628E0
2.270668073E0,2.713255644E0,6.342853069E0,4.878527641E0,8.449471770E0
2.273073437E0,2.665373564E0,6.364400387E0,4.708547115E0,8.353455839E0
2.275478594E0,2.617491722E0,6.364400387E0,4.967109680E0,8.486992033E0
2.277884427E0,2.610309362E0,6.385947227E0,4.725306034E0,8.361970705E0
2.280289427E0,2.567215681E0,6.378764629E0,4.878527641E0,8.430852062E0
2.282694167E0,2.567215681E0,6.436223030E0,4.871345997E0,8.470275974E0
2.285099323E0,2.579186201E0,6.488893032E0,4.782763958E0,8.463614200E0
2.287504375E0,2.562427521E0,6.517622471E0,5.005415440E0,8.608113684E0
2.289909896E0,2.591156721E0,6.555928230E0,4.730093956E0,8.489291899E0
2.292314844E0,2.605521202E0,6.582262993E0,4.935986519E0,8.630115281E0
2.294719479E0,2.624674082E0,6.620568752E0,4.907257557E0,8.648816183E0
2.297125260E0,2.624674082E0,6.649298191E0,4.907257557E0,8.670827942E0
2.299530625E0,2.636644602E0,6.706756115E0,5.139484882E0,8.851371487E0
2.301935208E0,2.660585403E0,6.709150791E0,4.921621799E0,8.735775877E0
2.304340104E0,2.679738522E0,6.735485554E0,5.228066444E0,8.937585968E0
2.306745469E0,2.718043804E0,6.771397114E0,5.084420204E0,8.893307023E0
2.309151042E0,2.701285124E0,6.785761833E0,5.093997002E0,8.904622981E0
2.311556042E0,2.703679323E0,6.785761833E0,5.242430687E0,8.991080305E0
2.313960990E0,2.710861683E0,6.812096596E0,5.072449684E0,8.915333807E0
2.316366875E0,2.665373564E0,6.800126076E0,5.364530087E0,9.062235592E0
2.318772292E0,2.653403282E0,6.816884518E0,5.180184364E0,8.963524617E0
2.321177448E0,2.600733280E0,6.807308674E0,5.297495365E0,9.009257579E0
2.323582969E0,2.557639122E0,6.807308674E0,5.395653248E0,9.055056225E0
2.325988542E0,2.543274641E0,6.804913998E0,5.263978004E0,8.971319014E0
2.328394323E0,2.516939640E0,6.802520275E0,5.556057930E0,9.136686870E0
2.330799115E0,2.502574921E0,6.814490795E0,5.386076927E0,9.039357870E0
2.333203594E0,2.507363081E0,6.814490795E0,5.611122608E0,9.176538091E0
2.335609219E0,2.502574921E0,6.819279194E0,5.639851570E0,9.196378401E0
2.338014271E0,2.512151480E0,6.838431835E0,5.551270008E0,9.159238709E0
2.340419010E0,2.569609642E0,6.836037636E0,5.845743656E0,9.354518863E0
2.342824479E0,2.610309362E0,6.862372875E0,5.639851570E0,9.258174884E0
2.345229844E0,2.612703562E0,6.864766598E0,5.678156853E0,9.284002671E0
2.347635729E0,2.677344084E0,6.903072834E0,5.694915771E0,9.340912779E0
2.350041198E0,2.727620363E0,6.881525517E0,5.620698452E0,9.294490700E0
2.352445885E0,2.746773243E0,6.915042877E0,5.675762653E0,9.358251062E0
2.354851458E0,2.761137724E0,6.895890236E0,5.749979973E0,9.393585756E0
2.357256771E0,2.763531685E0,6.903072834E0,5.843349934E0,9.456968879E0
2.359661615E0,2.710861683E0,6.874343395E0,5.929537296E0,9.474427726E0
2.362066771E0,2.703679323E0,6.867161274E0,6.015724659E0,9.521382726E0
2.364471927E0,2.694103003E0,6.838431835E0,6.125853539E0,9.568093986E0
2.366877552E0,2.670161963E0,6.836037636E0,6.226405144E0,9.624411487E0
2.369282760E0,2.701285124E0,6.821673393E0,6.267105579E0,9.649289173E0
2.371687500E0,2.713255644E0,6.800126076E0,6.279076099E0,9.645219930E0
2.374092760E0,2.725226164E0,6.785761833E0,6.283864021E0,9.641595736E0
2.376497604E0,2.792260885E0,6.769002438E0,6.267105579E0,9.638087320E0
2.378902031E0,2.842537165E0,6.769002438E0,6.204858780E0,9.612475436E0
2.381306875E0,2.923936367E0,6.747456074E0,6.140217781E0,9.580179630E0
2.383711875E0,3.007730007E0,6.745061874E0,6.085154057E0,9.569294612E0
2.386117500E0,3.060400009E0,6.740273476E0,6.032483578E0,9.549250906E0
2.388522865E0,3.079552889E0,6.757032394E0,5.984601498E0,9.537116328E0
2.390927552E0,3.117858410E0,6.737879753E0,6.006148338E0,9.549548811E0
2.393332760E0,3.115464449E0,6.737879753E0,6.003754616E0,9.547262005E0
2.395737448E0,3.110676050E0,6.733091354E0,6.013330936E0,9.548349262E0
2.398142083E0,3.110676050E0,6.733091354E0,6.037271976E0,9.563444860E0
2.400547083E0,3.072370529E0,6.735485554E0,6.063606739E0,9.569407139E0
2.402951823E0,3.053217649E0,6.749850273E0,6.104306221E0,9.599227634E0
2.405357135E0,3.014912128E0,6.766608715E0,6.164158821E0,9.637092021E0
2.407761979E0,2.995759487E0,6.788155556E0,6.202464581E0,9.670790951E0
2.410166198E0,2.962241888E0,6.833643436E0,6.231194019E0,9.710887628E0
2.412571198E0,2.945483208E0,6.816884518E0,6.219223499E0,9.686306148E0
2.414975937E0,2.933512926E0,6.848008156E0,6.178523540E0,9.678577733E0
2.417380365E0,2.931118727E0,6.831249714E0,6.121065617E0,9.629375573E0
2.419785260E0,2.921542406E0,6.852796078E0,6.080365181E0,9.615979661E0
2.422190208E0,2.897601366E0,6.867161274E0,6.049242496E0,9.599340208E0
2.424595781E0,2.880842686E0,6.857584476E0,6.051636219E0,9.588953038E0
2.427001198E0,2.866477966E0,6.855190754E0,6.058818817E0,9.587472121E0
2.429405990E0,2.849719524E0,6.874343395E0,6.068394661E0,9.602234753E0
2.431811354E0,2.830566645E0,6.869554996E0,6.054030418E0,9.584058519E0
2.434216198E0,2.816201925E0,6.874343395E0,6.022907257E0,9.563629135E0
2.436620677E0,2.816201925E0,6.876737118E0,5.994177818E0,9.547286232E0
2.439025573E0,2.801837444E0,6.874343395E0,5.898413658E0,9.481464753E0
2.441430469E0,2.823384285E0,6.879131794E0,5.788285255E0,9.423279644E0
2.443835781E0,2.828172445E0,6.903072834E0,5.738009453E0,9.411467814E0
2.446240729E0,2.816201925E0,6.915042877E0,5.761950493E0,9.431271641E0
2.448645469E0,2.820990086E0,6.941378117E0,5.807438374E0,9.479823610E0
2.451051146E0,2.811413765E0,6.958136559E0,5.869684696E0,9.527481837E0
2.453456771E0,2.809019566E0,6.982077599E0,5.939114094E0,9.587130683E0
2.455861875E0,2.840142965E0,7.010806561E0,5.998966217E0,9.654295229E0
2.458267031E0,2.885630846E0,7.034747601E0,6.042059898E0,9.711901307E0
2.460672083E0,2.921542406E0,7.056294441E0,6.042059898E0,9.738233366E0
2.463077656E0,2.969424248E0,7.041930199E0,6.046848297E0,9.745287867E0
2.465483021E0,3.017306089E0,7.058688641E0,6.034877777E0,9.764679777E0
2.467888073E0,3.046035528E0,7.049112797E0,5.975025177E0,9.729812410E0
2.470293854E0,3.101099730E0,7.056294441E0,5.884049416E0,9.696914370E0
2.472699479E0,3.129828930E0,7.075447559E0,5.836167336E0,9.691162802E0
2.475104687E0,3.141799450E0,7.108964443E0,5.872078896E0,9.741128774E0
2.477509687E0,3.168134451E0,7.106570721E0,5.939114094E0,9.788437032E0
2.479914844E0,3.153769970E0,7.142482281E0,5.998966217E0,9.846263953E0
2.482320729E0,3.170528650E0,7.171211720E0,6.020513058E0,9.885600990E0
2.484725885E0,3.220804691E0,7.207123280E0,6.044454098E0,9.942415912E0
2.487130573E0,3.275868893E0,7.219093800E0,6.044454098E0,9.969055002E0
2.489536406E0,3.352480173E0,7.231064320E0,6.034877777E0,9.997357865E0
2.491941562E0,3.419514894E0,7.243034840E0,5.958266258E0,9.982763776E0
2.494346198E0,3.472184896E0,7.211911201E0,5.869684696E0,9.925770981E0
2.496751250E0,3.505702496E0,7.262187004E0,5.800255775E0,9.933392025E0
2.499156146E0,3.555978298E0,7.247822762E0,5.726038933E0,9.897648120E0
2.501561458E0,3.570343256E0,7.240640163E0,5.599152088E0,9.824699743E0
2.503966510E0,3.558372736E0,7.228669643E0,5.527328968E0,9.770723968E0
2.506371562E0,3.522461176E0,7.211911201E0,5.443535328E0,9.698013857E0
2.508777396E0,3.448243856E0,7.178393841E0,5.462687969E0,9.657157122E0
2.511182604E0,3.342903614E0,7.183182240E0,5.467476368E0,9.626339361E0
2.513587344E0,3.261504412E0,7.190364361E0,5.467476368E0,9.603751793E0
2.515992656E0,3.177711010E0,7.173605442E0,5.477052689E0,9.568519658E0
2.518397917E0,3.065188169E0,7.147270679E0,5.469870567E0,9.507804200E0
2.520803542E0,2.979000568E0,7.159241199E0,5.508175850E0,9.511528801E0
2.523208854E0,2.895207167E0,7.140088081E0,5.556057930E0,9.499097961E0
2.525613698E0,2.868872166E0,7.144876003E0,5.587181568E0,9.512953194E0
2.528019167E0,2.797049284E0,7.140088081E0,5.632668972E0,9.514793863E0
2.530424062E0,2.765925884E0,7.135300159E0,5.666186333E0,9.522001991E0
2.532828646E0,2.734802723E0,7.140088081E0,5.663792610E0,9.515174747E0
2.535233646E0,2.698891163E0,7.171211720E0,5.630274773E0,9.508432313E0
2.537638854E0,2.703679323E0,7.197546482E0,5.647033691E0,9.539577913E0
2.540044687E0,2.706073523E0,7.238245964E0,5.747585773E0,9.630668760E0
2.542450208E0,2.749167204E0,7.310069084E0,5.848137856E0,9.756830772E0
2.544855365E0,2.797049284E0,7.360345364E0,5.915173054E0,9.848220186E0
2.547261146E0,2.890419006E0,7.427380085E0,5.979813576E0,9.963868092E0
2.549666615E0,2.993365049E0,7.456109047E0,5.986995697E0,1.001987594E1
2.552071667E0,3.086735249E0,7.494414806E0,5.996572018E0,1.008231440E1
2.554476875E0,3.170528650E0,7.542296886E0,5.924749374E0,1.010154193E1
2.556881719E0,3.273474932E0,7.563843727E0,5.891232014E0,1.013084324E1
2.559286979E0,3.335721493E0,7.568631649E0,5.817014694E0,1.011181897E1
2.561691979E0,3.409938335E0,7.594967365E0,5.738009453E0,1.011118001E1
2.564096667E0,3.465002775E0,7.614119530E0,5.718856812E0,1.013342902E1
2.566502448E0,3.474579096E0,7.621302128E0,5.709280491E0,1.013670705E1
2.568907969E0,3.491338015E0,7.606937885E0,5.699703693E0,1.012628102E1
2.571313021E0,3.481761456E0,7.573420048E0,5.656610012E0,1.007355900E1
2.573718385E0,3.462608576E0,7.573420048E0,5.560845852E0,1.001345874E1
2.576123594E0,3.424302816E0,7.544690609E0,5.469870567E0,9.928126217E0
2.578529219E0,3.371632814E0,7.492020607E0,5.433959007E0,9.850187364E0
2.580934531E0,3.314174414E0,7.463291645E0,5.405230045E0,9.792904884E0
2.583339167E0,3.287839413E0,7.436956882E0,5.393259525E0,9.757328732E0
2.585744740E0,3.239957333E0,7.415409565E0,5.354953289E0,9.703666692E0
2.588150208E0,3.199257612E0,7.403439045E0,5.278342247E0,9.638830626E0
2.590555417E0,3.213622332E0,7.393862724E0,5.254401207E0,9.623165099E0
2.592961094E0,3.216016531E0,7.372315884E0,5.242430687E0,9.600879299E0
2.595366562E0,3.254321814E0,7.369921684E0,5.206519604E0,9.592403374E0
2.597772344E0,3.285445452E0,7.336404324E0,5.175396442E0,9.560424078E0
2.600177552E0,3.333327055E0,7.334010124E0,5.113149643E0,9.541649387E0
2.602582396E0,3.354874134E0,7.360345364E0,5.029356480E0,9.524929970E0
2.604988021E0,3.393179655E0,7.357951164E0,4.912045479E0,9.475299694E0
2.607392969E0,3.414726734E0,7.365133762E0,4.830646038E0,9.446729336E0
2.609797344E0,3.407544374E0,7.405833244E0,4.780369759E0,9.450378814E0
2.612202344E0,3.388391733E0,7.424986362E0,4.780369759E0,9.458517645E0
2.614607552E0,3.364450693E0,7.456109047E0,4.746852398E0,9.457573593E0
2.617013229E0,3.345297575E0,7.487232685E0,4.737276554E0,9.470557444E0
2.619418437E0,3.338115454E0,7.525537968E0,4.727699757E0,9.493570533E0
2.621823333E0,3.330933094E0,7.544690609E0,4.754034996E0,9.519365546E0
2.624229271E0,3.314174414E0,7.580602169E0,4.773188114E0,9.551576104E0
2.626634531E0,3.326144934E0,7.635666847E0,4.766005516E0,9.595908342E0
2.629039219E0,3.314174414E0,7.688336849E0,4.813887596E0,9.657525011E0
2.631444531E0,3.333327055E0,7.719460011E0,4.840222359E0,9.702004153E0
2.633849792E0,3.364450693E0,7.764948368E0,4.864163399E0,9.760842033E0
2.636255312E0,3.383603334E0,7.800859451E0,4.931198597E0,9.829491305E0
2.638660469E0,3.405150175E0,7.846347332E0,5.014991283E0,9.915157676E0
2.641065208E0,3.421908855E0,7.884652615E0,5.079632282E0,9.983980729E0
2.643470885E0,3.465002775E0,7.899017811E0,5.120331764E0,1.003087853E1
2.645876198E0,3.491338015E0,7.939716816E0,5.196942806E0,1.011121945E1
2.648281250E0,3.522461176E0,7.949293613E0,5.187366962E0,1.012461247E1
2.650686406E0,3.572737217E0,7.944505215E0,5.182578564E0,1.013601178E1
2.653091615E0,3.589495897E0,7.932534695E0,5.158637524E0,1.012033243E1
2.655497448E0,3.591889858E0,7.918169975E0,5.117938042E0,1.008922090E1
2.657903021E0,3.582313776E0,7.903805733E0,5.079632282E0,1.005513705E1
2.660308281E0,3.584707737E0,7.879864693E0,5.029356480E0,1.001183418E1
2.662714271E0,3.551190138E0,7.855923653E0,5.003020763E0,9.967783334E0
2.665119896E0,3.517673016E0,7.831982613E0,4.988656521E0,9.929786955E0
2.667525052E0,3.491338015E0,7.827194691E0,5.000627041E0,9.922735946E0
2.669930417E0,3.491338015E0,7.817618370E0,5.034144402E0,9.932130082E0
2.672335729E0,3.472184896E0,7.803253651E0,5.067661762E0,9.931164646E0
2.674741302E0,3.465002775E0,7.796071053E0,5.072449684E0,9.925457868E0
2.677146458E0,3.448243856E0,7.800859451E0,5.058085442E0,9.916048719E0
2.679551719E0,3.486549616E0,7.764948368E0,5.050902843E0,9.897579043E0
2.681957865E0,3.498520136E0,7.764948368E0,5.058085442E0,9.905467916E0
2.684363281E0,3.500914097E0,7.750583172E0,5.065268040E0,9.898731198E0
2.686767865E0,3.532037497E0,7.757765770E0,5.062873363E0,9.914176986E0
2.689172865E0,3.546402216E0,7.741007328E0,5.065268040E0,9.907426681E0
2.691578281E0,3.565554857E0,7.767342091E0,5.079632282E0,9.942205425E0
2.693984115E0,3.579919338E0,7.750583172E0,5.074843884E0,9.931837817E0
2.696389427E0,3.601466417E0,7.743401051E0,5.096390724E0,9.945049955E0
2.698794323E0,3.599072218E0,7.726642132E0,5.098784924E0,9.932367651E0
2.701199792E0,3.577525377E0,7.721854210E0,5.096390724E0,9.919622910E0
2.703604948E0,3.555978298E0,7.697913170E0,5.086814404E0,9.888302665E0
2.706010000E0,3.546402216E0,7.669184208E0,5.034144402E0,9.835444319E0
2.708415417E0,3.532037497E0,7.659607887E0,5.034144402E0,9.822804677E0
2.710820573E0,3.527249098E0,7.647637367E0,5.022173882E0,9.805614412E0
2.713226250E0,3.508096457E0,7.657213688E0,5.053297520E0,9.822193138E0
2.715631667E0,3.493731976E0,7.626090050E0,5.067661762E0,9.800235115E0
2.718036406E0,3.481761456E0,7.626090050E0,5.093997002E0,9.809623730E0
2.720442031E0,3.460214376E0,7.604543209E0,5.115543842E0,9.796476395E0
2.722847552E0,3.474579096E0,7.606937885E0,5.165819645E0,9.829745495E0
2.725252552E0,3.448243856E0,7.597361088E0,5.137090683E0,9.797958046E0
2.727657917E0,3.474579096E0,7.582996845E0,5.132302284E0,9.793623833E0
2.730063229E0,3.472184896E0,7.568631649E0,5.137090683E0,9.784168523E0
2.732469062E0,3.476973057E0,7.559055805E0,5.115543842E0,9.767162080E0
2.734874427E0,3.479367495E0,7.547085285E0,5.134696484E0,9.768807626E0
2.737279219E0,3.469790936E0,7.568631649E0,5.079632282E0,9.753271159E0
2.739684844E0,3.414726734E0,7.592572689E0,5.084420204E0,9.754939647E0
2.742090052E0,3.409938335E0,7.578207970E0,5.060479164E0,9.729612780E0
2.744494792E0,3.390785694E0,7.585390568E0,5.041327000E0,9.718567570E0
2.746900260E0,3.388391733E0,7.575814247E0,5.031750202E0,9.705290832E0
2.749306042E0,3.402756214E0,7.599755287E0,4.983868599E0,9.704327720E0
2.751712031E0,3.402756214E0,7.606937885E0,4.940774441E0,9.687905136E0
2.754117187E0,3.409938335E0,7.604543209E0,4.895287037E0,9.665432843E0
2.756521927E0,3.433879375E0,7.628484249E0,4.856980801E0,9.673446232E0
2.758927448E0,3.455426455E0,7.623696327E0,4.816281319E0,9.656981071E0
2.761332396E0,3.484155416E0,7.602149010E0,4.766005516E0,9.625321663E0
2.763737031E0,3.505702496E0,7.594967365E0,4.672635555E0,9.581597064E0
2.766142292E0,3.479367495E0,7.592572689E0,4.564900875E0,9.517955568E0
2.768547760E0,3.474579096E0,7.592572689E0,4.514625072E0,9.492191500E0
2.770953854E0,3.467396975E0,7.592572689E0,4.509836674E0,9.487287739E0
2.773359635E0,3.407544374E0,7.609331608E0,4.555325031E0,9.500751145E0
2.775765000E0,3.383603334E0,7.602149010E0,4.600812435E0,9.508360329E0
2.778171042E0,3.395573854E0,7.626090050E0,4.641512394E0,9.551482008E0
2.780576354E0,3.378815174E0,7.606937885E0,4.694182396E0,9.556005669E0
2.782981354E0,3.383603334E0,7.611725807E0,4.770793438E0,9.599354734E0
2.785386979E0,3.390785694E0,7.597361088E0,4.787552357E0,9.598853092E0
2.787792708E0,3.390785694E0,7.606937885E0,4.797128201E0,9.611210672E0
2.790198542E0,3.424302816E0,7.616513729E0,4.830646038E0,9.647397178E0
2.792603958E0,3.453032255E0,7.616513729E0,4.840222359E0,9.662425452E0
2.795009062E0,3.488943577E0,7.630878448E0,4.904862881E0,9.719090135E0
2.797414844E0,3.510490656E0,7.662001610E0,4.969503880E0,9.783955341E0
2.799820365E0,3.548796177E0,7.664395809E0,4.993444920E0,9.811799508E0
2.802225990E0,3.555978298E0,7.695518970E0,5.048508644E0,9.866784350E0
2.804631979E0,3.579919338E0,7.709883690E0,5.072449684E0,9.898882501E0
2.807037552E0,3.603860378E0,7.724247932E0,5.086814404E0,9.926101779E0
2.809443490E0,3.620619059E0,7.709883690E0,5.101179600E0,9.928404816E0
2.811848958E0,3.634983778E0,7.719460011E0,5.110755444E0,9.946003777E0
2.814254010E0,3.644560099E0,7.721854210E0,5.115543842E0,9.953825373E0
2.816659948E0,3.661319017E0,7.741007328E0,5.108361244E0,9.971148680E0
2.819065521E0,3.685259819E0,7.743401051E0,5.084420204E0,9.969590191E0
2.821470677E0,3.740324259E0,7.760159492E0,5.062873363E0,9.992136288E0
2.823876302E0,3.776235580E0,7.786494732E0,5.050902843E0,1.002003368E1
2.826282292E0,3.831300020E0,7.817618370E0,5.079632282E0,1.007951789E1
2.828688490E0,3.876787901E0,7.810435772E0,5.125120163E0,1.011430907E1
2.831093906E0,3.946216822E0,7.836771011E0,5.177790165E0,1.018808707E1
2.833498802E0,3.974945784E0,7.877470493E0,5.196942806E0,1.024026122E1
2.835904427E0,4.015645504E0,7.910988331E0,5.192154884E0,1.027947555E1
2.838309896E0,4.020433903E0,7.951687336E0,5.232854366E0,1.033324659E1
2.840715208E0,4.053951263E0,7.987598896E0,5.254401207E0,1.038484420E1
2.843120781E0,4.080286026E0,8.009145737E0,5.259190083E0,1.041413606E1
2.845526250E0,4.106621742E0,8.035480499E0,5.261583805E0,1.044593477E1
2.847932292E0,4.089862823E0,8.042663574E0,5.278342247E0,1.045333976E1
2.850337969E0,4.082680702E0,8.040268898E0,5.335800648E0,1.047783252E1
2.852743073E0,4.075498104E0,8.035480499E0,5.350165367E0,1.047868795E1
2.855148958E0,4.053951263E0,8.011539459E0,5.362135887E0,1.045809670E1
2.857554531E0,4.022828102E0,7.999569416E0,5.359741688E0,1.043566422E1
2.859959635E0,3.998886824E0,7.994781971E0,5.350165367E0,1.041786466E1
2.862364948E0,3.939034224E0,7.961264133E0,5.304677486E0,1.034588423E1
2.864769896E0,3.883970022E0,7.944505215E0,5.230460167E0,1.027414716E1
2.867175208E0,3.828905582E0,7.896623135E0,5.213701725E0,1.020783329E1
2.869580312E0,3.773841381E0,7.894228935E0,5.201731205E0,1.017932890E1
2.871984948E0,3.716383219E0,7.875076771E0,5.175396442E0,1.012981079E1
2.874390417E0,3.680471659E0,7.831982613E0,5.139484882E0,1.006479648E1
2.876795625E0,3.634983778E0,7.827194691E0,5.113149643E0,1.003107088E1
2.879200469E0,3.587101698E0,7.788888931E0,5.115543842E0,9.985132857E0
2.881605573E0,3.567948818E0,7.767342091E0,5.091602802E0,9.949184942E0
2.884010833E0,3.541613817E0,7.774524212E0,5.077238560E0,9.938038365E0
2.886416354E0,3.496125937E0,7.752977848E0,5.026961803E0,9.879367745E0
2.888821198E0,3.486549616E0,7.736218452E0,5.012597561E0,9.855518174E0
2.891225833E0,3.460214376E0,7.726642132E0,4.940774441E0,9.802312698E0
2.893631562E0,3.441061735E0,7.733824730E0,4.856980801E0,9.759262949E0
2.896037031E0,3.421908855E0,7.750583172E0,4.818675518E0,9.746826841E0
2.898442083E0,3.431485415E0,7.752977848E0,4.806704998E0,9.746187491E0
2.900847656E0,3.419514894E0,7.757765770E0,4.794734478E0,9.739891712E0
2.903253021E0,3.424302816E0,7.791283131E0,4.811493397E0,9.776523478E0
2.905658750E0,3.433879375E0,7.831982613E0,4.823463917E0,9.818211821E0
2.908063958E0,3.472184896E0,7.858317852E0,4.833039761E0,9.857357696E0
2.910468490E0,3.484155416E0,7.884652615E0,4.845010281E0,9.888438220E0
2.912874062E0,3.529643536E0,7.901411533E0,4.847404957E0,9.919073673E0
2.915279323E0,3.587101698E0,7.899017811E0,4.833039761E0,9.930763027E0
2.917684115E0,3.639771938E0,7.930140495E0,4.797128201E0,9.957284118E0
2.920089375E0,3.713989019E0,7.942111492E0,4.770793438E0,9.981548949E0
2.922494740E0,3.764265060E0,7.946899891E0,4.785157681E0,1.001102609E1
2.924900573E0,3.800176382E0,7.937323093E0,4.797128201E0,1.002271806E1
2.927305937E0,3.809752941E0,7.889441013E0,4.825858116E0,1.000231991E1
2.929710833E0,3.807358980E0,7.903805733E0,4.801917076E0,1.000122668E1
2.932116406E0,3.761870861E0,7.903805733E0,4.792340279E0,9.979395913E0
2.934521823E0,3.759476900E0,7.882258892E0,4.751640797E0,9.941919436E0
2.936926875E0,3.718777180E0,7.875076771E0,4.761217594E0,9.925488947E0
2.939332292E0,3.675683498E0,7.843953133E0,4.756428719E0,9.882401737E0
2.941737708E0,3.644560099E0,7.805647850E0,4.742064476E0,9.833520843E0
2.944143594E0,3.594284058E0,7.788888931E0,4.727699757E0,9.794733976E0
2.946549115E0,3.536825657E0,7.772130013E0,4.694182396E0,9.744254154E0
2.948954115E0,3.479367495E0,7.750583172E0,4.636723995E0,9.678674861E0
2.951359844E0,3.445849895E0,7.719460011E0,4.627147198E0,9.637138348E0
2.953765000E0,3.419514894E0,7.719460011E0,4.603206158E0,9.616270166E0
2.956169844E0,3.414726734E0,7.719460011E0,4.579266071E0,9.603129660E0
2.958575208E0,3.407544374E0,7.714671612E0,4.557718754E0,9.586465302E0
2.960980521E0,3.409938335E0,7.702701092E0,4.550536156E0,9.574270879E0
2.963386458E0,3.417120695E0,7.700307369E0,4.572083473E0,9.585165346E0
2.965792187E0,3.441061735E0,7.721854210E0,4.560112953E0,9.605340621E0
2.968197552E0,3.467396975E0,7.731430531E0,4.562506676E0,9.623633773E0
2.970603437E0,3.474579096E0,7.724247932E0,4.569689274E0,9.623864404E0
2.973008802E0,3.481761456E0,7.738612652E0,4.550536156E0,9.628923507E0
2.975414271E0,3.481761456E0,7.764948368E0,4.485896111E0,9.619789494E0
2.977820156E0,3.438667774E0,7.781706810E0,4.440407753E0,9.596698284E0
2.980225885E0,3.462608576E0,7.800859451E0,4.404496193E0,9.604303881E0
2.982631875E0,3.409938335E0,7.796071053E0,4.399708271E0,9.579344246E0
2.985037552E0,3.374027014E0,7.815224171E0,4.423649311E0,9.593250771E0
2.987442812E0,3.340509653E0,7.810435772E0,4.423649311E0,9.577608518E0
2.989848906E0,3.330933094E0,7.781706810E0,4.426043510E0,9.551959867E0
2.992254531E0,3.295021772E0,7.764948368E0,4.442801952E0,9.533628943E0
2.994659792E0,3.290233374E0,7.741007328E0,4.440407753E0,9.511364314E0
2.997065677E0,3.297415972E0,7.712277889E0,4.406890392E0,9.474854366E0
2.999471615E0,3.278262854E0,7.693125248E0,4.406890392E0,9.452611615E0
3.001878125E0,3.283051252E0,7.666790009E0,4.392525673E0,9.426153847E0
3.004283802E0,3.299809933E0,7.652425289E0,4.363796711E0,9.406969764E0
3.006688698E0,3.285445452E0,7.633272648E0,4.402102470E0,9.404228267E0
3.009094583E0,3.285445452E0,7.618907928E0,4.402102470E0,9.392572385E0
3.011500312E0,3.273474932E0,7.606937885E0,4.409284592E0,9.382053759E0
3.013905625E0,3.242351532E0,7.585390568E0,4.428437233E0,9.362801389E0
3.016311042E0,3.206440210E0,7.594967365E0,4.464348793E0,9.375243903E0
3.018716562E0,3.201651812E0,7.611725807E0,4.488289833E0,9.398600412E0
3.021122604E0,3.208834171E0,7.618907928E0,4.543354511E0,9.433262690E0
3.023527969E0,3.220804691E0,7.616513729E0,4.567295551E0,9.446959982E0
3.025932760E0,3.239957333E0,7.614119530E0,4.593630314E0,9.464331946E0
3.028338333E0,3.268686771E0,7.628484249E0,4.622359276E0,9.499699491E0
3.030743281E0,3.297415972E0,7.628484249E0,4.667847157E0,9.531816254E0
3.033147865E0,3.321356773E0,7.626090050E0,4.730093956E0,9.568826945E0
3.035552865E0,3.335721493E0,7.616513729E0,4.782763958E0,9.592348531E0
3.037957969E0,3.326144934E0,7.614119530E0,4.813887596E0,9.602685568E0
3.040363802E0,3.316568613E0,7.628484249E0,4.828251839E0,9.617973545E0
3.042769219E0,3.333327055E0,7.621302128E0,4.833039761E0,9.620477572E0
3.045174010E0,3.350085974E0,7.602149010E0,4.864163399E0,9.626828718E0
3.047579427E0,3.357268095E0,7.604543209E0,4.900074959E0,9.649407292E0
3.049984375E0,3.390785694E0,7.566237450E0,4.904862881E0,9.633434312E0
3.052389219E0,3.409938335E0,7.568631649E0,4.876133919E0,9.627489106E0
3.054794531E0,3.455426455E0,7.554266930E0,4.885710239E0,9.637275827E0
3.057199896E0,3.481761456E0,7.537508488E0,4.907257557E0,9.644577428E0
3.059605573E0,3.524855137E0,7.542296886E0,4.916833401E0,9.668820856E0
3.062010833E0,3.579919338E0,7.559055805E0,4.935986519E0,9.711802616E0
3.064415833E0,3.606254578E0,7.594967365E0,4.955139160E0,9.759201066E0
3.066821510E0,3.661319017E0,7.609331608E0,4.983868599E0,9.805413335E0
3.069226823E0,3.692442179E0,7.640454769E0,5.003020763E0,9.850933716E0
3.071631875E0,3.706806660E0,7.683548450E0,5.029356480E0,9.903118650E0
3.074037240E0,3.716383219E0,7.721854210E0,5.050902843E0,9.947369311E0
3.076442812E0,3.730747700E0,7.731430531E0,5.084420204E0,9.977215306E0
3.078848750E0,3.702018499E0,7.750583172E0,5.089209080E0,9.983813376E0
3.081254115E0,3.661319017E0,7.786494732E0,5.084420204E0,9.994302676E0
3.083659062E0,3.620619059E0,7.803253651E0,5.084420204E0,9.992546158E0
3.086064792E0,3.553584337E0,7.796071053E0,5.101179600E0,9.971395028E0
3.088470156E0,3.524855137E0,7.803253651E0,5.103573322E0,9.968040526E0
3.090874792E0,3.462608576E0,7.798465252E0,5.110755444E0,9.946131893E0
3.093279531E0,3.412332773E0,7.788888931E0,5.105967522E0,9.918755470E0
3.095684375E0,3.390785694E0,7.784100533E0,5.077238560E0,9.892825689E0
3.098089635E0,3.321356773E0,7.798465252E0,5.053297520E0,9.868297063E0
3.100494792E0,3.297415972E0,7.769736290E0,5.060479164E0,9.841250097E0
3.102899687E0,3.299809933E0,7.748188972E0,5.053297520E0,9.821353968E0
3.105305312E0,3.302203894E0,7.760159492E0,5.074843884E0,9.842696091E0
3.107710729E0,3.278262854E0,7.757765770E0,5.072449684E0,9.831565637E0
3.110115625E0,3.271080732E0,7.769736290E0,5.060479164E0,9.832457503E0
3.112520781E0,3.309386492E0,7.798465252E0,5.055691242E0,9.865501162E0
3.114925833E0,3.335721493E0,7.800859451E0,5.072449684E0,9.884846577E0
3.117331354E0,3.333327055E0,7.834376812E0,5.065268040E0,9.906839536E0
3.119736562E0,3.354874134E0,7.860712051E0,5.070055962E0,9.937376005E0
3.122141250E0,3.366844654E0,7.882258892E0,5.038932323E0,9.942659962E0
3.124546615E0,3.385997534E0,7.915776253E0,4.979079723E0,9.945638636E0
3.126951562E0,3.400362253E0,7.966052532E0,4.940774441E0,9.971544939E0
3.129356458E0,3.421908855E0,7.989993572E0,4.919228077E0,9.987405187E0
3.131761771E0,3.433879375E0,8.040268898E0,4.926409721E0,1.003528596E1
3.134167187E0,3.443455935E0,8.083362579E0,4.969503880E0,1.009426115E1
3.136573125E0,3.462608576E0,8.155185699E0,5.000627041E0,1.017364157E1
3.138978646E0,3.472184896E0,8.205461502E0,4.979079723E0,1.020670864E1
3.141383750E0,3.486549616E0,8.272496223E0,4.926409721E0,1.024010423E1
3.143789583E0,3.469790936E0,8.315589905E0,4.895287037E0,1.025438052E1
3.146195052E0,3.484155416E0,8.365866661E0,4.895287037E0,1.030004365E1
3.148600156E0,3.515278578E0,8.411354065E0,4.837828159E0,1.032049621E1
3.151005417E0,3.546402216E0,8.449659348E0,4.864163399E0,1.037467095E1
3.153410729E0,3.587101698E0,8.454447746E0,4.833039761E0,1.037801805E1
3.155816562E0,3.637377977E0,8.459236145E0,4.873739719E0,1.041837480E1
3.158222083E0,3.699624300E0,8.435295105E0,4.940774441E0,1.045240047E1
3.160627135E0,3.740324259E0,8.418537140E0,4.969503880E0,1.046698438E1
3.163033021E0,3.773841381E0,8.399383545E0,4.962321281E0,1.046021774E1
3.165438385E0,3.785811901E0,8.351501465E0,4.919228077E0,1.040570773E1
3.167843125E0,3.802570581E0,8.325166702E0,4.813887596E0,1.034125028E1
3.170248281E0,3.809752941E0,8.270102501E0,4.770793438E0,1.027955655E1
3.172653490E0,3.819329500E0,8.207855225E0,4.799522877E0,1.024654015E1
3.175059115E0,3.869605303E0,8.159974098E0,4.854587078E0,1.025309896E1
3.177464323E0,3.833693743E0,8.088150978E0,4.926409721E0,1.021689320E1
3.179869115E0,3.840876341E0,8.025904655E0,4.976686001E0,1.019484576E1
3.182274479E0,3.812146902E0,7.973234653E0,5.010203362E0,1.015908818E1
3.184679375E0,3.781023741E0,7.901411533E0,4.964715481E0,1.006860688E1
3.187084115E0,3.745112181E0,7.884652615E0,4.926409721E0,1.002312949E1
3.189489271E0,3.713989019E0,7.855923653E0,4.878527641E0,9.965404298E0
3.191894375E0,3.725959301E0,7.834376812E0,4.902468681E0,9.964659147E0
3.194300208E0,3.737929821E0,7.788888931E0,4.926409721E0,9.945271383E0
3.196705885E0,3.737929821E0,7.788888931E0,4.971898079E0,9.967882455E0
3.199111094E0,3.752294779E0,7.786494732E0,5.026961803E0,9.998978012E0
3.201516875E0,3.730747700E0,7.767342091E0,5.046114922E0,9.985657582E0
3.203922187E0,3.713989019E0,7.776918888E0,5.048508644E0,9.988073956E0
3.206326927E0,3.699624300E0,7.803253651E0,5.070055962E0,1.001416272E1
3.208732292E0,3.673289299E0,7.779312611E0,5.108361244E0,1.000530427E1
3.211137969E0,3.675683498E0,7.767342091E0,5.161031723E0,1.002389649E1
3.213544062E0,3.666106939E0,7.815224171E0,5.187366962E0,1.007108956E1
3.215949844E0,3.678077459E0,7.800859451E0,5.213701725E0,1.007791385E1
3.218355156E0,3.721171141E0,7.793677330E0,5.323830605E0,1.014552578E1
3.220761042E0,3.809752941E0,7.779312611E0,5.457900047E0,1.023819296E1
3.223166510E0,3.876787901E0,7.743401051E0,5.532116890E0,1.027589712E1
3.225571927E0,3.967763186E0,7.745795250E0,5.512964249E0,1.030209996E1
3.227977865E0,4.068315506E0,7.764948368E0,5.546481609E0,1.037347928E1
3.230383646E0,4.109015465E0,7.767342091E0,5.565634251E0,1.040153334E1
3.232789531E0,4.144927025E0,7.767342091E0,5.618304253E0,1.044401100E1
3.235194687E0,4.128168106E0,7.745795250E0,5.647033691E0,1.043686282E1
3.237599323E0,4.113803864E0,7.748188972E0,5.673368931E0,1.044724507E1
3.240005000E0,4.032403946E0,7.683548450E0,5.704492092E0,1.038452832E1
3.242410208E0,3.974945784E0,7.654819489E0,5.764344215E0,1.037420453E1
3.244814844E0,3.912698984E0,7.628484249E0,5.486629009E0,1.017870734E1
3.247219687E0,3.804964781E0,7.587784767E0,5.611122608E0,1.017530990E1
3.249624635E0,3.761870861E0,7.566237450E0,5.489023209E0,1.007615985E1
3.252030208E0,3.733141661E0,7.539902687E0,5.345377445E0,9.967925522E0
3.254435469E0,3.692442179E0,7.496808529E0,5.503387928E0,1.000617540E1
3.256840260E0,3.702018499E0,7.475262165E0,5.165819645E0,9.811736748E0
3.259245833E0,3.663712978E0,7.444138527E0,5.376500607E0,9.886594458E0
3.261651042E0,3.668501139E0,7.451321125E0,5.218489647E0,9.808808353E0
3.264055885E0,3.627801418E0,7.470473766E0,5.127514362E0,9.760139597E0
3.266461042E0,3.630195379E0,7.477656364E0,5.232854366E0,9.822241496E0
3.268866042E0,3.601466417E0,7.489626884E0,4.912045479E0,9.653665729E0
3.271271510E0,3.551190138E0,7.511173725E0,5.105967522E0,9.751901684E0
3.273676667E0,3.517673016E0,7.527932167E0,4.916833401E0,9.655000614E0
3.276081667E0,3.479367495E0,7.525537968E0,4.900074959E0,9.630703737E0
3.278487708E0,3.429091215E0,7.544690609E0,5.048508644E0,9.704043615E0
3.280893177E0,3.393179655E0,7.571026325E0,4.782763958E0,9.576478417E0
3.283298073E0,3.330933094E0,7.580602169E0,4.959927559E0,9.652021856E0
3.285703490E0,3.287839413E0,7.604543209E0,4.708547115E0,9.529395645E0
3.288108854E0,3.242351532E0,7.590178490E0,4.773188114E0,9.534515076E0
3.290514635E0,3.235169172E0,7.604543209E0,4.856980801E0,9.585700782E0
3.292919948E0,3.182499170E0,7.582996845E0,4.675029278E0,9.459706173E0
3.295324740E0,3.141799450E0,7.563843727E0,4.935986519E0,9.562771493E0
3.297730156E0,3.069976330E0,7.580602169E0,4.660665035E0,9.413399093E0
3.300135312E0,3.000547647E0,7.594967365E0,4.679817677E0,9.412093760E0
3.302540260E0,2.988577127E0,7.604543209E0,4.641512394E0,9.397037191E0
3.304945990E0,2.964636087E0,7.628484249E0,4.366190910E0,9.276123228E0
3.307351667E0,2.916754246E0,7.640454769E0,4.581659794E0,9.374199213E0
3.309757604E0,2.928724766E0,7.628484249E0,4.289579868E0,9.228851290E0
3.312162708E0,2.938300848E0,7.611725807E0,4.368585110E0,9.255080632E0
3.314567240E0,2.940695286E0,7.621302128E0,4.390131950E0,9.273898502E0
3.316972708E0,2.933512926E0,7.609331608E0,4.198604107E0,9.172551556E0
3.319377969E0,2.935906887E0,7.580602169E0,4.426043510E0,9.256075824E0
3.321782865E0,2.921542406E0,7.614119530E0,4.121993065E0,9.137891063E0
3.324188073E0,2.902389526E0,7.575814247E0,4.248879910E0,9.158046023E0
3.326593177E0,2.899995327E0,7.580602169E0,4.217756748E0,9.146855970E0
3.328998333E0,2.880842686E0,7.573420048E0,4.090869427E0,9.076957556E0
3.331403281E0,2.854507446E0,7.535114765E0,4.347037792E0,9.155484960E0
3.333808021E0,2.864084005E0,7.508779049E0,4.093263626E0,9.018844001E0
3.336213437E0,2.849719524E0,7.477656364E0,4.339855671E0,9.103328694E0
3.338618437E0,2.868872166E0,7.475262165E0,4.327885151E0,9.101679066E0
3.341023073E0,2.859295607E0,7.458503246E0,4.323096752E0,9.082621184E0
3.343428125E0,2.854507446E0,7.444138527E0,4.363796711E0,9.088791609E0
3.345833385E0,2.902389526E0,7.436956882E0,4.363796711E0,9.098072014E0
3.348238958E0,2.902389526E0,7.458503246E0,4.426043510E0,9.145654531E0
3.350643958E0,2.945483208E0,7.465685844E0,4.457166195E0,9.180341330E0
3.353048698E0,3.014912128E0,7.470473766E0,4.521807194E0,9.238204032E0
3.355454427E0,3.065188169E0,7.492020607E0,4.562506676E0,9.292051359E0
3.357859635E0,3.115464449E0,7.501596928E0,4.586447716E0,9.328214076E0
3.360264271E0,3.148981571E0,7.506385326E0,4.648694515E0,9.374020818E0
3.362669427E0,3.170528650E0,7.499203205E0,4.737276554E0,9.419771217E0
3.365074687E0,3.211228132E0,7.506385326E0,4.792340279E0,9.467012841E0
3.367480573E0,3.232775211E0,7.513567448E0,4.842616558E0,9.505549247E0
3.369886094E0,3.287839413E0,7.515961647E0,4.912045479E0,9.561786353E0
3.372291146E0,3.326144934E0,7.506385326E0,5.070055962E0,9.649586947E0
3.374697031E0,3.350085974E0,7.501596928E0,5.134696484E0,9.688247544E0
3.377102500E0,3.383603334E0,7.532720089E0,5.192154884E0,9.754440825E0
3.379507448E0,3.407544374E0,7.511173725E0,5.201731205E0,9.751261299E0
3.381913021E0,3.436273336E0,7.527932167E0,5.208913326E0,9.778062957E0
3.384318646E0,3.429091215E0,7.503991127E0,5.237642765E0,9.772484389E0
3.386724271E0,3.409938335E0,7.484838486E0,5.326224327E0,9.798936279E0
3.389129427E0,3.397967815E0,7.465685844E0,5.362135887E0,9.799752633E0
3.391534479E0,3.366844654E0,7.484838486E0,5.314253807E0,9.777512138E0
3.393940365E0,3.338115454E0,7.448926926E0,5.275948524E0,9.719318904E0
3.396346146E0,3.306992054E0,7.468079567E0,5.256795406E0,9.712996798E0
3.398751719E0,3.280657053E0,7.494414806E0,5.268765926E0,9.730820026E0
3.401157552E0,3.239957333E0,7.468079567E0,5.295101166E0,9.711211680E0
3.403563125E0,3.239957333E0,7.492020607E0,5.333406925E0,9.750534638E0
3.405968490E0,3.227986813E0,7.501596928E0,5.338194847E0,9.756545472E0
3.408373594E0,3.242351532E0,7.542296886E0,5.371712208E0,9.810931547E0
3.410778333E0,3.244745731E0,7.571026325E0,5.433959007E0,9.867964581E0
3.413183594E0,3.256716251E0,7.621302128E0,5.453111649E0,9.921031878E0
3.415588594E0,3.263898373E0,7.664395809E0,5.493811607E0,9.978875773E0
3.417993542E0,3.275868893E0,7.697913170E0,5.484234810E0,1.000330024E1
3.420399010E0,3.290233374E0,7.757765770E0,5.457900047E0,1.003978278E1
3.422804062E0,3.311780453E0,7.791283131E0,5.443535328E0,1.006499178E1
3.425209531E0,3.306992054E0,7.848741531E0,5.433959007E0,1.010281399E1
3.427614635E0,3.295021772E0,7.867894173E0,5.429171085E0,1.011122277E1
3.430019167E0,3.318962574E0,7.877470493E0,5.426776409E0,1.012521388E1
3.432424740E0,3.285445452E0,7.875076771E0,5.383682728E0,1.008935209E1
3.434830000E0,3.306992054E0,7.872682095E0,5.386076927E0,1.009579836E1
3.437234896E0,3.318962574E0,7.851135731E0,5.338194847E0,1.005744347E1
3.439640052E0,3.278262854E0,7.808041573E0,5.314253807E0,9.997690436E0
3.442045052E0,3.266292334E0,7.793677330E0,5.319042206E0,9.985103000E0
3.444450312E0,3.223198652E0,7.776918888E0,5.290312767E0,9.942680027E0
3.446855208E0,3.213622332E0,7.774524212E0,5.225672245E0,9.903446149E0
3.449259948E0,3.201651812E0,7.786494732E0,5.165819645E0,9.877538516E0
3.451665365E0,3.175316572E0,7.748188972E0,5.132302284E0,9.821282728E0
3.454070208E0,3.187287092E0,7.726642132E0,5.161031723E0,9.823240101E0
3.456474635E0,3.160952091E0,7.678760052E0,5.242430687E0,9.820287855E0
3.458879375E0,3.125040770E0,7.671577930E0,5.283130646E0,9.824991459E0
3.461284219E0,3.110676050E0,7.633272648E0,5.297495365E0,9.798296482E0
3.463689635E0,3.077158689E0,7.630878448E0,5.237642765E0,9.753569256E0
3.466094583E0,3.036458969E0,7.630878448E0,5.103573322E0,9.669376899E0
3.468499010E0,3.058005810E0,7.614119530E0,5.036538601E0,9.627717114E0
3.470904219E0,3.034065008E0,7.609331608E0,5.058085442E0,9.627653210E0
3.473309219E0,3.060400009E0,7.582996845E0,5.074843884E0,9.624028772E0
3.475713854E0,3.098705769E0,7.582996845E0,5.096390724E0,9.647643081E0
3.478118854E0,3.144193411E0,7.563843727E0,5.165819645E0,9.684181779E0
3.480523802E0,3.192075491E0,7.563843727E0,5.141879082E0,9.687104746E0
3.482929219E0,3.268686771E0,7.575814247E0,5.101179600E0,9.700479783E0
3.485334531E0,3.330933094E0,7.611725807E0,5.072449684E0,9.734640766E0
3.487739583E0,3.390785694E0,7.635666847E0,5.070055962E0,9.772732641E0
3.490145260E0,3.462608576E0,7.650031090E0,5.091602802E0,9.820236908E0
3.492550417E0,3.529643536E0,7.678760052E0,5.110755444E0,9.876313109E0
3.494955417E0,3.582313776E0,7.664395809E0,5.108361244E0,9.882878615E0
3.497360781E0,3.558372736E0,7.693125248E0,5.127514362E0,9.906442154E0
3.499766042E0,3.577525377E0,7.697913170E0,5.168213844E0,9.938158247E0
3.502172135E0,3.553584337E0,7.717066288E0,5.146667004E0,9.933239904E0
3.504578021E0,3.560766697E0,7.721854210E0,5.225672245E0,9.980668431E0
3.506982969E0,3.527249098E0,7.719460011E0,5.285524845E0,9.998415972E0
3.509388594E0,3.476973057E0,7.738612652E0,5.307071686E0,1.000702140E1
3.511793854E0,3.448243856E0,7.731430531E0,5.352559566E0,1.001575248E1
3.514198750E0,3.433879375E0,7.709883690E0,5.398047447E0,1.001862018E1
3.516604271E0,3.395573854E0,7.719460011E0,5.429171085E0,1.002974991E1
3.519009635E0,3.374027014E0,7.724247932E0,5.450717449E0,1.003784763E1
3.521415469E0,3.338115454E0,7.736218452E0,5.489023209E0,1.005591699E1
3.523820781E0,3.309386492E0,7.736218452E0,5.515358448E0,1.006082967E1
3.526225521E0,3.273474932E0,7.760159492E0,5.484234810E0,1.005049974E1
3.528631094E0,3.249533892E0,7.781706810E0,5.465082169E0,1.004895788E1
3.531036406E0,3.220804691E0,7.774524212E0,5.448323250E0,1.002502049E1
3.533441458E0,3.180104971E0,7.764948368E0,5.400441170E0,9.978589861E0
3.535846719E0,3.151375771E0,7.755371571E0,5.395653248E0,9.959419231E0
3.538251719E0,3.127434969E0,7.776918888E0,5.364530087E0,9.951859119E0
3.540657135E0,3.105887890E0,7.757765770E0,5.311860085E0,9.901784025E0
3.543062135E0,3.074764729E0,7.736218452E0,5.271160603E0,9.853344010E0
3.545466667E0,3.062794209E0,7.724247932E0,5.220883846E0,9.813375700E0
3.547872135E0,3.058005810E0,7.717066288E0,5.208913326E0,9.799861717E0
3.550277135E0,3.036458969E0,7.724247932E0,5.163425922E0,9.774715159E0
3.552681771E0,3.046035528E0,7.726642132E0,5.125120163E0,9.759415339E0
3.555087135E0,3.067582369E0,7.726642132E0,5.105967522E0,9.756124464E0
3.557492604E0,3.089129210E0,7.714671612E0,5.074843884E0,9.737192501E0
3.559898646E0,3.110676050E0,7.729036808E0,5.038932323E0,9.736793848E0
3.562304219E0,3.148981571E0,7.760159492E0,5.010203362E0,9.759011118E0
3.564709271E0,3.170528650E0,7.772130013E0,5.005415440E0,9.773046637E0
3.567114948E0,3.192075491E0,7.786494732E0,4.995838642E0,9.786585201E0
3.569520208E0,3.187287092E0,7.803253651E0,4.995838642E0,9.798365694E0
3.571925312E0,3.206440210E0,7.822406292E0,5.050902843E0,9.847990585E0
3.574330729E0,3.192075491E0,7.817618370E0,5.105967522E0,9.867897813E0
3.576735885E0,3.184893131E0,7.839165211E0,5.117938042E0,9.888849542E0
3.579141562E0,3.160952091E0,7.827194691E0,5.103573322E0,9.864231116E0
3.581547292E0,3.144193411E0,7.831982613E0,5.079632282E0,9.850308014E0
3.583952344E0,3.110676050E0,7.848741531E0,5.091602802E0,9.859181924E0
3.586357865E0,3.081946850E0,7.851135731E0,5.117938042E0,9.865699086E0
3.588762969E0,3.069976330E0,7.812829971E0,5.156243324E0,9.851492884E0
3.591167760E0,3.041247129E0,7.788888931E0,5.173001766E0,9.832391477E0
3.593572969E0,3.034065008E0,7.786494732E0,5.146667004E0,9.814439970E0
3.595978177E0,2.988577127E0,7.774524212E0,5.137090683E0,9.785934838E0
3.598383750E0,2.976606607E0,7.743401051E0,5.103573322E0,9.739964445E0
3.600788906E0,2.947877407E0,7.731430531E0,5.098784924E0,9.719187566E0
3.603193646E0,2.909571886E0,7.697913170E0,5.086814404E0,9.674665705E0
3.605599375E0,2.866477966E0,7.671577930E0,5.079632282E0,9.637036266E0
3.608004740E0,2.854507446E0,7.662001610E0,5.022173882E0,9.595661099E0
3.610409844E0,2.830566645E0,7.647637367E0,4.983868599E0,9.557060795E0
3.612815156E0,2.794655085E0,7.623696327E0,4.950350761E0,9.509827306E0
3.615220260E0,2.799443245E0,7.585390568E0,4.940774441E0,9.475562496E0
3.617625937E0,2.756349325E0,7.568631649E0,4.947957039E0,9.453249468E0
3.620031250E0,2.746773243E0,7.559055805E0,4.998232841E0,9.469235421E0
3.622436250E0,2.734802723E0,7.547085285E0,5.007809162E0,9.461278711E0
3.624842083E0,2.746773243E0,7.547085285E0,4.983868599E0,9.452100600E0
3.627247552E0,2.727620363E0,7.544690609E0,4.991050243E0,9.448431180E0
3.629652500E0,2.713255644E0,7.556661129E0,4.971898079E0,9.443762710E0
3.632057760E0,2.701285124E0,7.556661129E0,4.964715481E0,9.436549610E0
3.634462969E0,2.691708803E0,7.530326366E0,4.962321281E0,9.411468746E0
3.636868594E0,2.694103003E0,7.530326366E0,4.988656521E0,9.426064930E0
3.639273750E0,2.689314604E0,7.518355846E0,5.026961803E0,9.435487939E0
3.641678542E0,2.694103003E0,7.518355846E0,5.034144402E0,9.440681939E0
3.644084531E0,2.689314604E0,7.511173725E0,5.034144402E0,9.433597067E0
3.646489844E0,2.686920643E0,7.508779049E0,5.041327000E0,9.434844104E0
3.648894687E0,2.686920643E0,7.468079567E0,5.050902843E0,9.407623212E0
3.651300104E0,2.677344084E0,7.453715324E0,5.065268040E0,9.401222463E0
3.653705365E0,2.634250402E0,7.468079567E0,5.053297520E0,9.394003589E0
3.656110937E0,2.624674082E0,7.453715324E0,5.077238560E0,9.392823727E0
3.658516094E0,2.622279882E0,7.446532726E0,5.079632282E0,9.387750825E0
3.660920729E0,2.595944881E0,7.436956882E0,5.050902843E0,9.357290048E0
3.663326250E0,2.579186201E0,7.420197487E0,5.005415440E0,9.314811642E0
3.665731510E0,2.586368322E0,7.420197487E0,4.998232841E0,9.312946010E0
3.668136198E0,2.552851200E0,7.396256447E0,5.010203362E0,9.291060026E0
3.670541302E0,2.543274641E0,7.362739086E0,5.060479164E0,9.289059270E0
3.672946510E0,2.528910160E0,7.362739086E0,5.043720722E0,9.276013808E0
3.675352083E0,2.512151480E0,7.365133762E0,5.007809162E0,9.253877728E0
3.677757344E0,2.507363081E0,7.379498005E0,4.909651279E0,9.211326512E0
3.680162083E0,2.521727800E0,7.396256447E0,4.880921841E0,9.213420567E0
3.682567448E0,2.514545441E0,7.413015842E0,4.830646038E0,9.198417462E0
3.684972552E0,2.545668840E0,7.401045322E0,4.816281319E0,9.189802362E0
3.687376771E0,2.564821720E0,7.422591686E0,4.801917076E0,9.204976122E0
3.689781406E0,2.569609642E0,7.415409565E0,4.768399239E0,9.183072690E0
3.692186406E0,2.574397802E0,7.432168007E0,4.744458199E0,9.185560893E0
3.694591979E0,2.574397802E0,7.436956882E0,4.703758717E0,9.168489395E0
3.696997344E0,2.610309362E0,7.470473766E0,4.667847157E0,9.187518182E0
3.699402135E0,2.629462242E0,7.506385326E0,4.670241356E0,9.223396699E0
3.701807552E0,2.634250402E0,7.508779049E0,4.682211876E0,9.232775641E0
3.704212448E0,2.670161963E0,7.542296886E0,4.658270836E0,9.258266275E0
3.706616927E0,2.679738522E0,7.580602169E0,4.672635555E0,9.299465083E0
3.709021979E0,2.686920643E0,7.630878448E0,4.684606075E0,9.348549755E0
3.711427240E0,2.686920643E0,7.666790009E0,4.710940838E0,9.391068904E0
3.713832917E0,2.689314604E0,7.693125248E0,4.754034996E0,9.434905292E0
3.716238125E0,2.698891163E0,7.705095768E0,4.794734478E0,9.467945554E0
3.718643021E0,2.674950123E0,7.719460011E0,4.847404957E0,9.499618720E0
3.721048906E0,2.694103003E0,7.736218452E0,4.876133919E0,9.533307345E0
3.723454167E0,2.684526443E0,7.767342091E0,4.892892361E0,9.564448810E0
3.725858385E0,2.677344084E0,7.745795250E0,4.952744961E0,9.575760964E0
3.728263229E0,2.679738522E0,7.762553692E0,4.995838642E0,9.612317208E0
3.730668333E0,2.658191442E0,7.741007328E0,5.005415440E0,9.593923072E0
3.733073854E0,2.643826962E0,7.750583172E0,5.024568081E0,9.607686761E0
3.735479167E0,2.629462242E0,7.738612652E0,5.043720722E0,9.604130163E0
3.737884115E0,2.655797482E0,7.719460011E0,5.062873363E0,9.606040277E0
3.740289896E0,2.624674082E0,7.688336849E0,5.091602802E0,9.587692978E0
3.742695312E0,2.622279882E0,7.657213688E0,5.125120163E0,9.579985904E0
3.745100104E0,2.603127241E0,7.635666847E0,5.108361244E0,9.548561894E0
3.747505000E0,2.600733280E0,7.623696327E0,5.101179600E0,9.534494879E0
3.749909792E0,2.583974361E0,7.590178490E0,5.048508644E0,9.474976123E0
3.752315156E0,2.586368322E0,7.606937885E0,5.017385960E0,9.472537514E0
3.754720365E0,2.591156721E0,7.590178490E0,5.003020763E0,9.452783686E0
3.757125104E0,2.612703562E0,7.566237450E0,4.995838642E0,9.435707328E0
3.759530365E0,2.627068281E0,7.559055805E0,5.019779682E0,9.446639639E0
3.761935260E0,2.629462242E0,7.563843727E0,5.024568081E0,9.453681188E0
3.764340208E0,2.667768002E0,7.542296886E0,5.012597561E0,9.440834854E0
3.766745677E0,2.708467484E0,7.568631649E0,4.959927559E0,9.445679570E0
3.769150833E0,2.713255644E0,7.573420048E0,4.933592319E0,9.437095983E0
3.771556042E0,2.727620363E0,7.597361088E0,4.900074959E0,9.443015564E0
3.773960781E0,2.730014324E0,7.623696327E0,4.902468681E0,9.466146157E0
3.776365156E0,2.744378805E0,7.635666847E0,4.888104439E0,9.472517523E0
3.778770312E0,2.730014324E0,7.654819489E0,4.880921841E0,9.480118018E0
3.781175052E0,2.713255644E0,7.678760052E0,4.876133919E0,9.492196485E0
3.783579531E0,2.701285124E0,7.673972130E0,4.900074959E0,9.497237713E0
3.785984323E0,2.655797482E0,7.664395809E0,4.909651279E0,9.481608464E0
3.788389010E0,2.612703562E0,7.652425289E0,4.916833401E0,9.463671771E0
3.790794375E0,2.572003841E0,7.659607887E0,4.924015999E0,9.462067972E0
3.793199427E0,2.550457001E0,7.623696327E0,4.916833401E0,9.423419087E0
3.795603854E0,2.497786999E0,7.621302128E0,4.904862881E0,9.401109822E0
3.798009323E0,2.454693079E0,7.554266930E0,4.900074959E0,9.332909598E0
3.800414427E0,2.413993359E0,7.525537968E0,4.892892361E0,9.295239711E0
3.802819062E0,2.368505478E0,7.492020607E0,4.866557598E0,9.242487427E0
3.805223958E0,2.351746798E0,7.468079567E0,4.825858116E0,9.197381800E0
3.807628906E0,2.320623398E0,7.432168007E0,4.804310799E0,9.148978986E0
3.810034323E0,2.308652878E0,7.410621166E0,4.780369759E0,9.115871829E0
3.812439427E0,2.287106276E0,7.369921684E0,4.801917076E0,9.088729744E0
3.814844115E0,2.279923916E0,7.350768566E0,4.777976036E0,9.058747517E0
3.817249792E0,2.284711838E0,7.317251682E0,4.761217594E0,9.023927822E0
3.819655052E0,2.267953396E0,7.278946400E0,4.698970318E0,8.955835826E0
3.822059635E0,2.296682358E0,7.247822762E0,4.624753475E0,8.899102727E0
3.824464687E0,2.296682358E0,7.190364361E0,4.557718754E0,8.817533087E0
3.826869896E0,2.291894436E0,7.147270679E0,4.507442951E0,8.755187047E0
3.829275000E0,2.279923916E0,7.132905483E0,4.493077755E0,8.732934295E0
3.831679844E0,2.270347357E0,7.085024357E0,4.457166195E0,8.672852919E0
3.834084531E0,2.234436035E0,7.025171757E0,4.418860912E0,8.594886525E0
3.836489844E0,2.193736076E0,6.965319157E0,4.359008312E0,8.504651809E0
3.838894583E0,2.153036594E0,6.912648678E0,4.294367790E0,8.417949456E0
3.841299062E0,2.148248434E0,6.859978676E0,4.239303589E0,8.345416328E0
3.843704167E0,2.102760315E0,6.790549755E0,4.222544670E0,8.268195112E0
3.846109375E0,2.066849232E0,6.718726635E0,4.155510426E0,8.165869227E0
3.848514948E0,2.006996632E0,6.613386631E0,4.177056789E0,8.075439408E0
3.850919792E0,1.944749951E0,6.524804592E0,4.234515190E0,8.017870430E0
3.853324115E0,1.875321269E0,6.436223030E0,4.236909389E0,7.930523181E0
3.855729687E0,1.822651029E0,6.345247269E0,4.229727268E0,7.840587506E0
3.858134687E0,1.743645787E0,6.251877785E0,4.217756748E0,7.740526368E0
3.860539115E0,1.681399345E0,6.170478344E0,4.203392506E0,7.653131079E0
3.862944323E0,1.621546745E0,6.086684704E0,4.268033028E0,7.608761427E0
3.865349740E0,1.609576344E0,6.007679462E0,4.313520908E0,7.568976890E0
3.867755417E0,1.595211625E0,5.916703701E0,4.445195675E0,7.570458863E0
3.870160729E0,1.588029385E0,5.847274780E0,4.543354511E0,7.573277355E0
3.872565937E0,1.578453064E0,5.785027981E0,4.658270836E0,7.593256877E0
3.874971823E0,1.573664784E0,5.732357979E0,4.780369759E0,7.628124532E0
3.877376927E0,1.585635304E0,5.686870098E0,4.876133919E0,7.657115176E0
3.879781823E0,1.592817664E0,5.646170616E0,4.931198597E0,7.663747800E0
3.882187448E0,1.566482544E0,5.617441177E0,4.969503880E0,7.661950258E0
3.884592708E0,1.561694264E0,5.576741695E0,5.031750202E0,7.671860727E0
3.886998281E0,1.516206384E0,5.536042213E0,5.048508644E0,7.644219039E0
3.889403490E0,1.470718503E0,5.495342255E0,5.046114922E0,7.604280059E0
3.891808490E0,1.401289701E0,5.478583813E0,4.971898079E0,7.529824960E0
3.894214479E0,1.346225381E0,5.430701733E0,4.830646038E0,7.391886446E0
3.896620208E0,1.293555260E0,5.416337013E0,4.713335514E0,7.295582466E0
3.899025781E0,1.216944218E0,5.375637531E0,4.588841915E0,7.171882753E0
3.901431615E0,1.157091618E0,5.342120171E0,4.495472431E0,7.077173257E0
3.903837240E0,1.104421377E0,5.337331772E0,4.356614590E0,6.977603292E0
3.906242917E0,1.054145455E0,5.382819653E0,4.136357307E0,6.869892417E0
3.908648229E0,1.001475334E0,5.433095455E0,3.913706303E0,6.770419196E0
3.911053385E0,9.727460146E-1,5.497736454E0,3.734148979E0,6.716785654E0
3.913459375E0,9.895048141E-1,5.600682735E0,3.609655857E0,6.736199395E0
3.915865104E0,9.799282551E-1,5.708416939E0,3.477980137E0,6.755932886E0
3.918270573E0,9.895048141E-1,5.818545818E0,3.358275414E0,6.790626552E0
3.920676458E0,1.006263375E0,5.964585781E0,3.291240692E0,6.886299065E0
3.923081823E0,1.034992695E0,6.129778862E0,3.217023373E0,6.999617001E0
3.925487187E0,1.092450976E0,6.285395145E0,3.248146534E0,7.158917319E0
3.927892240E0,1.142727017E0,6.448193550E0,3.284058094E0,7.325985440E0
3.930296771E0,1.257643819E0,6.599021435E0,3.398974895E0,7.528730452E0
3.932702031E0,1.401289701E0,6.718726635E0,3.559379578E0,7.731370086E0
3.935106979E0,1.580847144E0,6.840825558E0,3.743725300E0,7.956849321E0
3.937511458E0,1.784345508E0,6.996442318E0,3.772454262E0,8.146502633E0
3.939916719E0,1.975873590E0,7.147270679E0,3.571350098E0,8.230558677E0
3.942321875E0,2.176977634E0,7.329222202E0,3.307999134E0,8.330641511E0
3.944727448E0,2.430752277E0,7.468079567E0,3.140412331E0,8.458307080E0
3.947132865E0,2.658191442E0,7.556661129E0,3.087742329E0,8.585060387E0
3.949537656E0,2.931118727E0,7.616513729E0,3.178718090E0,8.758252512E0
3.951943073E0,3.189681530E0,7.657213688E0,3.307999134E0,8.930277039E0
3.954348021E0,3.431485415E0,7.690730572E0,3.422915936E0,9.090587571E0
3.956752344E0,3.685259819E0,7.705095768E0,3.545014858E0,9.247527836E0
3.959157240E0,3.900728464E0,7.738612652E0,3.724572659E0,9.432616276E0
3.961562604E0,4.092256546E0,7.748188972E0,3.966376305E0,9.618374966E0
3.963968385E0,4.259843826E0,7.750583172E0,4.239303589E0,9.807624781E0
3.966373437E0,4.429824829E0,7.762553692E0,4.493077755E0,1.000341619E1
3.968778021E0,4.556712151E0,7.796071053E0,4.742064476E0,1.019948651E1
3.971183750E0,4.697963715E0,7.829588890E0,5.005415440E0,1.041285307E1
3.973589115E0,4.781757355E0,7.889441013E0,5.333406925E0,1.065615842E1
3.975993542E0,4.889491558E0,7.932534695E0,5.663792610E0,1.090462201E1
3.978398333E0,5.011590481E0,7.963657856E0,6.030089378E0,1.117577127E1
3.980803177E0,5.092989922E0,8.042663574E0,6.348504543E0,1.144231155E1
3.983208385E0,5.236636162E0,8.095333099E0,6.654949188E0,1.171516645E1
3.985613542E0,5.377887726E0,8.140821457E0,6.968576431E0,1.198981684E1
3.988018385E0,5.495198727E0,8.188703537E0,7.172074318E0,1.219388062E1
3.990423646E0,5.646027088E0,8.205461502E0,7.296567917E0,1.234694795E1
3.992828437E0,5.777702332E0,8.238979340E0,7.404302597E0,1.249345115E1
3.995233073E0,5.947683334E0,8.238979340E0,7.478519440E0,1.261681301E1
3.997638177E0,6.115270138E0,8.260525703E0,7.574283600E0,1.276724660E1
4.000043229E0,6.294827461E0,8.250949860E0,7.653288364E0,1.289479931E1
4.002448437E0,6.460020542E0,8.222220421E0,7.701170444E0,1.298633129E1
4.004853177E0,6.613242626E0,8.212644577E0,7.749052525E0,1.308550053E1
4.007257760E0,6.744918346E0,8.205461502E0,7.813693047E0,1.318625500E1
4.009662969E0,6.869410992E0,8.171944618E0,7.844816208E0,1.324804240E1
4.012067448E0,7.022633553E0,8.138426781E0,7.856786728E0,1.331467124E1
4.014471667E0,7.276408195E0,8.040268898E0,7.464154243E0,1.316455995E1
4.016876510E0,7.386536598E0,8.006752014E0,7.614983082E0,1.329123651E1
4.019281406E0,7.403295040E0,8.023509979E0,7.861574650E0,1.345324666E1
4.021686667E0,7.417660236E0,8.037874222E0,8.079438210E0,1.359803027E1
4.024091510E0,7.424842358E0,8.042663574E0,8.369123459E0,1.377878619E1
4.026496146E0,7.396112919E0,8.023509979E0,8.677963257E0,1.394224677E1
4.028901510E0,7.319502354E0,7.997175694E0,8.950889587E0,1.405874668E1
4.031306615E0,7.307531834E0,7.985205173E0,9.096929550E0,1.413922383E1
4.033711250E0,7.384142876E0,7.982811451E0,9.219028473E0,1.425627338E1
4.036116042E0,7.467936039E0,7.961264133E0,9.247757912E0,1.430639094E1
4.038520781E0,7.570882320E0,7.942111492E0,9.264516830E0,1.436059421E1
4.040925937E0,7.594823360E0,7.913382053E0,9.266910553E0,1.435892018E1
4.043330937E0,7.621158123E0,7.889441013E0,9.290851593E0,1.437516101E1
4.045735521E0,7.618763924E0,7.870288372E0,9.350705147E0,1.440217656E1
4.048140885E0,7.594823360E0,7.848741531E0,9.365068436E0,1.438709812E1
4.050545990E0,7.609187603E0,7.822406292E0,9.365068436E0,1.438034363E1
4.052950469E0,7.594823360E0,7.839165211E0,9.391404152E0,1.439903903E1
4.055355365E0,7.546941280E0,7.843953133E0,9.379433632E0,1.436863594E1
4.057760312E0,7.494271278E0,7.879864693E0,9.343522072E0,1.433728615E1
4.060165729E0,7.417660236E0,7.896623135E0,9.326764107E0,1.429569407E1
4.062570937E0,7.329078197E0,7.906199455E0,9.305216789E0,1.424115292E1
4.064975729E0,7.204585075E0,7.930140495E0,9.262123108E0,1.416263036E1
4.067380937E0,7.075303555E0,7.906199455E0,9.202269554E0,1.404456034E1
4.069785677E0,6.953204632E0,7.918169975E0,9.147206306E0,1.395406226E1
4.072190156E0,6.776041508E0,7.910988331E0,9.034684181E0,1.378854572E1
4.074594948E0,6.586907864E0,7.889441013E0,8.941313744E0,1.362269159E1
4.076999583E0,6.436079502E0,7.879864693E0,8.831185341E0,1.347238737E1
4.079404740E0,6.280463219E0,7.865499973E0,8.728239059E0,1.332262981E1
4.081809635E0,6.136816978E0,7.846347332E0,8.649233818E0,1.319223009E1
4.084214479E0,6.019505978E0,7.834376812E0,8.582199097E0,1.308686569E1
4.086620417E0,5.923742294E0,7.808041573E0,8.536710739E0,1.299737151E1
4.089025729E0,5.804037571E0,7.805647850E0,8.493617058E0,1.291342407E1
