"Time (s)","Acceleration x (m/s^2)","Acceleration y (m/s^2)","Acceleration z (m/s^2)","Absolute acceleration (m/s^2)"
1.595668500E-2,6.562966824E0,-2.237596750E0,6.891964912E0,9.776428443E0
1.835965400E-2,6.562966824E0,-2.237596750E0,6.891964912E0,9.776428443E0
2.077330000E-2,6.618031025E0,-2.228020430E0,6.887176991E0,9.807936408E0
2.318840400E-2,6.673095226E0,-2.225626230E0,6.868023872E0,9.831244272E0
2.559460200E-2,6.716189384E0,-2.208867550E0,6.848871231E0,9.843441108E0
2.800022700E-2,6.740129948E0,-2.220838070E0,6.808171272E0,9.834259988E0
3.040522700E-2,6.730553627E0,-2.218444109E0,6.820141792E0,9.835455275E0
3.281085200E-2,6.685065746E0,-2.206473589E0,6.836900711E0,9.813350145E0
3.521621600E-2,6.689854145E0,-2.206473589E0,6.863235950E0,9.834972389E0
3.762173700E-2,6.653942585E0,-2.199291229E0,6.860841751E0,9.807292357E0
4.002684100E-2,6.594089985E0,-2.211261749E0,6.875206470E0,9.779578992E0
4.243168500E-2,6.567755222E0,-2.218444109E0,6.879994392E0,9.766843183E0
4.483757000E-2,6.495932102E0,-2.230414629E0,6.872812271E0,9.716348687E0
4.724303900E-2,6.457626343E0,-2.244779110E0,6.851265430E0,9.678833051E0
4.964824800E-2,6.426503181E0,-2.242385149E0,6.777048588E0,9.605031070E0
5.205387300E-2,6.390591621E0,-2.285478830E0,6.721983910E0,9.552389357E0
5.445934100E-2,6.345103741E0,-2.290266991E0,6.690860748E0,9.501225285E0
5.686527900E-2,6.330739021E0,-2.299843311E0,6.681284428E0,9.487207040E0
5.927085200E-2,6.294827461E0,-2.314208031E0,6.707619190E0,9.485387013E0
6.167611200E-2,6.278069019E0,-2.314208031E0,6.731560230E0,9.491238726E0
6.408220600E-2,6.285251141E0,-2.323784351E0,6.731560230E0,9.498329261E0
6.648777900E-2,6.278069019E0,-2.318996191E0,6.760289192E0,9.512802106E0
6.889298700E-2,6.313980579E0,-2.309419870E0,6.791412830E0,9.556309912E0
7.129866400E-2,6.304404259E0,-2.295055389E0,6.817748070E0,9.565274750E0
7.370413300E-2,6.325951099E0,-2.285478830E0,6.798595428E0,9.563575199E0
7.610991400E-2,6.335526943E0,-2.259143829E0,6.865629673E0,9.611425664E0
7.851543500E-2,6.340315819E0,-2.235202789E0,6.887176991E0,9.624393128E0
8.092027900E-2,6.361862659E0,-2.225626230E0,6.915905952E0,9.656938633E0
8.332600800E-2,6.397774220E0,-2.192109108E0,6.935059071E0,9.686686824E0
8.573184100E-2,6.426503181E0,-2.199291229E0,6.920694351E0,9.697052921E0
8.813736200E-2,6.469596863E0,-2.180138588E0,6.937452793E0,9.733290250E0
9.054309100E-2,6.495932102E0,-2.184926510E0,6.973364353E0,9.777466345E0
9.294856000E-2,6.536631584E0,-2.175350428E0,6.951817513E0,9.787107268E0
9.535449800E-2,6.519873142E0,-2.187320709E0,6.915905952E0,9.753095551E0
9.776043500E-2,6.548602104E0,-2.192109108E0,6.889570713E0,9.754779161E0
1.001658520E-1,6.579725742E0,-2.187320709E0,6.877600193E0,9.766194097E0
1.025718410E-1,6.555784702E0,-2.187320709E0,6.877600193E0,9.750080480E0
1.049776750E-1,6.567755222E0,-2.204079628E0,6.863235950E0,9.751788727E0
1.073830910E-1,6.570148945E0,-2.216049910E0,6.860841751E0,9.754428937E0
1.097886120E-1,6.534237862E0,-2.230414629E0,6.839294910E0,9.718383030E0
1.121940810E-1,6.531843662E0,-2.247173309E0,6.832112312E0,9.715581720E0
1.145999140E-1,6.527055264E0,-2.259143829E0,6.834506989E0,9.716823917E0
1.170053830E-1,6.510296822E0,-2.278296471E0,6.834506989E0,9.710050736E0
1.194105390E-1,6.495932102E0,-2.283084869E0,6.868023872E0,9.725192148E0
1.218163200E-1,6.467202663E0,-2.295055389E0,6.906329155E0,9.735983357E0
1.242218930E-1,6.428897381E0,-2.292661190E0,6.901541233E0,9.706610544E0
1.266269980E-1,6.395379543E0,-2.304631472E0,6.920694351E0,9.700938925E0
1.290324140E-1,6.349892139E0,-2.326178551E0,6.975758553E0,9.715628864E0
1.314379870E-1,6.311586380E0,-2.330966473E0,6.982940674E0,9.696957656E0
1.338439770E-1,6.249339581E0,-2.335754871E0,6.997305393E0,9.668106266E0
1.362496540E-1,6.208640099E0,-2.333360910E0,7.006881714E0,9.648221409E0
1.386551750E-1,6.177516460E0,-2.328572512E0,7.035610676E0,9.647993426E0
1.410612680E-1,6.153575420E0,-2.338149071E0,7.064340591E0,9.656000182E0
1.434668930E-1,6.136816978E0,-2.366878033E0,7.052370071E0,9.643575990E0
1.458723100E-1,6.110482216E0,-2.352513552E0,7.088280678E0,9.649665066E0
1.482780910E-1,6.117664337E0,-2.328572512E0,7.081099033E0,9.643133848E0
1.506836120E-1,6.134423256E0,-2.340543032E0,7.224744797E0,9.762490858E0
1.530893410E-1,6.172728539E0,-2.299843311E0,7.222351074E0,9.775183472E0
1.554948620E-1,6.206246376E0,-2.273508310E0,6.970970154E0,9.606287472E0
1.578998100E-1,6.251733780E0,-2.232808590E0,7.674835205E0,1.014754674E1
1.603052270E-1,6.345103741E0,-2.196897030E0,7.023640156E0,9.716903780E0
1.627104870E-1,6.357074261E0,-2.180138588E0,7.550342560E0,1.010806956E1
1.651157480E-1,6.421715260E0,-2.146620989E0,7.459366322E0,1.007415279E1
1.675213730E-1,6.443261623E0,-2.149015188E0,7.219956398E0,9.912701802E0
1.699269450E-1,6.460020542E0,-2.146620989E0,7.770599365E0,1.033063704E1
1.723330390E-1,6.505507946E0,-2.117892027E0,7.124192238E0,9.877308101E0
1.747385080E-1,6.476778984E0,-2.149015188E0,7.638923645E0,1.024305066E1
1.771435600E-1,6.503114223E0,-2.151409388E0,7.375572681E0,1.006569070E1
1.795493410E-1,6.476778984E0,-2.175350428E0,7.207985878E0,9.931559591E0
1.819546020E-1,6.445655823E0,-2.189714909E0,7.638923645E0,1.023203229E1
1.843596020E-1,6.438473701E0,-2.184926510E0,7.014063835E0,9.768568930E0
1.867650700E-1,6.404956341E0,-2.232808590E0,7.550342560E0,1.014970801E1
1.891702790E-1,6.373833179E0,-2.247173309E0,7.270232201E0,9.926319234E0
1.915760600E-1,6.325951099E0,-2.242385149E0,7.236715317E0,9.869954257E0
1.939817890E-1,6.292433739E0,-2.247173309E0,7.650894165E0,1.015778971E1
1.963867370E-1,6.292433739E0,-2.244779110E0,7.081099033E0,9.735282180E0
1.987924140E-1,6.251733780E0,-2.247173309E0,7.682017326E0,1.015614855E1
2.011979870E-1,6.280463219E0,-2.242385149E0,7.267838478E0,9.863771365E0
2.036030910E-1,6.280463219E0,-2.235202789E0,7.298962116E0,9.885099783E0
2.060084560E-1,6.318768501E0,-2.220838070E0,7.571888924E0,1.010902859E1
2.084140290E-1,6.388197422E0,-2.182532549E0,6.968576431E0,9.702245725E0
2.108198100E-1,6.402562141E0,-2.199291229E0,7.535977364E0,1.013018453E1
2.132252270E-1,6.474385262E0,-2.151409388E0,6.999699593E0,9.774559901E0
2.156303830E-1,6.483961582E0,-2.163379908E0,7.112221718E0,9.864363547E0
2.180361640E-1,6.510296822E0,-2.156197548E0,7.222351074E0,9.959694152E0
2.204413200E-1,6.550996304E0,-2.151409388E0,6.659737587E0,9.586251595E0
2.228462160E-1,6.546208382E0,-2.168168068E0,7.210380554E0,9.977143112E0
2.252514770E-1,6.570148945E0,-2.144227028E0,6.628614426E0,9.576173344E0
2.276564770E-1,6.507902622E0,-2.180138588E0,6.863235950E0,9.706173732E0
2.300619980E-1,6.534237862E0,-2.149015188E0,6.947029591E0,9.776285125E0
2.324676230E-1,6.512690544E0,-2.158591509E0,6.525667667E0,9.468843326E0
2.348729870E-1,6.464808464E0,-2.149015188E0,7.150527954E0,9.876338632E0
2.372789250E-1,6.498326302E0,-2.129862547E0,6.554397106E0,9.472311261E0
2.396843930E-1,6.452837944E0,-2.156197548E0,6.891964912E0,9.684393928E0
2.420896540E-1,6.479173183E0,-2.120285988E0,6.853659153E0,9.666847552E0
2.444953830E-1,6.479173183E0,-2.132256508E0,6.463421345E0,9.396915368E0
2.469012680E-1,6.474385262E0,-2.110709667E0,7.028429031E0,9.786295237E0
2.493075180E-1,6.524661064E0,-2.072404146E0,6.370051384E0,9.351129107E0
2.517132480E-1,6.515084743E0,-2.093950987E0,6.812959671E0,9.656468269E0
2.541185600E-1,6.529448986E0,-2.072404146E0,6.705225468E0,9.585854765E0
2.565246540E-1,6.558178425E0,-2.065221786E0,6.484968185E0,9.451436803E0
2.589306430E-1,6.512690544E0,-2.081980467E0,7.049975395E0,9.820994545E0
2.613363730E-1,6.527055264E0,-2.046068907E0,6.425116062E0,9.384613194E0
2.637423620E-1,6.467202663E0,-2.086768627E0,7.040399551E0,9.785016067E0
2.661482480E-1,6.462414742E0,-2.046068907E0,6.829718590E0,9.622591038E0
2.685546020E-1,6.407350063E0,-2.074798107E0,6.731560230E0,9.522227951E0
2.709605390E-1,6.373833179E0,-2.065221786E0,7.263050556E0,9.881436829E0
2.733662680E-1,6.364256859E0,-2.043674707E0,6.745924950E0,9.496729706E0
2.757727790E-1,6.335526943E0,-2.081980467E0,7.411484241E0,9.970137560E0
2.781785600E-1,6.297221661E0,-2.036492586E0,7.097857475E0,9.704735104E0
2.805839770E-1,6.175122738E0,-2.053251028E0,7.081099033E0,9.617169237E0
2.829899140E-1,6.110482216E0,-2.067615747E0,7.435425282E0,9.843707478E0
2.853958520E-1,6.069782257E0,-2.038886547E0,6.999699593E0,9.486575219E0
2.878024140E-1,6.031476498E0,-2.079586267E0,7.921427727E0,1.017115554E1
2.902084040E-1,6.105693817E0,-2.034098387E0,7.614983082E0,9.970206646E0
2.926139770E-1,6.227793217E0,-2.029310226E0,7.756234646E0,1.015197933E1
2.950203310E-1,6.414532661E0,-1.993398666E0,7.875939369E0,1.035134235E1
2.974262160E-1,6.694642067E0,-1.955093026E0,7.038004875E0,9.908286117E0
2.998318930E-1,6.969963551E0,-1.935940385E0,7.344449997E0,1.030869550E1
3.022378830E-1,7.211767673E0,-1.895240545E0,6.449057102E0,9.858593572E0
3.046439250E-1,7.360201836E0,-1.897634745E0,6.326957703E0,9.889589600E0
3.070503830E-1,7.434418678E0,-1.873693705E0,6.257528782E0,9.896361737E0
3.094562680E-1,7.424842358E0,-1.883270025E0,5.706886292E0,9.552148511E0
3.118616850E-1,7.324290276E0,-1.933546185E0,6.391598225E0,9.911425566E0
3.142678830E-1,7.214161873E0,-1.935940385E0,5.900808334E0,9.519009176E0
3.166739250E-1,6.991510868E0,-1.993398666E0,6.465815544E0,9.729421006E0
3.190793930E-1,6.823923588E0,-2.012551546E0,6.733954430E0,9.796042013E0
3.214848100E-1,6.591696262E0,-2.036492586E0,6.585520267E0,9.537653740E0
3.238902270E-1,6.414532661E0,-2.058039427E0,7.416272640E0,1.001912448E1
3.262962160E-1,6.268492699E0,-2.079586267E0,6.944635391E0,9.583665294E0
3.287015290E-1,6.143999577E0,-2.089162588E0,7.504854202E0,9.921500275E0
3.311065810E-1,6.098511696E0,-2.084374666E0,7.466548920E0,9.863357209E0
3.335128310E-1,6.067388058E0,-2.084374666E0,7.133769035E0,9.594189713E0
3.359187160E-1,6.072176456E0,-2.093950987E0,7.643712044E0,9.984101936E0
3.383239250E-1,6.155970097E0,-2.060433626E0,6.903935432E0,9.476585831E0
3.407296020E-1,6.230186939E0,-2.041280746E0,7.308538437E0,9.818186720E0
3.431354350E-1,6.330739021E0,-2.038886547E0,7.054763794E0,9.695617933E0
3.455416850E-1,6.426503181E0,-1.988610506E0,6.824930191E0,9.583015548E0
3.479471540E-1,6.512690544E0,-1.971851707E0,7.315720558E0,9.991151313E0
3.503520500E-1,6.622818947E0,-1.938334346E0,6.705225468E0,9.621793981E0
3.527578310E-1,6.673095226E0,-1.914393306E0,7.284597397E0,1.006282569E1
3.551634560E-1,6.761677265E0,-1.888058305E0,7.057157993E0,9.954321802E0
3.575689250E-1,6.809558868E0,-1.878481984E0,7.035610676E0,9.969884860E0
3.599751230E-1,6.874199867E0,-1.859329104E0,7.495277882E0,1.033880646E1
3.623815810E-1,6.919687748E0,-1.828205824E0,6.913511753E0,9.950932611E0
3.647883000E-1,6.934051991E0,-1.852146864E0,7.562313080E0,1.042593421E1
3.671946020E-1,6.981934071E0,-1.825811744E0,7.152921677E0,1.016096848E1
3.696001750E-1,6.962780952E0,-1.832994103E0,7.169680595E0,1.016093036E1
3.720064770E-1,6.984328270E0,-1.840176344E0,7.416272640E0,1.035220702E1
3.744127270E-1,6.981934071E0,-1.823417544E0,6.808171272E0,9.920859387E0
3.768185600E-1,6.922081470E0,-1.823417544E0,7.416272640E0,1.030733541E1
3.792246020E-1,6.934051991E0,-1.797082543E0,6.894359112E0,9.941970139E0
3.816307480E-1,6.886170387E0,-1.794688463E0,7.057157993E0,1.002216185E1
3.840371020E-1,6.845469952E0,-1.799476743E0,7.270232201E0,1.014666702E1
3.864431430E-1,6.833499432E0,-1.792294383E0,6.760289192E0,9.778064410E0
3.888485600E-1,6.785618305E0,-1.830599904E0,7.430637360E0,1.022790709E1
3.912545500E-1,6.771253109E0,-1.821023583E0,6.918299675E0,9.850323139E0
3.936600700E-1,6.718583107E0,-1.828205824E0,7.236715317E0,1.004249690E1
3.960651230E-1,6.723371029E0,-1.828205824E0,7.356420517E0,1.013227405E1
3.984706950E-1,6.704218864E0,-1.830599904E0,6.947029591E0,9.826437133E0
4.008764770E-1,6.677883625E0,-1.832994103E0,7.567101002E0,1.025743704E1
4.032827270E-1,6.668307304E0,-1.816235304E0,6.961393833E0,9.809487096E0
4.056884040E-1,6.622818947E0,-1.852146864E0,7.363602161E0,1.007545610E1
4.080935600E-1,6.630001545E0,-1.835388064E0,7.301355839E0,1.003171804E1
4.104995500E-1,6.637183666E0,-1.823417544E0,6.956605911E0,9.786287568E0
4.129050180E-1,6.632395744E0,-1.840176344E0,7.547947884E0,1.021501050E1
4.153101230E-1,6.644366264E0,-1.785112023E0,6.875206470E0,9.726391520E0
4.177157480E-1,6.641972065E0,-1.816235304E0,7.267838478E0,1.001179203E1
4.201214250E-1,6.663518429E0,-1.797082543E0,7.093069553E0,9.896646867E0
4.225276750E-1,6.675488949E0,-1.785112023E0,6.841689110E0,9.724067437E0
4.249335600E-1,6.627607346E0,-1.801870704E0,7.303750038E0,1.002580080E1
4.273391330E-1,6.692248344E0,-1.758776903E0,6.602278709E0,9.563972410E0
4.297456950E-1,6.637183666E0,-1.797082543E0,7.114616394E0,9.894416563E0
4.321518930E-1,6.663518429E0,-1.768353343E0,6.875206470E0,9.736427240E0
4.345574140E-1,6.620425224E0,-1.773141623E0,6.767471790E0,9.631860454E0
4.369632480E-1,6.613242626E0,-1.765959263E0,7.205591679E0,9.938518078E0
4.393692370E-1,6.620425224E0,-1.751594663E0,6.580732346E0,9.497586652E0
4.417756430E-1,6.577331066E0,-1.761171103E0,7.200803757E0,9.910327056E0
4.441817370E-1,6.586907864E0,-1.744412303E0,6.810565948E0,9.634009447E0
4.465874140E-1,6.596484184E0,-1.744412303E0,6.800989151E0,9.633796308E0
4.489934560E-1,6.589301586E0,-1.718077302E0,7.152921677E0,9.875979623E0
4.513989770E-1,6.579725742E0,-1.708500981E0,6.537638187E0,9.431462215E0
4.538043410E-1,6.524661064E0,-1.713289022E0,7.164892197E0,9.840845567E0
4.562101230E-1,6.522267342E0,-1.679771662E0,6.705225468E0,9.503770446E0
4.586158000E-1,6.481567383E0,-1.706106782E0,6.827324390E0,9.567333715E0
4.610217890E-1,6.462414742E0,-1.696530461E0,7.069128513E0,9.726952135E0
4.634272060E-1,6.462414742E0,-1.667801261E0,6.518485546E0,9.329256088E0
4.658323100E-1,6.450444221E0,-1.660618901E0,7.167286396E0,9.784471374E0
4.682383000E-1,6.457626343E0,-1.629495621E0,6.664525986E0,9.421894744E0
4.706438200E-1,6.438473701E0,-1.653436542E0,6.899147511E0,9.580502720E0
4.730486640E-1,6.450444221E0,-1.612736940E0,7.066734314E0,9.702983302E0
4.754539770E-1,6.462414742E0,-1.612736940E0,6.619038105E0,9.390175194E0
4.778598100E-1,6.419320583E0,-1.593584180E0,7.272626877E0,9.830477556E0
4.802663730E-1,6.424108982E0,-1.555278540E0,6.736348152E0,9.437502529E0
4.826725180E-1,6.414532661E0,-1.572037220E0,7.105040073E0,9.700470336E0
4.850781430E-1,6.443261623E0,-1.536125779E0,7.160103798E0,9.754096019E0
4.874842890E-1,6.452837944E0,-1.524155378E0,6.800989151E0,9.498190385E0
4.898898100E-1,6.452837944E0,-1.524155378E0,7.397119999E0,9.933758172E0
4.922953310E-1,6.491143703E0,-1.502608418E0,6.743530750E0,9.479872658E0
4.947011120E-1,6.479173183E0,-1.509790659E0,7.114616394E0,9.740478397E0
4.971067370E-1,6.519873142E0,-1.488243818E0,7.004487991E0,9.684341355E0
4.995126230E-1,6.546208382E0,-1.493031979E0,6.652555466E0,9.451903665E0
5.019180390E-1,6.541419506E0,-1.519367099E0,7.136162758E0,9.799156313E0
5.043234040E-1,6.577331066E0,-1.497820258E0,6.408356667E0,9.304395985E0
5.067294450E-1,6.534237862E0,-1.543308139E0,6.875206470E0,9.609710113E0
5.091350700E-1,6.541419506E0,-1.528943419E0,6.616643906E0,9.429094003E0
5.115401750E-1,6.515084743E0,-1.545702219E0,6.391598225E0,9.256784130E0
5.139458520E-1,6.488749504E0,-1.579219580E0,6.872812271E0,9.582972040E0
5.163516850E-1,6.471991062E0,-1.569643259E0,6.204858780E0,9.102237129E0
5.187577790E-1,6.400167942E0,-1.600766420E0,6.733954430E0,9.427128146E0
5.211634560E-1,6.378621101E0,-1.598372340E0,6.391598225E0,9.170285119E0
5.235689250E-1,6.309192181E0,-1.641466022E0,6.300622940E0,9.066320428E0
5.259752270E-1,6.261310101E0,-1.691742182E0,6.686072350E0,9.315017941E0
5.283809560E-1,6.218216419E0,-1.663012981E0,6.032483578E0,8.821716711E0
5.307863730E-1,6.153575420E0,-1.698924422E0,6.609461308E0,9.189005029E0
5.331921020E-1,6.153575420E0,-1.708500981E0,6.185705662E0,8.890917871E0
5.355978830E-1,6.096117496E0,-1.734835982E0,6.247952461E0,8.899955864E0
5.380042890E-1,6.081752777E0,-1.739624262E0,6.573549747E0,9.122804706E0
5.404100180E-1,6.084146976E0,-1.720471382E0,6.006148338E0,8.720704333E0
5.428151230E-1,6.041053295E0,-1.734835982E0,6.688467026E0,9.178211806E0
5.452209040E-1,6.086541176E0,-1.722865462E0,6.243164539E0,8.887707936E0
5.476261120E-1,6.081752777E0,-1.730047822E0,6.480179787E0,9.053922486E0
5.500307480E-1,6.127240658E0,-1.720471382E0,6.753107548E0,9.279416006E0
5.524359560E-1,6.148787498E0,-1.708500981E0,6.257528782E0,8.937741871E0
5.548415290E-1,6.194275856E0,-1.739624262E0,6.932664871E0,9.458181018E0
5.572476230E-1,6.237369061E0,-1.701318622E0,6.420327187E0,9.111523420E0
5.596533520E-1,6.270886421E0,-1.737230062E0,6.695648670E0,9.336685489E0
5.620588200E-1,6.328345299E0,-1.710894942E0,6.853659153E0,9.484079265E0
5.644650700E-1,6.383409023E0,-1.720471382E0,6.429903984E0,9.222342315E0
5.668709560E-1,6.404956341E0,-1.758776903E0,7.090675354E0,9.715680053E0
5.692764250E-1,6.455232143E0,-1.732441783E0,6.501727104E0,9.324367640E0
5.716820500E-1,6.467202663E0,-1.775535703E0,6.894359112E0,9.618181995E0
5.740876230E-1,6.495932102E0,-1.799476743E0,6.918299675E0,9.659095238E0
5.764938730E-1,6.527055264E0,-1.828205824E0,6.599884987E0,9.460616723E0
5.788998620E-1,6.548602104E0,-1.837782264E0,7.224744797E0,9.922629215E0
5.813051230E-1,6.622818947E0,-1.847358584E0,6.633402348E0,9.553873102E0
5.837113730E-1,6.637183666E0,-1.885664225E0,7.095463276E0,9.897147856E0
5.861177270E-1,6.680277824E0,-1.900028825E0,6.985334873E0,9.850437789E0
5.885234040E-1,6.725765705E0,-1.931152105E0,6.731560230E0,9.709746439E0
5.909292890E-1,6.737736225E0,-1.950304866E0,7.279808998E0,1.010922339E1
5.933351230E-1,6.819135189E0,-1.957487226E0,6.647767067E0,9.722405461E0
5.957414770E-1,6.826317787E0,-2.031704187E0,7.152921677E0,1.009409357E1
5.981476230E-1,6.886170387E0,-2.007763147E0,6.930270195E0,9.973921016E0
6.005529350E-1,6.871805668E0,-2.026916027E0,6.800989151E0,9.878438902E0
6.029587680E-1,6.895746708E0,-2.043674707E0,7.286991596E0,1.023856316E1
6.053644450E-1,6.886170387E0,-2.046068907E0,6.690860748E0,9.816993334E0
6.077697060E-1,6.874199867E0,-2.072404146E0,7.294173241E0,1.023496195E1
6.101752790E-1,6.895746708E0,-2.074798107E0,6.913511753E0,9.982622632E0
6.125811120E-1,6.864623070E0,-2.089162588E0,6.937452793E0,9.980776596E0
6.149874140E-1,6.845469952E0,-2.108315468E0,7.339661598E0,1.025553925E1
6.173931430E-1,6.850258827E0,-2.103527308E0,6.745924950E0,9.841665335E0
6.197986120E-1,6.809558868E0,-2.127468348E0,7.387543201E0,1.026995658E1
6.222049140E-1,6.797588825E0,-2.103527308E0,6.961393833E0,9.954548964E0
6.246108000E-1,6.780829430E0,-2.110709667E0,7.054763794E0,1.001021654E1
6.270162680E-1,6.788012028E0,-2.093950987E0,7.327691078E0,1.020572362E1
6.294219450E-1,6.778435707E0,-2.081980467E0,6.772259712E0,9.805372757E0
6.318276750E-1,6.725765705E0,-2.108315468E0,7.401907921E0,1.022101557E1
6.342338200E-1,6.723371029E0,-2.084374666E0,6.870418549E0,9.836207947E0
6.366394980E-1,6.687459469E0,-2.108315468E0,7.059551716E0,9.950094406E0
6.390449660E-1,6.661124706E0,-2.067615747E0,7.210380554E0,1.003170997E1
6.414511120E-1,6.622818947E0,-2.065221786E0,6.729166508E0,9.664810072E0
6.438566850E-1,6.584513664E0,-2.074798107E0,7.358814240E0,1.009023064E1
6.462621020E-1,6.572543144E0,-2.058039427E0,6.784230232E0,9.667452069E0
6.486680390E-1,6.570148945E0,-2.101133108E0,6.894359112E0,9.752630674E0
6.510738200E-1,6.531843662E0,-2.060433626E0,7.248685837E0,9.972653344E0
6.534798100E-1,6.524661064E0,-2.060433626E0,7.148133278E0,9.895069383E0
6.558854870E-1,6.507902622E0,-2.055645227E0,7.102645874E0,9.850180316E0
6.582908000E-1,6.486355782E0,-2.043674707E0,7.155315876E0,9.871573477E0
6.606968410E-1,6.462414742E0,-2.043674707E0,7.121798515E0,9.831552507E0
6.631025700E-1,6.448050022E0,-2.041280746E0,7.155315876E0,9.845949495E0
6.655079870E-1,6.421715260E0,-2.067615747E0,7.162498474E0,9.839453549E0
6.679137680E-1,6.404956341E0,-2.060433626E0,7.188833237E0,9.846226473E0
6.703198620E-1,6.421715260E0,-2.048463106E0,7.191227436E0,9.856387777E0
6.727265810E-1,6.392985821E0,-2.031704187E0,7.203197956E0,9.842974673E0
6.751330390E-1,6.381015301E0,-2.043674707E0,7.219956398E0,9.849961064E0
6.775389250E-1,6.390591621E0,-2.026916027E0,7.217562199E0,9.850951931E0
6.799454870E-1,6.414532661E0,-2.041280746E0,7.246292114E0,9.890490673E0
6.823513730E-1,6.426503181E0,-2.031704187E0,7.253473759E0,9.901547688E0
6.847565810E-1,6.457626343E0,-2.017339706E0,7.275021076E0,9.934612682E0
6.871621540E-1,6.483961582E0,-2.029310226E0,7.265444279E0,9.947187460E0
6.895676230E-1,6.517478466E0,-2.019733667E0,7.291779518E0,9.986335573E0
6.919736120E-1,6.558178425E0,-2.014945745E0,7.320508957E0,1.003292390E1
6.943792890E-1,6.582119465E0,-2.010157347E0,7.349237919E0,1.006858119E1
6.967844450E-1,6.596484184E0,-2.005369186E0,7.361208439E0,1.008575723E1
6.991905390E-1,6.627607346E0,-2.007763147E0,7.365996361E0,1.011010358E1
7.015962160E-1,6.651548386E0,-2.010157347E0,7.363602161E0,1.012454766E1
7.040012160E-1,6.649154186E0,-1.993398666E0,7.351631641E0,1.011095334E1
7.064067370E-1,6.637183666E0,-2.014945745E0,7.363602161E0,1.011606891E1
7.088124140E-1,6.646759987E0,-2.002975225E0,7.358814240E0,1.011649520E1
7.112185600E-1,6.649154186E0,-2.036492586E0,7.339661598E0,1.011084496E1
7.136241850E-1,6.615637302E0,-2.029310226E0,7.313326359E0,1.006824212E1
7.160296020E-1,6.606060505E0,-2.036492586E0,7.344449997E0,1.008604398E1
7.184358000E-1,6.579725742E0,-2.031704187E0,7.332479477E0,1.005911865E1
7.208412160E-1,6.560572624E0,-2.041280746E0,7.301355839E0,1.002585345E1
7.232461640E-1,6.548602104E0,-2.024522066E0,7.310932159E0,1.002160706E1
7.256515810E-1,6.562966824E0,-2.014945745E0,7.298962116E0,1.002034869E1
7.280572580E-1,6.536631584E0,-1.986216307E0,7.291779518E0,9.992129714E0
7.304635600E-1,6.531843662E0,-1.998186827E0,7.258262157E0,9.966950475E0
7.328692890E-1,6.534237862E0,-1.983822227E0,7.200803757E0,9.923879776E0
7.352745500E-1,6.522267342E0,-1.971851707E0,7.193621159E0,9.908398246E0
7.376809560E-1,6.543814182E0,-1.947910786E0,7.155315876E0,9.890116570E0
7.400868410E-1,6.558178425E0,-1.911999345E0,7.121798515E0,9.868407158E0
7.424923100E-1,6.572543144E0,-1.914393306E0,7.102645874E0,9.864623841E0
7.448984560E-1,6.603666782E0,-1.916787505E0,7.105040073E0,9.887572187E0
7.473046540E-1,6.584513664E0,-1.878481984E0,7.095463276E0,9.860533143E0
7.497111120E-1,6.620425224E0,-1.883270025E0,7.064340591E0,9.863145752E0
7.521169980E-1,6.644366264E0,-1.844964623E0,7.061945915E0,9.870287616E0
7.545223100E-1,6.646759987E0,-1.854540944E0,7.054763794E0,9.868557778E0
7.569285600E-1,6.661124706E0,-1.844964623E0,7.071522236E0,9.888422703E0
7.593343410E-1,6.644366264E0,-1.840176344E0,7.023640156E0,9.842020782E0
7.617397060E-1,6.634789467E0,-1.832994103E0,7.011670113E0,9.825671296E0
7.641456950E-1,6.618031025E0,-1.832994103E0,7.006881714E0,9.810942533E0
7.665519450E-1,6.627607346E0,-1.847358584E0,7.016458511E0,9.826932528E0
7.689585080E-1,6.625213146E0,-1.835388064E0,7.006881714E0,9.816236037E0
7.713642890E-1,6.584513664E0,-1.854540944E0,7.006881714E0,9.792422257E0
7.737697580E-1,6.577331066E0,-1.849752665E0,6.999699593E0,9.781547079E0
7.761762160E-1,6.570148945E0,-1.854540944E0,7.006881714E0,9.782769067E0
7.785825180E-1,6.567755222E0,-1.868905425E0,7.023640156E0,9.795904103E0
7.809883000E-1,6.567755222E0,-1.897634745E0,7.066734314E0,9.832352727E0
7.833942370E-1,6.601272106E0,-1.892846465E0,7.095463276E0,9.874475189E0
7.858001230E-1,6.582119465E0,-1.892846465E0,7.100251198E0,9.865127037E0
7.882063200E-1,6.627607346E0,-1.914393306E0,7.145739555E0,9.932354940E0
7.906121540E-1,6.651548386E0,-1.916787505E0,7.181651115E0,9.974631974E0
7.930174140E-1,6.694642067E0,-1.909605265E0,7.172074318E0,9.995172569E0
7.954234040E-1,6.723371029E0,-1.926363826E0,7.198410034E0,1.003651845E1
7.978291330E-1,6.737736225E0,-1.902422786E0,7.200803757E0,1.004330009E1
8.002345500E-1,6.799982548E0,-1.916787505E0,7.219956398E0,1.010156460E1
8.026403830E-1,6.826317787E0,-1.928757906E0,7.234321594E0,1.013183747E1
8.050461640E-1,6.878987789E0,-1.916787505E0,7.234321594E0,1.016513435E1
8.074523620E-1,6.890958309E0,-1.935940385E0,7.243897438E0,1.018367427E1
8.098583000E-1,6.922081470E0,-1.935940385E0,7.251080036E0,1.020985988E1
8.122638730E-1,6.941234112E0,-1.933546185E0,7.267838478E0,1.023429568E1
8.146702270E-1,6.924475670E0,-1.940728426E0,7.291779518E0,1.024132993E1
8.170759040E-1,6.974751472E0,-1.952698946E0,7.320508957E0,1.029806014E1
8.194813730E-1,6.989116192E0,-1.967063546E0,7.342055321E0,1.032583461E1
8.218874660E-1,7.003480434E0,-1.950304866E0,7.385149479E0,1.036305264E1
8.242932480E-1,7.003480434E0,-1.943122625E0,7.416272640E0,1.038390888E1
8.266993930E-1,7.032210350E0,-1.959881186E0,7.445002079E0,1.042694455E1
8.291054350E-1,7.029816151E0,-1.967063546E0,7.452184200E0,1.043181209E1
8.315113200E-1,7.039391994E0,-1.962275386E0,7.440213680E0,1.042882275E1
8.339178310E-1,7.063333035E0,-1.957487226E0,7.418666840E0,1.042876059E1
8.363239770E-1,7.084880352E0,-1.938334346E0,7.418666840E0,1.043979345E1
8.387294980E-1,7.092062473E0,-1.945516706E0,7.433031559E0,1.045621076E1
8.411352270E-1,7.116003513E0,-1.916787505E0,7.413878441E0,1.045357230E1
8.435412160E-1,7.123185635E0,-1.907211065E0,7.399513721E0,1.044653201E1
8.459475180E-1,7.139944553E0,-1.892846465E0,7.401907921E0,1.045705106E1
8.483530910E-1,7.154309273E0,-1.904816985E0,7.423454762E0,1.048428107E1
8.507583520E-1,7.144732475E0,-1.873693705E0,7.428243160E0,1.047552990E1
8.531646020E-1,7.130368233E0,-1.878481984E0,7.389937401E0,1.043944541E1
8.555703310E-1,7.106427193E0,-1.861723185E0,7.382755280E0,1.041500822E1
8.579755390E-1,7.120791435E0,-1.871299624E0,7.354025841E0,1.040620627E1
8.603814770E-1,7.087274075E0,-1.856934905E0,7.301355839E0,1.034347418E1
8.627875180E-1,7.082486153E0,-1.859329104E0,7.260656357E0,1.031192734E1
8.651937680E-1,7.048968792E0,-1.859329104E0,7.227138996E0,1.026531070E1
8.675996540E-1,7.005875111E0,-1.866511464E0,7.198410034E0,1.021681252E1
8.700052270E-1,6.960387230E0,-1.883270025E0,7.136162758E0,1.014487631E1
8.724116330E-1,6.910110950E0,-1.864117384E0,7.061945915E0,1.005463312E1
8.748174140E-1,6.886170387E0,-1.849752665E0,7.033216953E0,1.001534164E1
8.772227790E-1,6.847864628E0,-1.842570424E0,7.052370071E0,1.000121189E1
8.796285600E-1,6.828711510E0,-1.840176344E0,7.023640156E0,9.967400408E0
8.820344450E-1,6.826317787E0,-1.809053063E0,7.021246433E0,9.958372809E0
8.844408000E-1,6.780829430E0,-1.809053063E0,7.021246433E0,9.927246457E0
8.868466850E-1,6.783223629E0,-1.773141623E0,7.018852234E0,9.920707671E0
8.892518930E-1,6.778435707E0,-1.780323863E0,7.026034355E0,9.923804837E0
8.916577270E-1,6.747312069E0,-1.763565183E0,7.009275913E0,9.887685833E0
8.940634040E-1,6.747312069E0,-1.753988862E0,7.023640156E0,9.896171892E0
8.964685080E-1,6.744918346E0,-1.730047822E0,7.002093315E0,9.875034165E0
8.988738200E-1,6.735341549E0,-1.737230062E0,7.009275913E0,9.874854070E0
9.012791850E-1,6.735341549E0,-1.703712702E0,6.980546951E0,9.848629270E0
9.036850700E-1,6.706612587E0,-1.701318622E0,6.959000111E0,9.813298120E0
9.060903310E-1,6.701824665E0,-1.686953902E0,6.942240715E0,9.795660950E0
9.084952790E-1,6.665913105E0,-1.710894942E0,6.891964912E0,9.739647806E0
9.109013730E-1,6.651548386E0,-1.718077302E0,6.889570713E0,9.729392075E0
9.133068930E-1,6.634789467E0,-1.727653742E0,6.846477509E0,9.689142015E0
9.157117370E-1,6.627607346E0,-1.739624262E0,6.848871231E0,9.688060117E0
9.181170500E-1,6.574937344E0,-1.739624262E0,6.810565948E0,9.624962451E0
9.205226750E-1,6.562966824E0,-1.763565183E0,6.812959671E0,9.622843403E0
9.229283520E-1,6.529448986E0,-1.782717943E0,6.789019108E0,9.586582695E0
9.253334560E-1,6.495932102E0,-1.782717943E0,6.753107548E0,9.538326829E0
9.277384040E-1,6.479173183E0,-1.799476743E0,6.750713348E0,9.528375119E0
9.301442890E-1,6.464808464E0,-1.816235304E0,6.726772308E0,9.504836918E0
9.325498100E-1,6.445655823E0,-1.840176344E0,6.695648670E0,9.474409695E0
9.349547580E-1,6.436079502E0,-1.816235304E0,6.657343388E0,9.436209568E0
9.373602270E-1,6.421715260E0,-1.797082543E0,6.631008148E0,9.404158740E0
9.397657480E-1,6.433685303E0,-1.830599904E0,6.554397106E0,9.365015964E0
9.421715810E-1,6.450444221E0,-1.830599904E0,6.470603943E0,9.318156580E0
9.445770500E-1,6.440867424E0,-1.801870704E0,6.437086582E0,9.282650207E0
9.469822580E-1,6.414532661E0,-1.794688463E0,6.398780823E0,9.236424198E0
9.493883000E-1,6.424108982E0,-1.801870704E0,6.370051384E0,9.224612126E0
9.517940290E-1,6.392985821E0,-1.777929664E0,6.379627705E0,9.204941675E0
9.541994450E-1,6.381015301E0,-1.777929664E0,6.355686665E0,9.180040476E0
9.566051750E-1,6.381015301E0,-1.770747423E0,6.358080864E0,9.180310179E0
9.590108000E-1,6.333133221E0,-1.794688463E0,6.365263462E0,9.156749533E0
9.614167890E-1,6.316374779E0,-1.794688463E0,6.374839783E0,9.151834749E0
9.638223100E-1,6.302010059E0,-1.773141623E0,6.384416103E0,9.144404354E0
9.662274140E-1,6.249339581E0,-1.780323863E0,6.415539265E0,9.131426083E0
9.686336640E-1,6.218216419E0,-1.792294383E0,6.458633423E0,9.142892337E0
9.710394450E-1,6.196669579E0,-1.821023583E0,6.484968185E0,9.152576311E0
9.734447580E-1,6.170334816E0,-1.804264784E0,6.480179787E0,9.128041040E0
9.758508000E-1,6.143999577E0,-1.821023583E0,6.472997665E0,9.108488155E0
9.782566850E-1,6.110482216E0,-1.821023583E0,6.456238747E0,9.073981406E0
9.806627270E-1,6.143999577E0,-1.828205824E0,6.482574463E0,9.116734009E0
9.830683520E-1,6.179911137E0,-1.818629503E0,6.458633423E0,9.122097380E0
9.854735080E-1,6.191881657E0,-1.816235304E0,6.456238747E0,9.128040747E0
9.878793410E-1,6.215822697E0,-1.821023583E0,6.413145542E0,9.114878739E0
9.902848100E-1,6.246945858E0,-1.823417544E0,6.439480305E0,9.155112817E0
9.926900700E-1,6.278069019E0,-1.821023583E0,6.444268227E0,9.179263068E0
9.950958000E-1,6.328345299E0,-1.835388064E0,6.468209267E0,9.233327390E0
9.975014770E-1,6.376227379E0,-1.825811744E0,6.484968185E0,9.276026977E0
9.999076750E-1,6.412138462E0,-1.837782264E0,6.561579227E0,9.356670629E0
1.002313664E0,6.467202663E0,-1.840176344E0,6.623826027E0,9.438539638E0
1.004719237E0,6.498326302E0,-1.844964623E0,6.666919708E0,9.491046179E0
1.007125227E0,6.531843662E0,-1.856934905E0,6.729166508E0,9.560066462E0
1.009530591E0,6.565360546E0,-1.849752665E0,6.755501270E0,9.600121949E0
1.011935748E0,6.589301586E0,-1.866511464E0,6.798595428E0,9.650060116E0
1.014341581E0,6.639577866E0,-1.864117384E0,6.851265430E0,9.721047570E0
1.016747310E0,6.680277824E0,-1.876087785E0,6.865629673E0,9.761285161E0
1.019153248E0,6.704218864E0,-1.878481984E0,6.899147511E0,9.801708092E0
1.021558873E0,6.697036266E0,-1.911999345E0,6.923088551E0,9.820142124E0
1.023964081E0,6.723371029E0,-1.921575665E0,6.975758553E0,9.877113871E0
1.026370331E0,6.716189384E0,-1.933546185E0,7.026034355E0,9.910144270E0
1.028776529E0,6.730553627E0,-1.947910786E0,7.071522236E0,9.954955313E0
1.031181945E0,6.735341549E0,-1.950304866E0,7.107433796E0,9.984194009E0
1.033587518E0,6.737736225E0,-1.940728426E0,7.167286396E0,1.002664004E1
1.035993143E0,6.783223629E0,-1.955093026E0,7.219956398E0,1.009763744E1
1.038399081E0,6.785618305E0,-1.947910786E0,7.296567917E0,1.015277674E1
1.040804706E0,6.807164669E0,-1.950304866E0,7.313326359E0,1.017968184E1
1.043209862E0,6.838288307E0,-1.950304866E0,7.334873199E0,1.021597968E1
1.045615904E0,6.883776188E0,-1.926363826E0,7.397119999E0,1.028662415E1
1.048021737E0,6.900534630E0,-1.911999345E0,7.459366322E0,1.033998383E1
1.050426841E0,6.957993031E0,-1.900028825E0,7.497672081E0,1.040379081E1
1.052832154E0,6.989116192E0,-1.907211065E0,7.555130482E0,1.046733948E1
1.055237831E0,7.010663033E0,-1.900028825E0,7.586253643E0,1.050289246E1
1.057643873E0,7.051362514E0,-1.885664225E0,7.643712044E0,1.056900074E1
1.060049498E0,7.094456673E0,-1.897634745E0,7.701170444E0,1.064144536E1
1.062454810E0,7.142338753E0,-1.880875945E0,7.756234646E0,1.071026951E1
1.064860852E0,7.159097195E0,-1.876087785E0,7.813693047E0,1.076225706E1
1.067266633E0,7.173462391E0,-1.868905425E0,7.887909889E0,1.082453198E1
1.069671945E0,7.173462391E0,-1.868905425E0,7.964521408E0,1.088048581E1
1.072077623E0,7.218949795E0,-1.852146864E0,8.038738251E0,1.096197960E1
1.074483664E0,7.228526115E0,-1.842570424E0,8.098590851E0,1.101062348E1
1.076889810E0,7.242890835E0,-1.837782264E0,8.120138168E0,1.103510558E1
1.079295383E0,7.264437675E0,-1.818629503E0,8.179990768E0,1.109016307E1
1.081700800E0,7.288378716E0,-1.797082543E0,8.223083496E0,1.113413994E1
1.084106841E0,7.288378716E0,-1.770747423E0,8.237448692E0,1.114053732E1
1.086512414E0,7.319502354E0,-1.732441783E0,8.299695015E0,1.120095561E1
1.088917987E0,7.312319756E0,-1.698924422E0,8.326029778E0,1.121067064E1
1.091323925E0,7.324290276E0,-1.674983501E0,8.354759216E0,1.123622710E1
1.093729237E0,7.350625038E0,-1.617525101E0,8.345182419E0,1.123788884E1
1.096134862E0,7.362595558E0,-1.579219580E0,8.330818176E0,1.122961617E1
1.098540279E0,7.367383957E0,-1.531337619E0,8.311665535E0,1.121191889E1
1.100945748E0,7.374566078E0,-1.507396579E0,8.326029778E0,1.122404745E1
1.103352258E0,7.341048717E0,-1.469091058E0,8.316453934E0,1.118984499E1
1.105758091E0,7.345837116E0,-1.414026737E0,8.302088737E0,1.117521686E1
1.108163404E0,7.336260796E0,-1.382903457E0,8.292512894E0,1.115790816E1
1.110569393E0,7.357807636E0,-1.325445056E0,8.273360252E0,1.115090255E1
1.112975435E0,7.302742958E0,-1.296715975E0,8.266178131E0,1.110590959E1
1.115381633E0,7.300349236E0,-1.241651535E0,8.239842415E0,1.107843854E1
1.117787154E0,7.281196117E0,-1.220104694E0,8.230266571E0,1.105629957E1
1.120192570E0,7.262043476E0,-1.177011013E0,8.196748734E0,1.101405103E1
1.122598820E0,7.257255077E0,-1.126734972E0,8.206325531E0,1.101276812E1
1.125004393E0,7.230920315E0,-1.093217492E0,8.201537132E0,1.098847325E1
1.127409550E0,7.178250313E0,-1.062094212E0,8.409823418E0,1.110767535E1
1.129815279E0,7.175856113E0,-1.016606331E0,7.990856171E0,1.078796467E1
1.132221216E0,7.173462391E0,-9.735126495E-1,7.907062531E0,1.072044437E1
1.134627570E0,7.154309273E0,-9.591479897E-1,8.371518135E0,1.105379672E1
1.137033352E0,7.132761955E0,-9.304189086E-1,7.684412003E0,1.052578549E1
1.139438977E0,7.120791435E0,-9.352070689E-1,8.242237091E0,1.093228042E1
1.141845800E0,7.147126675E0,-8.801427484E-1,7.875939369E0,1.067176142E1
1.144252102E0,7.111215115E0,-8.418372273E-1,7.820875168E0,1.060396901E1
1.146657727E0,7.144732475E0,-8.490195274E-1,8.110561371E0,1.084201282E1
1.149063716E0,7.135156155E0,-7.843788266E-1,7.480913162E0,1.036772710E1
1.151469810E0,7.120791435E0,-7.939552069E-1,8.021980286E0,1.075584507E1
1.153876581E0,7.135156155E0,-7.508614659E-1,7.540765762E0,1.040852509E1
1.156282831E0,7.111215115E0,-7.532556057E-1,7.614983082E0,1.044627885E1
1.158688300E0,7.144732475E0,-7.341027856E-1,7.844816208E0,1.063612948E1
1.161094289E0,7.147126675E0,-7.293145657E-1,7.330084801E0,1.026369634E1
1.163499914E0,7.144732475E0,-7.125558853E-1,7.938186646E0,1.070372576E1
1.165905227E0,7.168673515E0,-6.694620848E-1,7.447395802E0,1.035865646E1
1.168310800E0,7.139944553E0,-6.838266850E-1,7.636529922E0,1.047678464E1
1.170716216E0,7.202191353E0,-6.527034044E-1,7.758628845E0,1.060631433E1
1.173122154E0,7.202191353E0,-6.311565042E-1,7.258262157E0,1.024462241E1
1.175527727E0,7.226132393E0,-6.407328844E-1,7.842422485E0,1.068321667E1
1.177932831E0,7.257255077E0,-6.143978238E-1,7.229532719E0,1.026213327E1
1.180338820E0,7.228526115E0,-6.239742041E-1,7.495277882E0,1.043168846E1
1.182744133E0,7.285984516E0,-5.952450037E-1,7.497672081E0,1.047162708E1
1.185149341E0,7.288378716E0,-5.928509235E-1,7.100251198E0,1.019242383E1
1.187555279E0,7.259649754E0,-5.952450037E-1,7.677229404E0,1.058284851E1
1.189961112E0,7.285984516E0,-5.689099431E-1,7.047581196E0,1.015271538E1
1.192367310E0,7.285984516E0,-5.760922432E-1,7.411484241E0,1.040901298E1
1.194772935E0,7.281196117E0,-5.449689627E-1,7.337267399E0,1.035124635E1
1.197178195E0,7.285984516E0,-5.449689627E-1,7.028429031E0,1.013811502E1
1.199583977E0,7.257255077E0,-5.401807427E-1,7.519218922E0,1.046413875E1
1.201989393E0,7.276408195E0,-5.042693019E-1,6.839294910E0,9.998817862E0
1.204394758E0,7.252467155E0,-5.353925824E-1,7.277414799E0,1.028813351E1
1.206800591E0,7.226132393E0,-4.970869422E-1,7.028429031E0,1.009271517E1
1.209206320E0,7.209372997E0,-4.827224016E-1,6.786624908E0,9.912938897E0
1.211612466E0,7.197402477E0,-4.659636617E-1,7.222351074E0,1.020696231E1
1.214017987E0,7.199797153E0,-4.348403811E-1,6.602278709E0,9.778356169E0
1.216422987E0,7.183038235E0,-4.515991211E-1,7.164892197E0,1.015557287E1
1.218828664E0,7.185432434E0,-3.893525600E-1,6.891964912E0,9.963995937E0
1.221234133E0,7.195008755E0,-3.606233597E-1,6.829718590E0,9.926895598E0
1.223639341E0,7.206979275E0,-3.271059394E-1,7.231926918E0,1.021510232E1
1.226044862E0,7.233314037E0,-2.792239785E-1,6.738742828E0,9.889866172E0
1.228450227E0,7.245284557E0,-2.696475983E-1,7.117010593E0,1.015966033E1
1.230855695E0,7.278801918E0,-2.409184128E-1,6.975758553E0,1.008465202E1
1.233261008E0,7.297955036E0,-2.121892124E-1,6.944635391E0,1.007636505E1
1.235666216E0,7.343442917E0,-1.858541369E-1,6.973364353E0,1.012859842E1
1.238072206E0,7.360201836E0,-1.643072516E-1,6.932664871E0,1.011243839E1
1.240477935E0,7.379354477E0,-1.355780661E-1,6.935059071E0,1.012760081E1
1.242883352E0,7.410477638E0,-1.116370708E-1,6.915905952E0,1.013693232E1
1.245288820E0,7.448782921E0,-1.116370708E-1,6.911118031E0,1.016171158E1
1.247693873E0,7.439206600E0,-1.140311733E-1,6.882388592E0,1.013518972E1
1.250099550E0,7.429630756E0,-9.966658056E-2,6.846477509E0,1.010364295E1
1.252505018E0,7.396112919E0,-1.044547781E-1,6.841689110E0,1.007581793E1
1.254910279E0,7.386536598E0,-9.966658056E-2,6.836900711E0,1.006548894E1
1.257316373E0,7.343442917E0,-8.051379025E-2,6.856053352E0,1.004679570E1
1.259722206E0,7.321896076E0,-7.572559267E-2,6.822536469E0,1.000814170E1
1.262127727E0,7.312319756E0,-8.051379025E-2,6.822536469E0,1.000117526E1
1.264533143E0,7.278801918E0,-7.572559267E-2,6.798595428E0,9.960300775E0
1.266938300E0,7.247679234E0,-8.290788531E-2,6.757895470E0,9.909837495E0
1.269344029E0,7.223738194E0,-8.051379025E-2,6.712407589E0,9.861302733E0
1.271749654E0,7.202191353E0,-7.093739510E-2,6.693254948E0,9.832408362E0
1.274154966E0,7.216555595E0,-6.614919752E-2,6.664525986E0,9.823388264E0
1.276561112E0,7.156702995E0,-6.375509501E-2,6.599884987E0,9.735550540E0
1.278966685E0,7.137550831E0,-4.699640721E-2,6.583126545E0,9.710015223E0
1.281371841E0,7.135156155E0,-6.136099994E-2,6.566367149E0,9.696978708E0
1.283777570E0,7.106427193E0,-5.896690115E-2,6.549608707E0,9.664479229E0
1.286183143E0,7.072909832E0,-6.614919752E-2,6.518485546E0,9.618788023E0
1.288588977E0,7.058545113E0,-2.784361690E-2,6.482574463E0,9.583715670E0
1.290994550E0,7.075303555E0,-1.108492538E-2,6.451450825E0,9.575033212E0
1.293399758E0,7.072909832E0,-3.902629018E-3,6.384416103E0,9.528212723E0
1.295805591E0,7.072909832E0,5.673766136E-3,6.355686665E0,9.508987257E0
1.298210956E0,7.048968792E0,1.046196371E-2,6.300622940E0,9.454412722E0
1.300615904E0,7.039391994E0,3.200884908E-2,6.228799820E0,9.399575066E0
1.303021216E0,7.046574593E0,4.397934675E-2,6.207252979E0,9.390747426E0
1.305426477E0,7.034604073E0,4.158525169E-2,6.154582500E0,9.346992540E0
1.307832258E0,7.008269310E0,7.270853221E-2,6.130641460E0,9.311599753E0
1.310237623E0,6.986721992E0,1.038318127E-1,6.104306221E0,9.278341430E0
1.312642518E0,7.005875111E0,1.301669031E-1,6.075577259E0,9.274258381E0
1.315048300E0,7.020239830E0,1.421373934E-1,6.025301456E0,9.252471451E0
1.317453664E0,6.986721992E0,1.588960737E-1,6.003754616E0,9.213283977E0
1.319858612E0,6.989116192E0,1.708665788E-1,5.912778854E0,9.156303529E0
1.322263820E0,6.977145672E0,1.732606739E-1,5.886443615E0,9.130213547E0
1.324668977E0,6.991510868E0,2.187485546E-1,5.817014694E0,9.097622497E0
1.327074550E0,6.936446190E0,2.163544744E-1,5.769133091E0,9.024632493E0
1.329479758E0,6.924475670E0,2.163544744E-1,5.728432655E0,8.989444546E0
1.331884914E0,6.922081470E0,2.259308547E-1,5.675762653E0,8.954358622E0
1.334290956E0,6.869410992E0,2.450836152E-1,5.630274773E0,8.885317516E0
1.336696425E0,6.869410992E0,2.283249348E-1,5.603940010E0,8.868206317E0
1.339101685E0,6.835894108E0,2.474777550E-1,5.563240528E0,8.817048183E0
1.341507466E0,6.792799950E0,2.307190746E-1,5.522540569E0,8.757500602E0
1.343912987E0,6.771253109E0,2.498718351E-1,5.524934769E0,8.742837571E0
1.346318664E0,6.768859386E0,2.474777550E-1,5.508175850E0,8.730332401E0
1.348724133E0,6.728159428E0,2.714186907E-1,5.534511089E0,8.716226843E0
1.351129550E0,6.740129948E0,2.905715108E-1,5.515358448E0,8.713952164E0
1.353535800E0,6.747312069E0,3.001478910E-1,5.503387928E0,8.712266502E0
1.355941425E0,6.752100468E0,2.881774306E-1,5.465082169E0,8.691434293E0
1.358346685E0,6.749706745E0,3.097243309E-1,5.438746929E0,8.673778788E0
1.360752310E0,6.759282589E0,3.264830112E-1,5.410017967E0,8.663878270E0
1.363157675E0,6.768859386E0,3.456357718E-1,5.338194847E0,8.627470412E0
1.365563716E0,6.776041508E0,3.576062918E-1,5.307071686E0,8.614385100E0
1.367969445E0,6.797588825E0,3.695767522E-1,5.271160603E0,8.609816195E0
1.370374810E0,6.819135189E0,3.576062918E-1,5.259190083E0,8.619023571E0
1.372781008E0,6.814347267E0,3.863354921E-1,5.232854366E0,8.600427234E0
1.375186893E0,6.835894108E0,4.054882526E-1,5.273554325E0,8.643161701E0
1.377592206E0,6.867017269E0,4.150646329E-1,5.309465885E0,8.690145730E0
1.379997831E0,6.871805668E0,4.246410131E-1,5.357347965E0,8.723715398E0
1.382403873E0,6.871805668E0,4.749171138E-1,5.436352730E0,8.775032217E0
1.384810331E0,6.902928829E0,4.868876338E-1,5.486629009E0,8.831227767E0
1.387216373E0,6.962780952E0,4.964640141E-1,5.527328968E0,8.903828425E0
1.389621737E0,6.984328270E0,5.204049945E-1,5.558451653E0,8.941367206E0
1.392027987E0,6.998692513E0,5.251931548E-1,5.563240528E0,8.955845572E0
1.394433664E0,7.025027752E0,5.371636748E-1,5.565634251E0,8.978632654E0
1.396838768E0,7.058545113E0,5.491341949E-1,5.577604771E0,9.013006294E0
1.399244498E0,7.072909832E0,5.634987354E-1,5.553663731E0,9.010369868E0
1.401650539E0,7.096850872E0,5.682869554E-1,5.532116890E0,9.016238664E0
1.404056945E0,7.080091953E0,5.778633356E-1,5.515358448E0,8.993375724E0
1.406462883E0,7.053757191E0,5.563164949E-1,5.498599529E0,8.961003032E0
1.408868560E0,7.058545113E0,5.682869554E-1,5.465082169E0,8.945005997E0
1.411274966E0,7.017845631E0,5.754692554E-1,5.460293770E0,8.910450618E0
1.413680800E0,6.998692513E0,5.706810355E-1,5.448323250E0,8.887721866E0
1.416086373E0,6.943628788E0,5.467400551E-1,5.417200565E0,8.823772855E0
1.418492310E0,6.881381512E0,5.515282154E-1,5.410017967E0,8.770740521E0
1.420898248E0,6.838288307E0,5.563164949E-1,5.386076927E0,8.722470962E0
1.423304445E0,6.807164669E0,5.227991343E-1,5.326224327E0,8.659068965E0
1.425710070E0,6.747312069E0,5.227991343E-1,5.295101166E0,8.592882837E0
1.428115070E0,6.720977306E0,5.515282154E-1,5.273554325E0,8.560729790E0
1.430520591E0,6.682671547E0,5.491341949E-1,5.263978004E0,8.524617986E0
1.432925852E0,6.665913105E0,5.658928752E-1,5.254401207E0,8.506665875E0
1.435330956E0,6.639577866E0,5.754692554E-1,5.244824886E0,8.480763361E0
1.437736477E0,6.610848427E0,6.018043756E-1,5.225672245E0,8.448262297E0
1.440141998E0,6.594089985E0,6.257452965E-1,5.216095924E0,8.430968900E0
1.442547727E0,6.601272106E0,6.616567969E-1,5.194549084E0,8.426026544E0
1.444953091E0,6.603666782E0,6.903859973E-1,5.194549084E0,8.430206877E0
1.447358143E0,6.646759987E0,7.071446776E-1,5.189760685E0,8.462451647E0
1.449763820E0,6.644366264E0,7.239033580E-1,5.175396442E0,8.453186823E0
1.452169029E0,6.656336784E0,7.765735388E-1,5.161031723E0,8.458494801E0
1.454574237E0,6.668307304E0,7.765735388E-1,5.149061203E0,8.460627639E0
1.456980018E0,6.680277824E0,7.981204391E-1,5.122725964E0,8.456088300E0
1.459385748E0,6.692248344E0,7.885440588E-1,5.101179600E0,8.451628420E0
1.461791893E0,6.704218864E0,8.388200998E-1,5.115543842E0,8.474606690E0
1.464197362E0,6.692248344E0,8.555787802E-1,5.127514362E0,8.474054902E0
1.466602154E0,6.701824665E0,8.460023999E-1,5.137090683E0,8.486452415E0
1.469007623E0,6.682671547E0,8.483964801E-1,5.139484882E0,8.473026640E0
1.471412675E0,6.673095226E0,8.723374605E-1,5.170608044E0,8.486834515E0
1.473817675E0,6.656336784E0,8.843079805E-1,5.218489647E0,8.504202149E0
1.476223248E0,6.653942585E0,8.723374605E-1,5.225672245E0,8.505502630E0
1.478628716E0,6.627607346E0,8.843079805E-1,5.247219563E0,8.499440739E0
1.481034445E0,6.646759987E0,8.986725807E-1,5.287919044E0,8.541025615E0
1.483439862E0,6.663518429E0,8.962785006E-1,5.285524845E0,8.552342714E0
1.485844862E0,6.661124706E0,9.202194810E-1,5.292706966E0,8.557460679E0
1.488250748E0,6.680277824E0,9.250077009E-1,5.275948524E0,8.562557088E0
1.490656060E0,6.682671547E0,9.345840216E-1,5.275948524E0,8.565464327E0
1.493060852E0,6.699429989E0,9.345840216E-1,5.275948524E0,8.578545465E0
1.495466060E0,6.720977306E0,9.657073617E-1,5.254401207E0,8.585619297E0
1.497871581E0,6.706612587E0,9.537368417E-1,5.252007484E0,8.571572141E0
1.500277675E0,6.730553627E0,9.657073617E-1,5.244824886E0,8.587265625E0
1.502683248E0,6.711400509E0,9.776778817E-1,5.259190083E0,8.582414063E0
1.505088300E0,6.735341549E0,9.728897214E-1,5.283130646E0,8.615266079E0
1.507494081E0,6.723371029E0,9.992247224E-1,5.323830605E0,8.633964347E0
1.509899758E0,6.725765705E0,1.011195302E0,5.383682728E0,8.674242328E0
1.512305070E0,6.711400509E0,1.004013062E0,5.421988487E0,8.686132521E0
1.514710748E0,6.728159428E0,1.025559902E0,5.443535328E0,8.715043274E0
1.517116320E0,6.720977306E0,1.047106743E0,5.455505848E0,8.719547726E0
1.519522154E0,6.725765705E0,1.032742143E0,5.441141605E0,8.712548572E0
1.521927987E0,6.761677265E0,1.044712663E0,5.443535328E0,8.743213417E0
1.524333508E0,6.778435707E0,1.032742143E0,5.474658489E0,8.774145687E0
1.526739393E0,6.759282589E0,1.056683183E0,5.503387928E0,8.780191294E0
1.529144914E0,6.819135189E0,1.071047783E0,5.515358448E0,8.835549043E0
1.531550435E0,6.831105709E0,1.071047783E0,5.520146370E0,8.847777377E0
1.533956164E0,6.855046749E0,1.090200543E0,5.527328968E0,8.873081127E0
1.536361893E0,6.883776188E0,1.092594624E0,5.579998970E0,8.928411176E0
1.538767935E0,6.910110950E0,1.109353304E0,5.613516331E0,8.971725793E0
1.541173404E0,6.922081470E0,1.094988823E0,5.673368931E0,9.016724873E0
1.543578300E0,6.922081470E0,1.099776864E0,5.776314735E0,9.082429904E0
1.545984185E0,6.936446190E0,1.106959343E0,5.857714176E0,9.146171882E0
1.548389862E0,7.013057232E0,1.116535664E0,5.941507816E0,9.259111121E0
1.550795070E0,7.022633553E0,1.123717904E0,6.001360416E0,9.305721401E0
1.553200852E0,7.072909832E0,1.140476704E0,6.056424141E0,9.381205358E0
1.555607050E0,7.120791435E0,1.118929625E0,6.092335701E0,9.437914413E0
1.558013404E0,7.173462391E0,1.133294344E0,6.149794579E0,9.516453757E0
1.560419185E0,7.195008755E0,1.126112103E0,6.154582500E0,9.534944426E0
1.562824393E0,7.233314037E0,1.114141583E0,6.183311939E0,9.580996293E0
1.565230383E0,7.259649754E0,1.097382784E0,6.202464581E0,9.611312626E0
1.567635800E0,7.288378716E0,1.085412264E0,6.228799820E0,9.648654377E0
1.570040643E0,7.312319756E0,1.094988823E0,6.264711380E0,9.691007657E0
1.572446112E0,7.345837116E0,1.102171063E0,6.279076099E0,9.726402246E0
1.574851685E0,7.360201836E0,1.104565144E0,6.298228264E0,9.749887921E0
1.577257675E0,7.391324520E0,1.104565144E0,6.322169304E0,9.788849116E0
1.579663508E0,7.405689716E0,1.094988823E0,6.291046143E0,9.778573631E0
1.582068820E0,7.427236080E0,1.106959343E0,6.322169304E0,9.816263010E0
1.584474758E0,7.446389198E0,1.116535664E0,6.322169304E0,9.831845640E0
1.586880383E0,7.448782921E0,1.114141583E0,6.362869263E0,9.859603629E0
1.589285695E0,7.451177120E0,1.154841185E0,6.367657185E0,9.869182168E0
1.591691633E0,7.453571796E0,1.142870665E0,6.365263462E0,9.868052737E0
1.594097675E0,7.477512836E0,1.176388025E0,6.379627705E0,9.899330111E0
1.596503977E0,7.484694481E0,1.181176305E0,6.405962944E0,9.922307704E0
1.598909966E0,7.482300758E0,1.193146825E0,6.427509785E0,9.935859601E0
1.601315591E0,7.482300758E0,1.212299585E0,6.453845024E0,9.955230310E0
1.603721841E0,7.489483356E0,1.221875906E0,6.472997665E0,9.974218789E0
1.606127518E0,7.511029720E0,1.241028786E0,6.501727104E0,1.001140226E1
1.608532831E0,7.518212318E0,1.264969826E0,6.528061867E0,1.003689478E1
1.610938925E0,7.518212318E0,1.276940346E0,6.544820786E0,1.004931700E1
1.613345123E0,7.527788639E0,1.281728387E0,6.566367149E0,1.007112739E1
1.615751685E0,7.534970760E0,1.308063507E0,6.628614426E0,1.012054068E1
1.618157570E0,7.527788639E0,1.324822187E0,6.662131310E0,1.013936631E1
1.620562779E0,7.561306000E0,1.348763227E0,6.705225468E0,1.019571279E1
1.622968768E0,7.590034962E0,1.351157308E0,6.681284428E0,1.020165763E1
1.625374602E0,7.618763924E0,1.370310068E0,6.710013390E0,1.024439325E1
1.627779758E0,7.647493839E0,1.379886508E0,6.707619190E0,1.026549580E1
1.630185175E0,7.678616524E0,1.415797949E0,6.688467026E0,1.028111019E1
1.632590748E0,7.719316483E0,1.434950829E0,6.695648670E0,1.031884887E1
1.634996320E0,7.752833843E0,1.432556629E0,6.693254948E0,1.034206521E1
1.637401529E0,7.769592762E0,1.458891749E0,6.678890228E0,1.034903433E1
1.639806425E0,7.795927525E0,1.480438709E0,6.693254948E0,1.038112935E1
1.642212206E0,7.795927525E0,1.463679910E0,6.705225468E0,1.038647647E1
1.644617570E0,7.810292244E0,1.480438709E0,6.686072350E0,1.038729643E1
1.647022414E0,7.827050686E0,1.516350150E0,6.700437069E0,1.041431213E1
1.649427570E0,7.810292244E0,1.501985550E0,6.726772308E0,1.041662571E1
1.651832831E0,7.817474842E0,1.521138310E0,6.748318672E0,1.043870584E1
1.654238768E0,7.791139126E0,1.516350150E0,6.755501270E0,1.042295371E1
1.656644341E0,7.803109646E0,1.530714631E0,6.772259712E0,1.044486041E1
1.659049393E0,7.795927525E0,1.540291071E0,6.750713348E0,1.042694170E1
1.661455175E0,7.793533802E0,1.540291071E0,6.738742828E0,1.041740470E1
1.663860591E0,7.805504322E0,1.530714631E0,6.721983910E0,1.041412755E1
1.666265591E0,7.767198086E0,1.566626191E0,6.681284428E0,1.036451858E1
1.668671164E0,7.760015965E0,1.549867511E0,6.671708107E0,1.035044087E1
1.671076945E0,7.755228043E0,1.545079350E0,6.616643906E0,1.031071330E1
1.673483039E0,7.745651722E0,1.533108830E0,6.599884987E0,1.029096813E1
1.675888925E0,7.728892803E0,1.549867511E0,6.563973427E0,1.025785652E1
1.678294341E0,7.728892803E0,1.561838031E0,6.571156025E0,1.026426878E1
1.680700487E0,7.736074924E0,1.545079350E0,6.544820786E0,1.025030753E1
1.683106320E0,7.733681202E0,1.559443951E0,6.528061867E0,1.023998448E1
1.685511425E0,7.714528084E0,1.583384871E0,6.540032387E0,1.023684887E1
1.687916477E0,7.709740162E0,1.607325912E0,6.518485546E0,1.022322081E1
1.690321633E0,7.724104881E0,1.604931831E0,6.523273945E0,1.023673314E1
1.692727362E0,7.736074924E0,1.590567112E0,6.506515026E0,1.023286357E1
1.695132623E0,7.733681202E0,1.640843272E0,6.499332905E0,1.023442816E1
1.697537466E0,7.745651722E0,1.616902351E0,6.477786064E0,1.022600636E1
1.699943300E0,7.740863323E0,1.631266952E0,6.453845024E0,1.020951088E1
1.702348925E0,7.745651722E0,1.640843272E0,6.401175022E0,1.018147970E1
1.704754185E0,7.755228043E0,1.636054993E0,6.362869263E0,1.016397281E1
1.707159862E0,7.738469124E0,1.638449192E0,6.350898743E0,1.014407881E1
1.709565643E0,7.731287003E0,1.636054993E0,6.295834541E0,1.010381152E1
1.711971633E0,7.724104881E0,1.628872752E0,6.245558262E0,1.006588400E1
1.714377154E0,7.695375443E0,1.621690392E0,6.245558262E0,1.004269291E1
1.716782310E0,7.669040203E0,1.614508152E0,6.183311939E0,9.982693061E0
1.719188352E0,7.645099163E0,1.612114072E0,6.204858780E0,9.977310533E0
1.721593768E0,7.621158123E0,1.592961311E0,6.183311939E0,9.942480747E0
1.723998820E0,7.597217083E0,1.583384871E0,6.164158821E0,9.910684589E0
1.726404445E0,7.558911800E0,1.559443951E0,6.137824059E0,9.861130626E0
1.728809966E0,7.525394440E0,1.554655671E0,6.142611980E0,9.837692701E0
1.731215904E0,7.518212318E0,1.535502911E0,6.123459339E0,9.817231786E0
1.733621373E0,7.479906559E0,1.537896991E0,6.104306221E0,9.776332836E0
1.736026320E0,7.455965519E0,1.523532391E0,6.111488819E0,9.760269891E0
1.738431998E0,7.458359718E0,1.530714631E0,6.130641460E0,9.775222846E0
1.740837362E0,7.465542316E0,1.516350150E0,6.147400379E0,9.788982137E0
1.743242310E0,7.489483356E0,1.528320670E0,6.149794579E0,9.810611519E0
1.745647570E0,7.515818119E0,1.497197270E0,6.204858780E0,9.860496648E0
1.748052935E0,7.506241798E0,1.513956070E0,6.190494061E0,9.846722583E0
1.750458768E0,7.546941280E0,1.521138310E0,6.202464581E0,9.886392230E0
1.752864341E0,7.575670719E0,1.518744111E0,6.190494061E0,9.900484192E0
1.755269706E0,7.592429161E0,1.511561871E0,6.224011421E0,9.933182674E0
1.757675643E0,7.609187603E0,1.525926590E0,6.188099861E0,9.925762834E0
1.760081164E0,7.654675484E0,1.490015030E0,6.188099861E0,9.955238894E0
1.762486373E0,7.654675484E0,1.494803190E0,6.190494061E0,9.957444956E0
1.764891998E0,7.647493839E0,1.499591470E0,6.161765099E0,9.934801746E0
1.767297570E0,7.647493839E0,1.468468189E0,6.166553020E0,9.933123225E0
1.769703612E0,7.630734444E0,1.478044510E0,6.168947220E0,9.923136275E0
1.772109393E0,7.623552799E0,1.454103589E0,6.185705662E0,9.924511528E0
1.774515070E0,7.635523319E0,1.461285830E0,6.185705662E0,9.934763569E0
1.776921581E0,7.625946522E0,1.463679910E0,6.149794579E0,9.905422383E0
1.779327310E0,7.613976002E0,1.473256350E0,6.118670940E0,9.878322170E0
1.781732570E0,7.582852840E0,1.466073990E0,6.087547779E0,9.833985362E0
1.784138091E0,7.561306000E0,1.430162549E0,6.058818817E0,9.794283986E0
1.786543404E0,7.544547081E0,1.451709390E0,6.022907257E0,9.762328751E0
1.788949185E0,7.503847599E0,1.482832789E0,5.989389896E0,9.714901605E0
1.791354393E0,7.491877079E0,1.473256350E0,5.970236778E0,9.692390501E0
1.793759237E0,7.479906559E0,1.466073990E0,5.943902016E0,9.665833965E0
1.796164966E0,7.448782921E0,1.506773710E0,5.934325218E0,9.642144461E0
1.798570643E0,7.432024479E0,1.513956070E0,5.893625736E0,9.605304532E0
1.800976112E0,7.434418678E0,1.525926590E0,5.869684696E0,9.594385414E0
1.803381841E0,7.463147640E0,1.523532391E0,5.855320454E0,9.607523159E0
1.805787206E0,7.477512836E0,1.561838031E0,5.819408894E0,9.603023280E0
1.808192883E0,7.506241798E0,1.554655671E0,5.828985214E0,9.630040956E0
1.810598248E0,7.523000240E0,1.569020271E0,5.821803093E0,9.641096851E0
1.813003248E0,7.556517601E0,1.573808551E0,5.814620495E0,9.663728220E0
1.815409289E0,7.578064442E0,1.607325912E0,5.793073654E0,9.673172160E0
1.817815175E0,7.594823360E0,1.609719872E0,5.778708935E0,9.678120525E0
1.820220591E0,7.630734444E0,1.602537632E0,5.728432655E0,9.675286854E0
1.822626373E0,7.671434879E0,1.626478672E0,5.694915771E0,9.691667123E0
1.825031945E0,7.700163841E0,1.640843272E0,5.714068413E0,9.728076256E0
1.827437570E0,7.738469124E0,1.633660913E0,5.702097893E0,9.750213984E0
1.829842935E0,7.795927525E0,1.652813792E0,5.680551052E0,9.786569351E0
1.832247779E0,7.815080166E0,1.645631433E0,5.663792610E0,9.790920669E0
1.834653352E0,7.860568523E0,1.638449192E0,5.651822090E0,9.819172379E0
1.837058612E0,7.882114887E0,1.624084592E0,5.623092651E0,9.817563691E0
1.839463716E0,7.884509563E0,1.624084592E0,5.623092651E0,9.819486381E0
1.841869289E0,7.884509563E0,1.602537632E0,5.632668972E0,9.821434603E0
1.844274810E0,7.850991726E0,1.624084592E0,5.627881050E0,9.795344147E0
1.846680748E0,7.817474842E0,1.590567112E0,5.673368931E0,9.789276361E0
1.849086216E0,7.764804363E0,1.583384871E0,5.716462612E0,9.771245532E0
1.851491268E0,7.726498604E0,1.569020271E0,5.769133091E0,9.769519021E0
1.853896998E0,7.652281761E0,1.557049751E0,5.812226295E0,9.734669722E0
1.856302206E0,7.621158123E0,1.540291071E0,5.872078896E0,9.743503388E0
1.858707050E0,7.566093922E0,1.557049751E0,5.927143574E0,9.736591401E0
1.861112362E0,7.501453876E0,1.554655671E0,5.979813576E0,9.718381291E0
1.863518039E0,7.453571796E0,1.559443951E0,6.022907257E0,9.708913934E0
1.865924133E0,7.446389198E0,1.590567112E0,6.070789337E0,9.738228741E0
1.868329393E0,7.427236080E0,1.590567112E0,6.106700897E0,9.746052297E0
1.870734185E0,7.405689716E0,1.612114072E0,6.135429859E0,9.751238460E0
1.873139914E0,7.408083439E0,1.628872752E0,6.164158821E0,9.773933735E0
1.875545175E0,7.393719196E0,1.648025513E0,6.190494061E0,9.782907970E0
1.877949966E0,7.412871838E0,1.650419712E0,6.207252979E0,9.808391492E0
1.880355279E0,7.422448158E0,1.674360633E0,6.231194019E0,9.834835997E0
1.882760695E0,7.403295040E0,1.679148793E0,6.238375664E0,9.825764553E0
1.885166373E0,7.403295040E0,1.683937073E0,6.238375664E0,9.826583966E0
1.887571893E0,7.429630756E0,1.691119313E0,6.212040901E0,9.831009606E0
1.889976945E0,7.424842358E0,1.707877994E0,6.221617222E0,9.836343433E0
1.892382675E0,7.455965519E0,1.719848514E0,6.221617222E0,9.861938024E0
1.894788143E0,7.501453876E0,1.719848514E0,6.207252979E0,9.887349428E0
1.897193404E0,7.534970760E0,1.722242713E0,6.207252979E0,9.913218139E0
1.899599133E0,7.570882320E0,1.712666154E0,6.195282459E0,9.931415267E0
1.902004810E0,7.566093922E0,1.688725114E0,6.190494061E0,9.920674698E0
1.904410748E0,7.597217083E0,1.698301673E0,6.161765099E0,9.928206540E0
1.906816320E0,7.635523319E0,1.700695634E0,6.145006180E0,9.947596843E0
1.909221581E0,7.654675484E0,1.688725114E0,6.142611980E0,9.958791654E0
1.911627466E0,7.645099163E0,1.679148793E0,6.087547779E0,9.915912457E0
1.914032883E0,7.652281761E0,1.659996033E0,6.066000938E0,9.905017434E0
1.916438039E0,7.630734444E0,1.645631433E0,6.020513058E0,9.858133111E0
1.918843977E0,7.635523319E0,1.645631433E0,5.991784096E0,9.844328104E0
1.921250227E0,7.616370201E0,1.626478672E0,5.936719418E0,9.792811923E0
1.923656685E0,7.616370201E0,1.628872752E0,5.874473095E0,9.755601244E0
1.926062727E0,7.604399681E0,1.636054993E0,5.836167336E0,9.724423871E0
1.928468352E0,7.611582279E0,1.636054993E0,5.752373695E0,9.680013629E0
1.930874602E0,7.609187603E0,1.671966553E0,5.706886292E0,9.657316360E0
1.933280539E0,7.645099163E0,1.645631433E0,5.678156853E0,9.664217985E0
1.935685852E0,7.642704964E0,1.648025513E0,5.637457371E0,9.638871970E0
1.938091633E0,7.661858082E0,1.648025513E0,5.587181568E0,9.624793776E0
1.940497518E0,7.704951763E0,1.669572473E0,5.529722691E0,9.629724137E0
1.942903873E0,7.731287003E0,1.707877994E0,5.479446888E0,9.628810111E0
1.945309654E0,7.760015965E0,1.731819034E0,5.429171085E0,9.627717466E0
1.947714706E0,7.800715446E0,1.753365874E0,5.390864849E0,9.642970351E0
1.950120331E0,7.803109646E0,1.767730594E0,5.366923809E0,9.634171618E0
1.952525279E0,7.831839085E0,1.791671395E0,5.333406925E0,9.643288820E0
1.954930435E0,7.831839085E0,1.808430195E0,5.362135887E0,9.662330179E0
1.957336373E0,7.848598003E0,1.837159276E0,5.393259525E0,9.698602638E0
1.959741893E0,7.855780125E0,1.873070836E0,5.445929527E0,9.740627502E0
1.962147675E0,7.850991726E0,1.889829516E0,5.512964249E0,9.777642941E0
1.964553195E0,7.850991726E0,1.918558717E0,5.575211048E0,9.818447783E0
1.966958404E0,7.817474842E0,1.952076077E0,5.675762653E0,9.855850832E0
1.969364289E0,7.810292244E0,1.971228957E0,5.742797375E0,9.892731181E0
1.971769914E0,7.791139126E0,1.966440558E0,5.790679455E0,9.904580046E0
1.974175227E0,7.743257523E0,1.997563958E0,5.886443615E0,9.929678608E0
1.976580800E0,7.733681202E0,2.019110680E0,5.967843056E0,9.975058075E0
1.978986268E0,7.678616524E0,2.023898840E0,6.022907257E0,9.966580660E0
1.981392206E0,7.664252281E0,2.045445919E0,6.054030418E0,9.978772286E0
1.983797883E0,7.635523319E0,2.038263321E0,6.113883018E0,9.991761571E0
1.986203404E0,7.594823360E0,2.055022240E0,6.135429859E0,9.977372291E0
1.988609289E0,7.587641239E0,2.047839880E0,6.118670940E0,9.960124589E0
1.991014654E0,7.597217083E0,2.043051720E0,6.116276741E0,9.964969087E0
1.993419862E0,7.570882320E0,2.026293039E0,6.080365181E0,9.919423538E0
1.995825643E0,7.585246563E0,2.055022240E0,6.034877777E0,9.908523180E0
1.998231425E0,7.582852840E0,2.059810400E0,6.003754616E0,9.888758545E0
2.000637570E0,7.587641239E0,2.040657759E0,5.955872536E0,9.859462527E0
2.003043300E0,7.578064442E0,2.040657759E0,5.910384178E0,9.824662127E0
2.005448456E0,7.587641239E0,2.033475399E0,5.848137856E0,9.793264938E0
2.007854237E0,7.599611759E0,2.009534359E0,5.812226295E0,9.776211011E0
2.010259810E0,7.609187603E0,2.009534359E0,5.714068413E0,9.725664098E0
2.012664914E0,7.616370201E0,2.007140398E0,5.704492092E0,9.725170315E0
2.015070227E0,7.616370201E0,1.992775798E0,5.666186333E0,9.699789584E0
2.017475748E0,7.635523319E0,1.968834758E0,5.630274773E0,9.689041267E0
2.019881633E0,7.616370201E0,1.987987638E0,5.661398411E0,9.696010615E0
2.022286893E0,7.645099163E0,1.964046597E0,5.651822090E0,9.708146743E0
2.024691945E0,7.623552799E0,1.961652637E0,5.639851570E0,9.683726766E0
2.027097831E0,7.625946522E0,1.964046597E0,5.627881050E0,9.679131392E0
2.029503352E0,7.616370201E0,1.956864238E0,5.625486851E0,9.668739059E0
2.031908560E0,7.587641239E0,1.961652637E0,5.620698452E0,9.644305663E0
2.034313925E0,7.590034962E0,1.959258437E0,5.656610012E0,9.666672704E0
2.036719654E0,7.623552799E0,1.966440558E0,5.673368931E0,9.704254777E0
2.039125956E0,7.609187603E0,1.973622918E0,5.651822090E0,9.681839512E0
2.041531477E0,7.613976002E0,1.976017118E0,5.659004211E0,9.690283942E0
2.043936477E0,7.642704964E0,1.983199477E0,5.661398411E0,9.715732154E0
2.046342466E0,7.673828602E0,2.004746199E0,5.642245293E0,9.733528891E0
2.048748404E0,7.716922283E0,2.004746199E0,5.630274773E0,9.760629634E0
2.051154029E0,7.700163841E0,2.011928320E0,5.589575291E0,9.725416735E0
2.053559706E0,7.736074924E0,2.014322519E0,5.584786892E0,9.751625253E0
2.055965018E0,7.707345963E0,2.035869360E0,5.524934769E0,9.699115941E0
2.058370956E0,7.702557564E0,2.045445919E0,5.453111649E0,9.656586803E0
2.060776581E0,7.688193321E0,2.028687239E0,5.398047447E0,9.610556940E0
2.063181737E0,7.657069683E0,2.011928320E0,5.398047447E0,9.582144224E0
2.065587675E0,7.582852840E0,2.009534359E0,5.383682728E0,9.514301091E0
2.067993352E0,7.523000240E0,2.004746199E0,5.352559566E0,9.447985703E0
2.070398716E0,7.479906559E0,2.016716719E0,5.338194847E0,9.408106753E0
2.072804341E0,7.443994999E0,2.038263321E0,5.326224327E0,9.377432724E0
2.075209914E0,7.381748676E0,1.983199477E0,5.321436405E0,9.313483725E0
2.077615956E0,7.364989758E0,1.999958158E0,5.340589046E0,9.314762376E0
2.080021633E0,7.341048717E0,2.009534359E0,5.364530087E0,9.311681248E0
2.082426789E0,7.307531834E0,2.014322519E0,5.371712208E0,9.290468705E0
2.084832623E0,7.312319756E0,2.019110680E0,5.395653248E0,9.309130041E0
2.087238143E0,7.314713478E0,2.016716719E0,5.402835369E0,9.314655636E0
2.089643404E0,7.326683998E0,2.016716719E0,5.383682728E0,9.312973985E0
2.092048716E0,7.350625038E0,2.050233841E0,5.366923809E0,9.329470426E0
2.094454289E0,7.391324520E0,2.050233841E0,5.359741688E0,9.357455206E0
2.096860748E0,7.439206600E0,2.035869360E0,5.335800648E0,9.378556789E0
2.099266841E0,7.472723961E0,2.050233841E0,5.314253807E0,9.396081935E0
2.101672050E0,7.508635521E0,2.071780920E0,5.345377445E0,9.446954197E0
2.104077831E0,7.594823360E0,2.090933561E0,5.338194847E0,9.515758995E0
2.106483300E0,7.673828602E0,2.081357479E0,5.374106407E0,9.596911693E0
2.108888248E0,7.726498604E0,2.098115921E0,5.395653248E0,9.654736924E0
2.111293716E0,7.803109646E0,2.074174881E0,5.431564808E0,9.731013197E0
2.113699706E0,7.858173847E0,2.076569080E0,5.438746929E0,9.779724102E0
2.116106008E0,7.860568523E0,2.074174881E0,5.453111649E0,9.789135079E0
2.118511789E0,7.889297962E0,2.064598560E0,5.460293770E0,9.814193681E0
2.120917518E0,7.927603245E0,2.059810400E0,5.479446888E0,9.854646127E0
2.123323925E0,7.941967487E0,2.050233841E0,5.448323250E0,9.846955499E0
2.125729758E0,7.910844326E0,2.028687239E0,5.529722691E0,9.862801980E0
2.128135175E0,7.913239002E0,1.992775798E0,5.055691242E0,9.599506280E0
2.130541216E0,7.872539043E0,1.987987638E0,5.852926254E0,1.000928127E1
2.132947466E0,7.853386402E0,1.997563958E0,5.170608044E0,9.612550509E0
2.135353560E0,7.774380684E0,1.954470277E0,5.517752171E0,9.731728423E0
2.137758873E0,7.724104881E0,1.971228957E0,5.532116890E0,9.703187987E0
2.140163664E0,7.724104881E0,1.952076077E0,5.194549084E0,9.510822121E0
2.142569498E0,7.635523319E0,1.952076077E0,5.828985214E0,9.802493866E0
2.144974914E0,7.647493839E0,1.952076077E0,5.204125404E0,9.453977166E0
2.147379706E0,7.587641239E0,1.949682117E0,5.690127373E0,9.682515657E0
2.149785018E0,7.597217083E0,1.952076077E0,5.577604771E0,9.624862773E0
2.152190435E0,7.578064442E0,1.985593438E0,5.347771168E0,9.485162015E0
2.154596164E0,7.549335480E0,1.964046597E0,5.881655216E0,9.769534958E0
2.157001425E0,7.587641239E0,2.002351999E0,5.261583805E0,9.448067381E0
2.159406216E0,7.549335480E0,1.983199477E0,5.778708935E0,9.711798150E0
2.161811633E0,7.570882320E0,2.035869360E0,5.568028450E0,9.615922420E0
2.164216737E0,7.575670719E0,2.040657759E0,5.402835369E0,9.526053798E0
2.166621633E0,7.558911800E0,2.064598560E0,5.852926254E0,9.780412085E0
2.169027050E0,7.585246563E0,2.066992760E0,5.225672245E0,9.440131085E0
2.171432623E0,7.546941280E0,2.059810400E0,5.788285255E0,9.731566563E0
2.173838248E0,7.568488121E0,2.105298281E0,5.465082169E0,9.569817992E0
2.176243404E0,7.558911800E0,2.110086441E0,5.441141605E0,9.549640536E0
2.178648352E0,7.558911800E0,2.090933561E0,5.864896774E0,9.793169300E0
2.181054185E0,7.570882320E0,2.117268562E0,5.304677486E0,9.483706475E0
2.183459550E0,7.530182838E0,2.114874601E0,5.891232014E0,9.791984620E0
2.185864706E0,7.549335480E0,2.131633520E0,5.503387928E0,9.582463479E0
2.188270175E0,7.539759159E0,2.126845121E0,5.570422173E0,9.612546048E0
2.190675591E0,7.539759159E0,2.122056961E0,5.838561535E0,9.769334405E0
2.193081425E0,7.558911800E0,2.138815641E0,5.259190083E0,9.453610965E0
2.195486841E0,7.539759159E0,2.148392200E0,5.900808334E0,9.812395030E0
2.197891737E0,7.585246563E0,2.141209602E0,5.393259525E0,9.550287550E0
2.200297414E0,7.582852840E0,2.129239082E0,5.527328968E0,9.622093420E0
2.202702727E0,7.578064442E0,2.145998001E0,5.685339451E0,9.713673495E0
2.205107987E0,7.582852840E0,2.162756681E0,5.103573322E0,9.392743706E0
2.207513560E0,7.525394440E0,2.112480640E0,5.690127373E0,9.668075581E0
2.209919029E0,7.527788639E0,2.145998001E0,5.084420204E0,9.334036535E0
2.212325123E0,7.496665001E0,2.107692480E0,5.326224327E0,9.434565136E0
2.214730695E0,7.491877079E0,2.119663000E0,5.414805889E0,9.483739569E0
2.217135748E0,7.487088680E0,2.126845121E0,4.988656521E0,9.244818060E0
2.219541477E0,7.494271278E0,2.102904081E0,5.642245293E0,9.613596596E0
2.221946789E0,7.518212318E0,2.129239082E0,5.098784924E0,9.330315280E0
2.224351789E0,7.518212318E0,2.110086441E0,5.534511089E0,9.571143832E0
2.226757258E0,7.573276043E0,2.134027481E0,5.596757412E0,9.655686244E0
2.229162987E0,7.597217083E0,2.129239082E0,5.376500607E0,9.547676432E0
2.231568820E0,7.618763924E0,2.134027481E0,5.589575291E0,9.687259104E0
2.233974133E0,7.649887562E0,2.165150642E0,5.591969490E0,9.720019537E0
2.236379133E0,7.707345963E0,2.191485882E0,5.635063171E0,9.795903690E0
2.238784862E0,7.731287003E0,2.208244324E0,5.627881050E0,9.814386727E0
2.241190331E0,7.783957005E0,2.222609282E0,5.620698452E0,9.855061124E0
2.243595279E0,7.827050686E0,2.268096924E0,5.603940010E0,9.889950947E0
2.246000800E0,7.862962246E0,2.268096924E0,5.572816372E0,9.900844472E0
2.248406477E0,7.894085407E0,2.308796644E0,5.517752171E0,9.904176663E0
2.250812414E0,7.894085407E0,2.327949524E0,5.508175850E0,9.903329470E0
2.253217935E0,7.915632725E0,2.356678724E0,5.491417408E0,9.918005908E0
2.255622831E0,7.920421124E0,2.387801886E0,5.489023209E0,9.927942607E0
2.258028352E0,7.918026447E0,2.399772406E0,5.510570049E0,9.940846679E0
2.260433508E0,7.901268482E0,2.406954765E0,5.484234810E0,9.914651094E0
2.262838195E0,7.896480083E0,2.414136887E0,5.508175850E0,9.925847864E0
2.265243508E0,7.882114887E0,2.433290005E0,5.498599529E0,9.913789998E0
2.267649185E0,7.858173847E0,2.442866087E0,5.484234810E0,9.889151752E0
2.270055175E0,7.834232807E0,2.462018967E0,5.472264290E0,9.868253013E0
2.272460904E0,7.824656487E0,2.450048447E0,5.477052689E0,9.860329238E0
2.274866529E0,7.776774883E0,2.476383686E0,5.508175850E0,9.846354906E0
2.277272518E0,7.724104881E0,2.466807127E0,5.500993729E0,9.798360354E0
2.279678248E0,7.704951763E0,2.462018967E0,5.524934769E0,9.795546093E0
2.282083352E0,7.676222801E0,2.478777647E0,5.551270008E0,9.792105689E0
2.284488873E0,7.661858082E0,2.462018967E0,5.589575291E0,9.798416127E0
2.286894498E0,7.640311241E0,2.478777647E0,5.594363213E0,9.788544031E0
2.289300279E0,7.640311241E0,2.493142128E0,5.649427891E0,9.823754324E0
2.291705956E0,7.637917042E0,2.497930527E0,5.651822090E0,9.824486073E0
2.294111268E0,7.664252281E0,2.497930527E0,5.678156853E0,9.860115881E0
2.296516945E0,7.678616524E0,2.509900808E0,5.704492092E0,9.889488552E0
2.298922102E0,7.714528084E0,2.517083168E0,5.706886292E0,9.920594860E0
2.301327154E0,7.738469124E0,2.526659727E0,5.721251011E0,9.949905873E0
2.303732570E0,7.776774883E0,2.533841848E0,5.704492092E0,9.971951270E0
2.306137831E0,7.798321724E0,2.543418407E0,5.709280491E0,9.993932291E0
2.308543664E0,7.831839085E0,2.545812368E0,5.742797375E0,1.003984989E1
2.310949081E0,7.865356922E0,2.557782888E0,5.747585773E0,1.007178410E1
2.313353977E0,7.872539043E0,2.569753408E0,5.761950493E0,1.008863604E1
2.315759602E0,7.877327442E0,2.562571287E0,5.766738415E0,1.009328149E1
2.318164862E0,7.910844326E0,2.612847090E0,5.785891533E0,1.014322280E1
2.320569914E0,7.922814846E0,2.617635489E0,5.802649975E0,1.016335365E1
2.322975435E0,7.918026447E0,2.629606009E0,5.805044174E0,1.016407932E1
2.325381112E0,7.944361210E0,2.663123131E0,5.824196815E0,1.020423287E1
2.327787050E0,7.970696926E0,2.696640730E0,5.812226295E0,1.022672260E1
2.330192362E0,7.977879047E0,2.706217289E0,5.807438374E0,1.023213109E1
2.332597414E0,7.994637966E0,2.749310970E0,5.790679455E0,1.024719062E1
2.335003404E0,8.004213333E0,2.770857573E0,5.752373695E0,1.023889085E1
2.337409029E0,7.994637966E0,2.799587011E0,5.738009453E0,1.023116201E1
2.339814081E0,8.009001732E0,2.833104372E0,5.721251011E0,1.024223131E1
2.342219602E0,8.025760651E0,2.852257252E0,5.716462612E0,1.025797983E1
2.344625383E0,8.025760651E0,2.888168573E0,5.649427891E0,1.023085467E1
2.347031425E0,8.035337448E0,2.936050653E0,5.594363213E0,1.022173865E1
2.349436633E0,8.054490089E0,2.948021173E0,5.541693211E0,1.021156223E1
2.351841529E0,8.047307968E0,2.995903015E0,5.517752171E0,1.020686972E1
2.354247310E0,8.059278488E0,3.015055895E0,5.469870567E0,1.019617653E1
2.356652570E0,8.052095413E0,3.065331936E0,5.465082169E0,1.020292230E1
2.359057518E0,8.052095413E0,3.110819578E0,5.443535328E0,1.020517104E1
2.361462935E0,8.071249008E0,3.151519537E0,5.460293770E0,1.024167682E1
2.363868508E0,8.088006973E0,3.170672178E0,5.436352730E0,1.024807054E1
2.366274550E0,8.116736412E0,3.240101099E0,5.465082169E0,1.030760827E1
2.368680331E0,8.099977493E0,3.252071619E0,5.467476368E0,1.029946130E1
2.371085852E0,8.126312256E0,3.311924219E0,5.489023209E0,1.035061200E1
2.373491841E0,8.135889053E0,3.352623701E0,5.534511089E0,1.039536384E1
2.375897310E0,8.159830093E0,3.369382381E0,5.589575291E0,1.044887155E1
2.378302414E0,8.176589012E0,3.398111582E0,5.632668972E0,1.049431894E1
2.380707675E0,8.195741653E0,3.429234982E0,5.666186333E0,1.053733844E1
2.383112727E0,8.226864815E0,3.441205502E0,5.704492092E0,1.058604884E1
2.385517935E0,8.248412132E0,3.460358143E0,5.728432655E0,1.062192647E1
2.387922935E0,8.303475380E0,3.491481543E0,5.714068413E0,1.066717979E1
2.390327935E0,8.315446854E0,3.513028383E0,5.771526814E0,1.071440836E1
2.392733820E0,8.322628975E0,3.536969423E0,5.773921013E0,1.072914114E1
2.395139341E0,8.368116379E0,3.544151783E0,5.773921013E0,1.076682625E1
2.397544237E0,8.372904778E0,3.553727865E0,5.785891533E0,1.078012324E1
2.399949654E0,8.387269974E0,3.560910463E0,5.797862053E0,1.080007339E1
2.402355383E0,8.399239540E0,3.570486784E0,5.836167336E0,1.083311820E1
2.404761425E0,8.447121620E0,3.584851503E0,5.805044174E0,1.085834066E1
2.407166841E0,8.461486816E0,3.596822023E0,5.824196815E0,1.088371060E1
2.409571633E0,8.518944740E0,3.615974665E0,5.824196815E0,1.093475929E1
2.411977310E0,8.533309937E0,3.649492025E0,5.826591015E0,1.095834538E1
2.414382883E0,8.562038422E0,3.649492025E0,5.836167336E0,1.098581554E1
2.416787831E0,8.602738380E0,3.668644667E0,5.833773613E0,1.102265739E1
2.419193195E0,8.612314224E0,3.675827265E0,5.840955734E0,1.103632304E1
2.421599029E0,8.650620461E0,3.704556227E0,5.845743656E0,1.107834329E1
2.424005383E0,8.684137344E0,3.730891466E0,5.864896774E0,1.112343502E1
2.426411112E0,8.703290939E0,3.747649908E0,5.900808334E0,1.116296072E1
2.428816164E0,8.700896263E0,3.764408588E0,5.888837814E0,1.116041122E1
2.431222206E0,8.698502541E0,3.797926188E0,5.915173054E0,1.118380356E1
2.433627779E0,8.710473061E0,3.821867228E0,5.943902016E0,1.121646028E1
2.436032831E0,8.679349899E0,3.843413830E0,5.955872536E0,1.120604133E1
2.438438300E0,8.686532021E0,3.867354870E0,5.951084614E0,1.121729381E1
2.440844029E0,8.705684662E0,3.900872469E0,5.965448856E0,1.125132577E1
2.443250018E0,8.705684662E0,3.924813509E0,5.998966217E0,1.127744218E1
2.445655591E0,8.696108818E0,3.939177752E0,5.994177818E0,1.127251514E1
2.448060643E0,8.715260506E0,3.955936670E0,5.975025177E0,1.128300166E1
2.450466581E0,8.717654228E0,3.965512991E0,5.958266258E0,1.127934951E1
2.452872362E0,8.724837303E0,3.989454031E0,5.919960976E0,1.127317468E1
2.455277675E0,8.739201546E0,4.006212711E0,5.886443615E0,1.127269277E1
2.457683560E0,8.767931938E0,4.020577431E0,5.879261494E0,1.129634406E1
2.460089602E0,8.813418388E0,4.042124271E0,5.852926254E0,1.132571667E1
2.462496164E0,8.818207741E0,4.066065311E0,5.886443615E0,1.135534646E1
2.464901893E0,8.849330902E0,4.092400551E0,5.888837814E0,1.139020678E1
2.467306789E0,8.878059387E0,4.090006351E0,5.912778854E0,1.142405551E1
2.469712727E0,8.885241508E0,4.101976871E0,5.912778854E0,1.143392692E1
2.472118300E0,8.890030861E0,4.116341591E0,5.884049416E0,1.142798995E1
2.474523560E0,8.882847786E0,4.099582672E0,5.855320454E0,1.140159377E1
2.476929393E0,8.882847786E0,4.101976871E0,5.824196815E0,1.138650375E1
2.479335383E0,8.873271942E0,4.106765270E0,5.828985214E0,1.138321328E1
2.481741737E0,8.866089821E0,4.116341591E0,5.812226295E0,1.137250154E1
2.484147310E0,8.854118347E0,4.094794750E0,5.793073654E0,1.134559201E1
2.486552466E0,8.849330902E0,4.099582672E0,5.800255775E0,1.134725529E1
2.488958456E0,8.822996140E0,4.123523712E0,5.754767895E0,1.131220855E1
2.491363925E0,8.811024666E0,4.118735790E0,5.742797375E0,1.129503705E1
2.493768873E0,8.818207741E0,4.135494232E0,5.718856812E0,1.129461923E1
2.496174498E0,8.820601463E0,4.142676830E0,5.709280491E0,1.129427577E1
2.498580695E0,8.820601463E0,4.178588390E0,5.630274773E0,1.126781279E1
2.500986998E0,8.820601463E0,4.197740555E0,5.613516331E0,1.126657009E1
2.503392675E0,8.834965706E0,4.236046791E0,5.575211048E0,1.127314019E1
2.505797987E0,8.875665665E0,4.248016834E0,5.520146370E0,1.128251319E1
2.508203664E0,8.885241508E0,4.283928394E0,5.486629009E0,1.128727855E1
2.510609029E0,8.870877266E0,4.317445755E0,5.489023209E0,1.128991484E1
2.513014237E0,8.906788826E0,4.386874676E0,5.481841087E0,1.134134641E1
2.515419810E0,8.902000427E0,4.432362556E0,5.443535328E0,1.133682170E1
2.517825383E0,8.909182549E0,4.470668316E0,5.457900047E0,1.136437776E1
2.520231425E0,8.885241508E0,4.532914639E0,5.443535328E0,1.136340216E1
2.522636998E0,8.887635231E0,4.568826199E0,5.400441170E0,1.135909317E1
2.525042102E0,8.878059387E0,4.638255119E0,5.431564808E0,1.139452699E1
2.527448091E0,8.856513023E0,4.690925121E0,5.508175850E0,1.143602215E1
2.529853560E0,8.839754105E0,4.745989799E0,5.582392693E0,1.148167148E1
2.532258664E0,8.842148781E0,4.805842400E0,5.670974731E0,1.155160901E1
2.534664185E0,8.851724625E0,4.865694046E0,5.723644733E0,1.160982844E1
2.537069862E0,8.825389862E0,4.913576126E0,5.800255775E0,1.164790555E1
2.539476320E0,8.827783585E0,4.961458206E0,5.869684696E0,1.170465843E1
2.541881998E0,8.830177307E0,4.994975567E0,5.924749374E0,1.174838148E1
2.544287154E0,8.849330902E0,5.045251846E0,5.982207298E0,1.181321412E1
2.546693248E0,8.827783585E0,5.062010765E0,6.020513058E0,1.182371741E1
2.549098925E0,8.815813065E0,5.121863365E0,6.056424141E0,1.185884976E1
2.551504393E0,8.801448822E0,5.124257088E0,6.070789337E0,1.185655917E1
2.553910383E0,8.806236267E0,5.143409729E0,6.101912498E0,1.188435093E1
2.556316268E0,8.796660423E0,5.164956570E0,6.087547779E0,1.187923604E1
2.558722570E0,8.770325661E0,5.188897610E0,5.998966217E0,1.182501020E1
2.561128612E0,8.755960464E0,5.193686008E0,5.934325218E0,1.178377842E1
2.563534081E0,8.732019424E0,5.193686008E0,5.852926254E0,1.172515600E1
2.565940175E0,8.698502541E0,5.184109688E0,5.788285255E0,1.166375522E1
2.568346060E0,8.669773102E0,5.172139168E0,5.711674213E0,1.159910391E1
2.570751320E0,8.633861542E0,5.174533367E0,5.639851570E0,1.153807984E1
2.573157206E0,8.583585739E0,5.169744968E0,5.582392693E0,1.147027965E1
2.575563456E0,8.542885780E0,5.155380249E0,5.503387928E0,1.139500424E1
2.577970123E0,8.509368896E0,5.169744968E0,5.472264290E0,1.136139510E1
2.580376112E0,8.463880539E0,5.172139168E0,5.460293770E0,1.132268102E1
2.582781581E0,8.442333221E0,5.186503887E0,5.417200565E0,1.129242555E1
2.585187623E0,8.380087852E0,5.193686008E0,5.345377445E0,1.121486990E1
2.587593300E0,8.360934258E0,5.172139168E0,5.297495365E0,1.116779756E1
2.589998664E0,8.310658455E0,5.210444450E0,5.218489647E0,1.111073398E1
2.592404185E0,8.257987976E0,5.220021248E0,5.127514362E0,1.103333090E1
2.594809498E0,8.214894295E0,5.236779690E0,5.077238560E0,1.098574991E1
2.597215331E0,8.202923775E0,5.255932808E0,5.041327000E0,1.096940135E1
2.599620748E0,8.138282776E0,5.279873848E0,5.022173882E0,1.092387042E1
2.602025695E0,8.133495331E0,5.291844368E0,5.010203362E0,1.092059984E1
2.604431477E0,8.114341736E0,5.332543850E0,5.003020763E0,1.092285597E1
2.606837050E0,8.083219528E0,5.375637531E0,4.998232841E0,1.091871093E1
2.609242310E0,8.078431129E0,5.387607574E0,5.012597561E0,1.092764838E1
2.611647987E0,8.066460609E0,5.416337013E0,5.014991283E0,1.093410403E1
2.614053248E0,8.047307968E0,5.428307533E0,5.026961803E0,1.093142412E1
2.616458768E0,8.004213333E0,5.454642773E0,5.017385960E0,1.090847014E1
2.618863977E0,7.968302250E0,5.459430695E0,5.029356480E0,1.089007121E1
2.621268977E0,7.937180042E0,5.473795891E0,4.943168640E0,1.083495199E1
2.623674966E0,7.896480083E0,5.449854851E0,4.852192879E0,1.075170179E1
2.626080383E0,7.879721165E0,5.440278053E0,4.756428719E0,1.069159694E1
2.628485279E0,7.812685966E0,5.428307533E0,4.636723995E0,1.058318450E1
2.630890643E0,7.774380684E0,5.437884331E0,4.581659794E0,1.053580502E1
2.633296320E0,7.688193321E0,5.421124935E0,4.545748234E0,1.044800168E1
2.635702310E0,7.659464359E0,5.413943291E0,4.493077755E0,1.040028480E1
2.638107727E0,7.611582279E0,5.394790173E0,4.418860912E0,1.032309438E1
2.640512779E0,7.573276043E0,5.387607574E0,4.402102470E0,1.028393561E1
2.642918716E0,7.515818119E0,5.397184372E0,4.363796711E0,1.023033933E1
2.645324133E0,7.494271278E0,5.390002251E0,4.325491428E0,1.019441525E1
2.647728820E0,7.451177120E0,5.392395973E0,4.303944588E0,1.015489605E1
2.650134081E0,7.446389198E0,5.413943291E0,4.268033028E0,1.014768939E1
2.652539602E0,7.439206600E0,5.445065975E0,4.232121468E0,1.014403226E1
2.654945227E0,7.432024479E0,5.469007015E0,4.205786228E0,1.014069344E1
2.657350487E0,7.446389198E0,5.500130653E0,4.186633587E0,1.016012057E1
2.659755487E0,7.448782921E0,5.528859615E0,4.157904148E0,1.016566882E1
2.662161008E0,7.458359718E0,5.555194855E0,4.155510426E0,1.018604862E1
2.664565956E0,7.467936039E0,5.600682735E0,4.177056789E0,1.022670618E1
2.666970643E0,7.427236080E0,5.641382217E0,4.179451466E0,1.022041309E1
2.669375852E0,7.398507118E0,5.660535336E0,4.189027309E0,1.021408428E1
2.671780904E0,7.338654518E0,5.662929058E0,4.241697788E0,1.019394996E1
2.674186320E0,7.307531834E0,5.689264297E0,4.256062508E0,1.019224302E1
2.676591425E0,7.285984516E0,5.715599537E0,4.296761990E0,1.020861460E1
2.678996008E0,7.230920315E0,5.729964256E0,4.311126232E0,1.018354105E1
2.681401320E0,7.192614555E0,5.720387459E0,4.378161430E0,1.017962840E1
2.683806425E0,7.132761955E0,5.722781658E0,4.373373508E0,1.013671144E1
2.686211477E0,7.096850872E0,5.720387459E0,4.361402988E0,1.010494735E1
2.688616841E0,7.065727711E0,5.722781658E0,4.366190910E0,1.008654356E1
2.691021998E0,7.032210350E0,5.696446896E0,4.337461948E0,1.003568960E1
2.693427518E0,6.974751472E0,5.655746937E0,4.311126232E0,9.960945784E0
2.695832570E0,6.902928829E0,5.650958538E0,4.301550388E0,9.903892899E0
2.698237102E0,6.859835148E0,5.600682735E0,4.327885151E0,9.856752774E0
2.700642310E0,6.761677265E0,5.543224335E0,4.323096752E0,9.753808538E0
2.703047258E0,6.680277824E0,5.485765934E0,4.330279350E0,9.668043181E0
2.705451998E0,6.625213146E0,5.440278053E0,4.320703030E0,9.599924437E0
2.707857050E0,6.553390026E0,5.392395973E0,4.284791470E0,9.507065431E0
2.710262362E0,6.481567383E0,5.325361252E0,4.294367790E0,9.424000367E0
2.712667987E0,6.428897381E0,5.282267570E0,4.277609348E0,9.355801086E0
2.715072987E0,6.388197422E0,5.243962288E0,4.275214672E0,9.305141980E0
2.717477675E0,6.373833179E0,5.217626572E0,4.208180428E0,9.249765346E0
2.719883195E0,6.352286339E0,5.176927090E0,4.162692547E0,9.191307038E0
2.722288352E0,6.366650581E0,5.143409729E0,4.121993065E0,9.164045509E0
2.724693039E0,6.364256859E0,5.150592327E0,4.081293106E0,9.148186711E0
2.727098300E0,6.354680061E0,5.131439209E0,4.086081505E0,9.132890512E0
2.729503873E0,6.345103741E0,5.138621807E0,4.078898907E0,9.127058225E0
2.731909706E0,6.321162701E0,5.105103970E0,4.045381546E0,9.076579547E0
2.734314914E0,6.280463219E0,5.129045010E0,4.078898907E0,9.076824183E0
2.736719550E0,6.203852177E0,5.155380249E0,4.064534187E0,9.032506048E0
2.739124966E0,6.163152218E0,5.152986050E0,4.095657825E0,9.017323523E0
2.741530227E0,6.086541176E0,5.176927090E0,4.141145229E0,8.999757852E0
2.743935227E0,6.026688576E0,5.198473930E0,4.179451466E0,8.989600711E0
2.746340383E0,5.976412773E0,5.229597092E0,4.234515190E0,8.999850792E0
2.748745383E0,5.895013332E0,5.248750210E0,4.272820950E0,8.975386333E0
2.751151060E0,5.885436535E0,5.291844368E0,4.325491428E0,9.019526380E0
2.753556373E0,5.861495495E0,5.322967052E0,4.327885151E0,9.023397229E0
2.755961164E0,5.823190212E0,5.366061211E0,4.356614590E0,9.037933826E0
2.758366633E0,5.801643372E0,5.406760693E0,4.387737751E0,9.063353109E0
2.760771789E0,5.768126011E0,5.430701733E0,4.406890392E0,9.065565725E0
2.763176581E0,5.744184971E0,5.461825371E0,4.442801952E0,9.086566268E0
2.765581789E0,5.701091290E0,5.478583813E0,4.438014030E0,9.067154516E0
2.767987206E0,5.672362328E0,5.504918575E0,4.447590351E0,9.069778543E0
2.770393091E0,5.624480247E0,5.519283295E0,4.449984550E0,9.049841360E0
2.772798404E0,5.547868729E0,5.531253815E0,4.435619831E0,9.002685126E0
2.775202935E0,5.502381325E0,5.557589054E0,4.390131950E0,8.968626142E0
2.777608404E0,5.428164005E0,5.562376976E0,4.356614590E0,8.909831243E0
2.780013612E0,5.373099804E0,5.622229576E0,4.349432468E0,8.910512314E0
2.782417987E0,5.296488762E0,5.603076458E0,4.351826191E0,8.853567089E0
2.784822935E0,5.251000881E0,5.622229576E0,4.337461948E0,8.831537342E0
2.787228248E0,5.171995163E0,5.615046978E0,4.359008312E0,8.790861164E0
2.789634029E0,5.088202000E0,5.634200096E0,4.342249870E0,8.745807238E0
2.792039445E0,5.016379356E0,5.634200096E0,4.342249870E0,8.704217742E0
2.794444602E0,4.930191040E0,5.641382217E0,4.361402988E0,8.669129890E0
2.796850435E0,4.853579998E0,5.638988018E0,4.356614590E0,8.621804646E0
2.799255956E0,4.753028393E0,5.667717457E0,4.414072990E0,8.613845856E0
2.801661060E0,4.647687435E0,5.672505856E0,4.449984550E0,8.577918377E0
2.804066477E0,4.585441113E0,5.667717457E0,4.483501911E0,8.558684522E0
2.806471998E0,4.525588512E0,5.696446896E0,4.497866154E0,8.553435483E0
2.808877987E0,4.463342190E0,5.715599537E0,4.507442951E0,8.538532867E0
2.811283612E0,4.393913269E0,5.737146378E0,4.452378273E0,8.487932296E0
2.813688768E0,4.338849068E0,5.758693218E0,4.478713512E0,8.488052400E0
2.816094706E0,4.300543785E0,5.775451660E0,4.430831432E0,8.454749311E0
2.818499966E0,4.259843826E0,5.794604778E0,4.359008312E0,8.409795921E0
2.820904706E0,4.262237549E0,5.840092659E0,4.332673550E0,8.428844006E0
2.823310175E0,4.250267029E0,5.876004219E0,4.303944588E0,8.433038267E0
2.825715904E0,4.252661705E0,5.902338982E0,4.260850430E0,8.430752245E0
2.828122206E0,4.276602745E0,5.945433140E0,4.191421986E0,8.438336597E0
2.830528039E0,4.302937508E0,5.959797859E0,4.150722027E0,8.441738865E0
2.832933195E0,4.319695950E0,6.002891064E0,4.117204189E0,8.464386839E0
2.835339289E0,4.338849068E0,6.000497341E0,4.057352066E0,8.443558809E0
2.837745227E0,4.317302227E0,6.024438381E0,3.997499466E0,8.420983215E0
2.840150852E0,4.312514305E0,6.026832104E0,3.911312103E0,8.379668681E0
2.842556841E0,4.267025948E0,6.053167343E0,3.839489460E0,8.342063572E0
2.844962466E0,4.240691185E0,6.065137863E0,3.798789501E0,8.318663396E0
2.847368612E0,4.202384949E0,6.081896782E0,3.786818981E0,8.305992157E0
2.849774445E0,4.137744427E0,6.077108383E0,3.805971622E0,8.278743578E0
2.852179654E0,4.082680702E0,6.081896782E0,3.815548420E0,8.259307473E0
2.854585800E0,4.008463383E0,6.108231544E0,3.861036301E0,8.263526645E0
2.856991477E0,3.955793142E0,6.113019466E0,3.911312103E0,8.265329319E0
2.859396633E0,3.900728464E0,6.136960506E0,3.952012062E0,8.276253147E0
2.861802414E0,3.852846861E0,6.134566784E0,4.026228905E0,8.287813810E0
2.864208091E0,3.850452662E0,6.170478344E0,4.054958344E0,8.327273015E0
2.866614341E0,3.838482141E0,6.192025185E0,4.098052025E0,8.358776910E0
2.869020331E0,3.840876341E0,6.223148346E0,4.095657825E0,8.381784978E0
2.871425487E0,3.848058462E0,6.237513065E0,4.131569386E0,8.413322100E0
2.873831373E0,3.876787901E0,6.259059429E0,4.124386787E0,8.438949919E0
2.876236893E0,3.941428423E0,6.271029949E0,4.148327827E0,8.489363840E0
2.878641737E0,3.960581064E0,6.290183067E0,4.138751507E0,8.507753489E0
2.881046998E0,3.967763186E0,6.306941509E0,4.129174709E0,8.518846147E0
2.883452518E0,3.951004744E0,6.323700428E0,4.136357307E0,8.526961790E0
2.885858300E0,3.915093184E0,6.302153587E0,4.186633587E0,8.518978534E0
2.888263612E0,3.862423182E0,6.321306705E0,4.239303589E0,8.535158242E0
2.890668300E0,3.809752941E0,6.318912029E0,4.315915108E0,8.548098614E0
2.893073873E0,3.713989019E0,6.333277225E0,4.390131950E0,8.554377440E0
2.895479341E0,3.599072218E0,6.340459347E0,4.473925591E0,8.553990633E0
2.897884602E0,3.496125937E0,6.366794109E0,4.557718754E0,8.575066416E0
2.900290070E0,3.393179655E0,6.381158829E0,4.667847157E0,8.603583744E0
2.902695123E0,3.283051252E0,6.388340950E0,4.766005516E0,8.619984582E0
2.905100852E0,3.192075491E0,6.405099869E0,4.866557598E0,8.654364975E0
2.907506529E0,3.110676050E0,6.441010952E0,4.976686001E0,8.713801187E0
2.909911789E0,3.055611849E0,6.445799828E0,5.012597561E0,8.718442148E0
2.912317831E0,2.993365049E0,6.474528790E0,5.055691242E0,8.742984119E0
2.914723352E0,2.945483208E0,6.498469830E0,5.065268040E0,8.750024101E0
2.917128612E0,2.938300848E0,6.543957710E0,5.062873363E0,8.780072954E0
2.919534237E0,2.890419006E0,6.584657192E0,5.055691242E0,8.790463373E0
2.921939966E0,2.871266127E0,6.613386631E0,5.036538601E0,8.794758267E0
2.924345956E0,2.868872166E0,6.622962475E0,4.986262321E0,8.772506562E0
2.926751425E0,2.856901646E0,6.632539272E0,4.947957039E0,8.754127202E0
2.929156789E0,2.835354567E0,6.649298191E0,4.888104439E0,8.726165650E0
2.931563039E0,2.825778484E0,6.675632954E0,4.840222359E0,8.716470149E0
2.933968612E0,2.820990086E0,6.699573994E0,4.785157681E0,8.702873709E0
2.936373664E0,2.813807964E0,6.725909233E0,4.725306034E0,8.688146372E0
2.938779185E0,2.785078764E0,6.735485554E0,4.710940838E0,8.678501768E0
2.941184550E0,2.756349325E0,6.740273476E0,4.679817677E0,8.656179389E0
2.943590435E0,2.739590883E0,6.749850273E0,4.627147198E0,8.629966866E0
2.945996008E0,2.725226164E0,6.788155556E0,4.619965553E0,8.651589172E0
2.948401008E0,2.684526443E0,6.812096596E0,4.591236115E0,8.642383428E0
2.950806633E0,2.624674082E0,6.814490795E0,4.629541874E0,8.646320419E0
2.953211789E0,2.504969120E0,6.819279194E0,4.646300316E0,8.623546002E0
2.955616633E0,2.394840717E0,6.819279194E0,4.710940838E0,8.627328344E0
2.958021737E0,2.291894436E0,6.821673393E0,4.715729237E0,8.603842759E0
2.960427050E0,2.172189474E0,6.840825558E0,4.715729237E0,8.587980185E0
2.962833091E0,2.097972393E0,6.840825558E0,4.744458199E0,8.585351832E0
2.965238977E0,2.057272673E0,6.864766598E0,4.720517159E0,8.581414425E0
2.967644550E0,2.038120031E0,6.864766598E0,4.763611317E0,8.600636400E0
2.970050956E0,1.992632031E0,6.893496037E0,4.785157681E0,8.624882842E0
2.972456477E0,1.985449672E0,6.919831276E0,4.813887596E0,8.660230313E0
2.974861373E0,1.959114671E0,6.946166039E0,4.811493397E0,8.673973809E0
2.977266789E0,1.963903069E0,6.943772316E0,4.763611317E0,8.646668839E0
2.979672310E0,1.942355990E0,6.955742836E0,4.706152916E0,8.619917660E0
2.982078352E0,1.913626790E0,6.986865520E0,4.667847157E0,8.617833508E0
2.984483977E0,1.882503629E0,6.960530758E0,4.653482914E0,8.581824490E0
2.986889237E0,1.837015748E0,6.960530758E0,4.667847157E0,8.579767617E0
2.989295279E0,1.760404587E0,6.962924480E0,4.677423954E0,8.570859728E0
2.991700643E0,1.662246585E0,6.950953960E0,4.663058758E0,8.533635898E0
2.994105748E0,1.578453064E0,6.927013397E0,4.686999798E0,8.511345122E0
2.996511477E0,1.468324542E0,6.919831276E0,4.754034996E0,8.522962548E0
2.998916998E0,1.370166421E0,6.883919716E0,4.797128201E0,8.501655465E0
3.001322675E0,1.257643819E0,6.881525517E0,4.868951321E0,8.523130198E0
3.003728195E0,1.159485817E0,6.845613956E0,4.928803921E0,8.514690005E0
3.006133352E0,1.073298216E0,6.826461315E0,4.947957039E0,8.499107130E0
3.008539081E0,9.918987751E-1,6.828855038E0,5.007809162E0,8.526152527E0
3.010944654E0,9.009230137E-1,6.824067116E0,5.003020763E0,8.509393106E0
3.013349966E0,8.434647322E-1,6.845613956E0,5.003020763E0,8.520802776E0
3.015755539E0,7.907944918E-1,6.843220234E0,5.022173882E0,8.525095284E0
3.018160956E0,7.285479307E-1,6.862372875E0,5.029356480E0,8.539166831E0
3.020566841E0,7.046068907E-1,6.869554996E0,5.017385960E0,8.535890029E0
3.022972362E0,6.543308496E-1,6.869554996E0,5.007809162E0,8.526258694E0
3.025377570E0,6.734837294E-1,6.891102314E0,4.981474400E0,8.529710348E0
3.027783664E0,6.327840090E-1,6.936589718E0,4.974291801E0,8.559221427E0
3.030189237E0,6.112370491E-1,6.927013397E0,4.979079723E0,8.552681464E0
3.032594654E0,6.184194088E-1,6.972501278E0,4.995838642E0,8.599803508E0
3.035000591E0,6.160253286E-1,7.006018639E0,5.012597561E0,8.636545529E0
3.037406320E0,5.872961283E-1,6.998836040E0,5.024568081E0,8.635676410E0
3.039812466E0,6.016607285E-1,7.044324398E0,5.024568081E0,8.673568254E0
3.042218195E0,5.992666483E-1,7.075447559E0,5.010203362E0,8.690409450E0
3.044623352E0,5.801137686E-1,7.094600201E0,4.986262321E0,8.690954834E0
3.047029289E0,5.609610081E-1,7.106570721E0,4.924015999E0,8.663945880E0
3.049435018E0,5.489904881E-1,7.108964443E0,4.892892361E0,8.647494531E0
3.051840279E0,5.322318077E-1,7.140088081E0,4.806704998E0,8.623719699E0
3.054245800E0,5.178672075E-1,7.135300159E0,4.734881878E0,8.579032650E0
3.056651268E0,5.035026073E-1,7.161635399E0,4.703758717E0,8.582999623E0
3.059057258E0,5.035026073E-1,7.156846523E0,4.651088238E0,8.550239109E0
3.061462831E0,4.699852765E-1,7.161635399E0,4.593630314E0,8.521229208E0
3.063868143E0,4.532265961E-1,7.178393841E0,4.548142433E0,8.510014810E0
3.066274341E0,4.005563557E-1,7.183182240E0,4.519413471E0,8.496096198E0
3.068680331E0,3.933741152E-1,7.168817043E0,4.514625072E0,8.481068361E0
3.071085904E0,3.837976754E-1,7.175999641E0,4.452378273E0,8.453753237E0
3.073491685E0,3.622508347E-1,7.178393841E0,4.435619831E0,8.446021968E0
3.075897570E0,3.215511739E-1,7.166423321E0,4.438014030E0,8.435460088E0
3.078304029E0,3.167629540E-1,7.183182240E0,4.442801952E0,8.452037331E0
3.080710070E0,3.191570342E-1,7.199940681E0,4.423649311E0,8.456339649E0
3.083115695E0,3.191570342E-1,7.173605442E0,4.423649311E0,8.433928472E0
3.085522102E0,3.622508347E-1,7.197546482E0,4.440407753E0,8.464816716E0
3.087928143E0,4.532265961E-1,7.214305401E0,4.421255112E0,8.473435757E0
3.090333664E0,7.836122513E-1,7.262187004E0,4.294367790E0,8.473193197E0
3.092739810E0,1.542541504E0,7.456109047E0,3.738936901E0,8.482490528E0
3.095146112E0,1.458747983E0,7.527932167E0,4.066928387E0,8.679724356E0
3.097552414E0,1.183426738E0,7.489626884E0,4.737276554E0,8.940738161E0
3.099958352E0,8.721939325E-1,7.410621166E0,5.153849602E0,9.068637938E0
3.102364081E0,5.729315281E-1,7.338798046E0,5.201731205E0,9.013557279E0
3.104770331E0,3.263393641E-1,7.307675362E0,5.058085442E0,8.893415818E0
3.107176164E0,9.171769023E-2,7.271763802E0,4.938380241E0,8.790594993E0
3.109581529E0,-6.868694723E-2,7.238245964E0,4.926409721E0,8.755937144E0
3.111987623E0,-1.955741793E-1,7.216699123E0,4.962321281E0,8.760344057E0
3.114394081E0,-2.386679649E-1,7.221487522E0,5.022173882E0,8.799379235E0
3.116801060E0,-1.740272939E-1,7.211911201E0,4.964715481E0,8.757302580E0
3.119207623E0,6.538258493E-2,7.281340122E0,4.830646038E0,8.738268135E0
3.121613508E0,7.788239717E-1,7.575814247E0,4.153115749E0,8.674554669E0
3.124019914E0,6.471486092E-1,7.640454769E0,4.289579868E0,8.786116653E0
3.126426164E0,1.060822606E-1,7.477656364E0,5.022173882E0,9.008264464E0
3.128831893E0,-3.104909062E-1,7.336404324E0,5.524934769E0,9.189349117E0
3.131237987E0,-6.743938923E-1,7.195152760E0,5.309465885E0,8.967466662E0
3.133644341E0,-9.592916965E-1,7.094600201E0,5.345377445E0,8.934576241E0
3.136050748E0,-1.143637300E0,7.013201237E0,4.639117718E0,8.486124620E0
3.138456737E0,-1.268130302E0,6.938983440E0,5.034144402E0,8.666040359E0
3.140862727E0,-1.280100822E0,6.907860756E0,4.742064476E0,8.476106054E0
3.143269498E0,-1.246583462E0,6.867161274E0,4.845010281E0,8.496234396E0
3.145675695E0,-1.134060860E0,6.850402355E0,5.074843884E0,8.600473644E0
3.148081320E0,-9.928090572E-1,6.855190754E0,4.713335514E0,8.378236197E0
3.150487362E0,-8.276162148E-1,6.871949196E0,5.117938042E0,8.608247449E0
3.152893404E0,-5.906004906E-1,6.948560238E0,4.761217594E0,8.443961825E0
3.155300018E0,-3.703433871E-1,6.979683876E0,4.902468681E0,8.537408296E0
3.157706268E0,-1.309335083E-1,7.053900719E0,5.046114922E0,8.673980328E0
3.160111893E0,9.889996052E-2,7.147270679E0,4.825858116E0,8.624509605E0
3.162518248E0,2.784573734E-1,7.211911201E0,5.357347965E0,8.988346840E0
3.164924341E0,4.628029764E-1,7.276551723E0,5.103573322E0,8.899935519E0
3.167329810E0,5.801137686E-1,7.329222202E0,5.424382210E0,9.136626972E0
3.169735748E0,6.926364899E-1,7.381892204E0,5.596757412E0,9.289551730E0
3.172141998E0,7.836122513E-1,7.444138527E0,5.484234810E0,9.279336076E0
3.174548508E0,8.243118525E-1,7.492020607E0,5.989389896E0,9.627183084E0
3.176954341E0,8.674057722E-1,7.544690609E0,5.692521572E0,9.491024761E0
3.179359706E0,8.745880127E-1,7.568631649E0,6.066000938E0,9.738863210E0
3.181765695E0,9.320464134E-1,7.628484249E0,6.077971458E0,9.798174294E0
3.184171373E0,9.320464134E-1,7.700307369E0,5.977419376E0,9.792496439E0
3.186576633E0,9.488050938E-1,7.743401051E0,6.355686665E0,1.006256647E1
3.188982050E0,9.895048141E-1,7.800859451E0,5.955872536E0,9.864326922E0
3.191387258E0,9.966870546E-1,7.817618370E0,6.235981941E0,1.004967725E1
3.193792779E0,1.020628095E0,7.891835213E0,6.051636219E0,9.997251905E0
3.196198039E0,9.847165346E-1,7.918169975E0,5.898413658E0,9.922618913E0
3.198603091E0,9.703519344E-1,7.939716816E0,6.142611980E0,1.008525498E1
3.201009185E0,9.751402140E-1,7.980416775E0,5.692521572E0,9.851027976E0
3.203414862E0,9.176818132E-1,7.982811451E0,5.977419376E0,1.001483704E1
3.205819914E0,9.344403744E-1,8.004357338E0,5.730827332E0,9.888644857E0
3.208225123E0,8.913466930E-1,7.980416775E0,5.642245293E0,9.814096126E0
3.210630383E0,8.362823725E-1,7.985205173E0,5.819408894E0,9.916067252E0
3.213035956E0,8.123413324E-1,7.999569416E0,5.388470650E0,9.679288467E0
3.215441164E0,7.812181711E-1,7.970840931E0,5.728432655E0,9.846803931E0
3.217846008E0,7.668534517E-1,7.997175694E0,5.445929527E0,9.705721596E0
3.220251841E0,7.285479307E-1,7.978023052E0,5.426776409E0,9.676235637E0
3.222657466E0,7.477008104E-1,7.999569416E0,5.563240528E0,9.772502879E0
3.225062623E0,8.075531721E-1,8.028298378E0,5.180184364E0,9.588536229E0
3.227468248E0,8.243118525E-1,8.035480499E0,5.275948524E0,9.648008588E0
3.229873873E0,8.913466930E-1,8.061815262E0,5.378894329E0,9.732413290E0
3.232279706E0,9.703519344E-1,8.100121498E0,5.295101166E0,9.725823745E0
3.234684966E0,1.044569016E0,8.131244659E0,5.247219563E0,9.733528511E0
3.237090070E0,1.123574257E0,8.157579422E0,5.311860085E0,9.799202962E0
3.239496216E0,1.193003178E0,8.215038300E0,5.283130646E0,9.839795743E0
3.241901893E0,1.267220140E0,8.258131981E0,5.357347965E0,9.924906444E0
3.244306998E0,1.331860900E0,8.284466743E0,5.410017967E0,9.983713592E0
3.246712466E0,1.379742742E0,8.341925621E0,5.524934769E0,1.010031273E1
3.249117831E0,1.401289701E0,8.394596100E0,5.639851570E0,1.020983752E1
3.251523404E0,1.420442581E0,8.440083504E0,5.702097893E0,1.028428836E1
3.253928508E0,1.441989422E0,8.483176231E0,5.718856812E0,1.033193765E1
3.256333404E0,1.465930462E0,8.535847664E0,5.766738415E0,1.040504298E1
3.258739237E0,1.475506783E0,8.583729744E0,5.812226295E0,1.047088874E1
3.261144654E0,1.494659543E0,8.631611824E0,5.845743656E0,1.053145046E1
3.263549810E0,1.494659543E0,8.641187668E0,5.872078896E0,1.055393017E1
3.265955331E0,1.465930462E0,8.653157234E0,5.881655216E0,1.056503433E1
3.268360591E0,1.451565742E0,8.669917107E0,5.843349934E0,1.055553145E1
3.270766373E0,1.427624822E0,8.684281349E0,5.828985214E0,1.055613205E1
3.273171685E0,1.384531021E0,8.667522430E0,5.771526814E0,1.050492232E1
3.275576737E0,1.355801821E0,8.679493904E0,5.769133091E0,1.050974356E1
3.277982675E0,1.303131700E0,8.657946587E0,5.738009453E0,1.046818723E1
3.280388195E0,1.250461578E0,8.631611824E0,5.675762653E0,1.040589537E1
3.282793195E0,1.224126458E0,8.612458229E0,5.630274773E0,1.036209035E1
3.285198456E0,1.185820818E0,8.610064507E0,5.546481609E0,1.031032686E1
3.287603925E0,1.188214898E0,8.576546669E0,5.500993729E0,1.025816452E1
3.290009758E0,1.154697537E0,8.550211906E0,5.443535328E0,1.020154532E1
3.292414862E0,1.166668057E0,8.559788704E0,5.395653248E0,1.018548825E1
3.294819445E0,1.200185418E0,8.574152946E0,5.359741688E0,1.018250336E1
3.297225279E0,1.207367659E0,8.559788704E0,5.331012726E0,1.015615163E1
3.299630852E0,1.248067379E0,8.559788704E0,5.319042206E0,1.015479516E1
3.302036216E0,1.288766980E0,8.554999352E0,5.271160603E0,1.013084736E1
3.304442050E0,1.336649060E0,8.586123466E0,5.218489647E0,1.013611272E1
3.306847623E0,1.358195901E0,8.581335068E0,5.149061203E0,1.009934844E1
3.309253560E0,1.382136941E0,8.588518143E0,5.129908562E0,1.009895580E1
3.311658768E0,1.422836661E0,8.595699310E0,5.096390724E0,1.009374604E1
3.314063352E0,1.441989422E0,8.593305588E0,5.101179600E0,1.009684444E1
3.316469133E0,1.446777582E0,8.605276108E0,5.082026482E0,1.009806592E1
3.318874706E0,1.427624822E0,8.598093987E0,5.089209080E0,1.009283815E1
3.321279862E0,1.434807062E0,8.605276108E0,5.117938042E0,1.011448160E1
3.323685591E0,1.406077862E0,8.631611824E0,5.101179600E0,1.012441657E1
3.326091268E0,1.406077862E0,8.631611824E0,5.086814404E0,1.011718629E1
3.328497518E0,1.413260102E0,8.650763512E0,5.093997002E0,1.013813686E1
3.330903039E0,1.360589981E0,8.657946587E0,5.067661762E0,1.012385499E1
3.333307779E0,1.367772341E0,8.686676025E0,5.060479164E0,1.014581642E1
3.335713612E0,1.307919860E0,8.701039314E0,5.026961803E0,1.013356228E1
3.338118925E0,1.303131700E0,8.669917107E0,5.038932323E0,1.011219332E1
3.340523664E0,1.264826059E0,8.686676025E0,5.000627041E0,1.010269252E1
3.342929081E0,1.207367659E0,8.672310829E0,4.979079723E0,1.007263355E1
3.345334654E0,1.164273858E0,8.669917107E0,4.967109680E0,1.005958125E1
3.347740539E0,1.090056896E0,8.645976067E0,4.938380241E0,1.001642279E1
3.350145904E0,1.037386656E0,8.622035027E0,4.926409721E0,9.984246182E0
3.352551268E0,9.871106148E-1,8.595699310E0,4.940774441E0,9.963517756E0
3.354957623E0,9.104994535E-1,8.576546669E0,4.895287037E0,9.917156709E0
3.357363508E0,8.913466930E-1,8.552605629E0,4.845010281E0,9.869938530E0
3.359769029E0,8.410706520E-1,8.552605629E0,4.823463917E0,9.854961544E0
3.362174550E0,8.123413324E-1,8.526270866E0,4.794734478E0,9.815634062E0
3.364580070E0,7.979768515E-1,8.554999352E0,4.744458199E0,9.815022392E0
3.366986425E0,7.979768515E-1,8.538241386E0,4.686999798E0,9.772732480E0
3.369392154E0,8.051590919E-1,8.545423508E0,4.660665035E0,9.767002747E0
3.371797362E0,8.291000128E-1,8.545423508E0,4.667847157E0,9.772434028E0
3.374203300E0,8.482528925E-1,8.547817230E0,4.624753475E0,9.755667946E0
3.376608664E0,8.793761730E-1,8.543029785E0,4.615176678E0,9.749693130E0
3.379013612E0,9.296523333E-1,8.545423508E0,4.586447716E0,9.742895824E0
3.381419133E0,9.559873343E-1,8.552605629E0,4.567295551E0,9.742749277E0
3.383824602E0,9.823224545E-1,8.533453941E0,4.562506676E0,9.726317944E0
3.386230383E0,9.871106148E-1,8.540636063E0,4.548142433E0,9.726379147E0
3.388635956E0,9.918987751E-1,8.519088745E0,4.528989315E0,9.698993785E0
3.391041268E0,9.918987751E-1,8.507117271E0,4.502654552E0,9.676197883E0
3.393447362E0,9.224698544E-1,8.485571861E0,4.505048275E0,9.651494206E0
3.395852935E0,8.985290527E-1,8.464024544E0,4.560112953E0,9.656173988E0
3.398258143E0,8.362823725E-1,8.444871902E0,4.569689274E0,9.638324010E0
3.400663612E0,7.620652914E-1,8.425718307E0,4.596024513E0,9.627923651E0
3.403069185E0,6.782718897E-1,8.365866661E0,4.639117718E0,9.590056879E0
3.405475383E0,5.777196884E-1,8.337136269E0,4.655877113E0,9.566545505E0
3.407881164E0,4.963203967E-1,8.289255142E0,4.703758717E0,9.543763975E0
3.410286425E0,3.790095150E-1,8.265314102E0,4.715729237E0,9.523506059E0
3.412692310E0,3.047924638E-1,8.231796265E0,4.725306034E0,9.496519642E0
3.415097518E0,1.922698319E-1,8.186308861E0,4.706152916E0,9.444601406E0
3.417502362E0,1.228409410E-1,8.145608902E0,4.684606075E0,9.397423496E0
3.419907779E0,2.947109938E-2,8.116880417E0,4.684606075E0,9.371774129E0
3.422313248E0,-8.783973753E-2,8.080968857E0,4.689394474E0,9.343457284E0
3.424719341E0,-1.788154840E-1,8.049844742E0,4.675029278E0,9.310632314E0
3.427125331E0,-2.554266453E-1,7.997175694E0,4.696576595E0,9.277817284E0
3.429530956E0,-3.296437263E-1,7.973234653E0,4.682211876E0,9.252256151E0
3.431937258E0,-4.349840581E-1,7.954082012E0,4.641512394E0,9.219559051E0
3.434343195E0,-4.972306192E-1,7.927746773E0,4.619965553E0,9.189150608E0
3.436748404E0,-5.738418102E-1,7.920564175E0,4.572083473E0,9.163437049E0
3.439153716E0,-6.432706118E-1,7.903805733E0,4.545748234E0,9.140446879E0
3.441559185E0,-6.696057320E-1,7.918169975E0,4.521807194E0,9.142894940E0
3.443965383E0,-7.007290125E-1,7.913382053E0,4.473925591E0,9.117491259E0
3.446371268E0,-7.055171728E-1,7.937323093E0,4.404496193E0,9.104857994E0
3.448776685E0,-7.055171728E-1,7.989993572E0,4.363796711E0,9.131290900E0
3.451182883E0,-6.791821718E-1,8.013934135E0,4.289579868E0,9.115093208E0
3.453588925E0,-6.672116518E-1,8.061815262E0,4.236909389E0,9.131781747E0
3.455994654E0,-6.265119314E-1,8.073785782E0,4.189027309E0,9.117372640E0
3.458400487E0,-5.834181905E-1,8.133638382E0,4.148327827E0,9.149047703E0
3.460806373E0,-5.451126099E-1,8.169549942E0,4.095657825E0,9.154949865E0
3.463212883E0,-4.972306192E-1,8.186308861E0,4.047775745E0,9.145894135E0
3.465618820E0,-4.325899482E-1,8.250949860E0,4.031017303E0,9.193171822E0
3.468024341E0,-3.775256872E-1,8.279678345E0,3.980741024E0,9.194666837E0
3.470430487E0,-3.368260264E-1,8.289255142E0,3.966376305E0,9.195506706E0
3.472836216E0,-2.769735456E-1,8.325166702E0,3.959194183E0,9.222815923E0
3.475241320E0,-2.195151746E-1,8.368260384E0,3.949617863E0,9.256103393E0
3.477646685E0,-1.931800842E-1,8.370655060E0,3.932858944E0,9.250543992E0
3.480052102E0,-1.405099034E-1,8.408959389E0,3.911312103E0,9.275165950E0
3.482457987E0,-1.165689230E-1,8.425718307E0,3.923282623E0,9.295077399E0
3.484863560E0,-6.389874220E-2,8.449659348E0,3.956799984E0,9.330439017E0
3.487268820E0,-1.362268627E-2,8.459236145E0,3.995105743E0,9.355198108E0
3.489674966E0,1.750060916E-2,8.471206665E0,4.059746265E0,9.393784561E0
3.492080591E0,9.171769023E-2,8.516695023E0,4.098052025E0,9.451800709E0
3.494485904E0,1.012940705E-1,8.521482468E0,4.167480946E0,9.486507332E0
3.496891841E0,1.419937611E-1,8.528664589E0,4.260850430E0,9.534837612E0
3.499297727E0,1.731170416E-1,8.554999352E0,4.375767231E0,9.610687919E0
3.501703508E0,2.545163929E-1,8.550211906E0,4.452378273E0,9.643369459E0
3.504108820E0,2.736691535E-1,8.569364548E0,4.517018795E0,9.690839094E0
3.506514029E0,3.646449149E-1,8.600487709E0,4.567295551E0,9.744821363E0
3.508920070E0,4.604088962E-1,8.607670784E0,4.622359276E0,9.781113329E0
3.511325695E0,5.346258879E-1,8.657946587E0,4.670241356E0,9.851752040E0
3.513730852E0,6.327840090E-1,8.665128708E0,4.686999798E0,9.871820411E0
3.516136373E0,7.357302904E-1,8.662734985E0,4.739670277E0,9.901956919E0
3.518541893E0,8.291000128E-1,8.681887627E0,4.742064476E0,9.927222929E0
3.520947831E0,9.081053734E-1,8.674704552E0,4.730093956E0,9.922144086E0
3.523353456E0,9.799282551E-1,8.703434944E0,4.706152916E0,9.942731741E0
3.525758820E0,1.070904016E0,8.701039314E0,4.675029278E0,9.935331867E0
3.528164966E0,1.106815577E0,8.686676025E0,4.677423954E0,9.927823323E0
3.530570539E0,1.154697537E0,8.686676025E0,4.696576595E0,9.942308509E0
3.532975904E0,1.171456337E0,8.674704552E0,4.758822918E0,9.963393226E0
3.535381789E0,1.214550018E0,8.686676025E0,4.833039761E0,1.001457665E1
3.537787570E0,1.190608978E0,8.684281349E0,4.859375477E0,1.002236610E1
3.540193820E0,1.200185418E0,8.669917107E0,4.864163399E0,1.001339070E1
3.542600018E0,1.183426738E0,8.674704552E0,4.895287037E0,1.003069455E1
3.545006060E0,1.159485817E0,8.708222389E0,4.924015999E0,1.007092241E1
3.547412935E0,1.121180177E0,8.724980354E0,4.945562840E0,1.009162618E1
3.549819133E0,1.113997936E0,8.710617065E0,4.959927559E0,1.008547086E1
3.552224966E0,1.082874537E0,8.765680313E0,4.967109680E0,1.013321011E1
3.554631268E0,1.046963215E0,8.792016029E0,4.983868599E0,1.016044409E1
3.557037258E0,1.020628095E0,8.818350792E0,4.981474400E0,1.017939485E1
3.559443404E0,1.008657575E0,8.839898109E0,4.979079723E0,1.019570613E1
3.561848873E0,9.990811348E-1,8.875809669E0,4.976686001E0,1.022475251E1
3.564253820E0,9.847165346E-1,8.882991791E0,4.974291801E0,1.022843041E1
3.566659862E0,9.511991739E-1,8.940449715E0,4.969503880E0,1.027289588E1
3.569065643E0,9.655637741E-1,8.961997032E0,4.940774441E0,1.027915154E1
3.571470956E0,9.248640537E-1,8.966784477E0,4.938380241E0,1.027843358E1
3.573876477E0,9.272581339E-1,8.983543396E0,4.904862881E0,1.027723404E1
3.576282102E0,8.913466930E-1,8.988331795E0,4.904862881E0,1.027824339E1
3.578688091E0,8.721939325E-1,8.971573830E0,4.895287037E0,1.025737269E1
3.581093925E0,8.506469727E-1,8.971573830E0,4.902468681E0,1.025899295E1
3.583499393E0,8.650115728E-1,8.990725517E0,4.914439201E0,1.028266031E1
3.585905331E0,8.267060518E-1,8.993119240E0,4.866557598E0,1.025880205E1
3.588311008E0,8.195236921E-1,8.966784477E0,4.840222359E0,1.022265110E1
3.590716477E0,7.812181711E-1,8.947632790E0,4.837828159E0,1.020171631E1
3.593122518E0,7.333360910E-1,8.942843437E0,4.856980801E0,1.020306293E1
3.595528456E0,7.141833305E-1,8.914114952E0,4.840222359E0,1.016854246E1
3.597934758E0,6.806659698E-1,8.894961357E0,4.854587078E0,1.015631131E1
3.600340643E0,6.543308496E-1,8.890173912E0,4.876133919E0,1.016070977E1
3.602745852E0,6.471486092E-1,8.856657028E0,4.883316517E0,1.013439467E1
3.605151893E0,5.872961283E-1,8.854262352E0,4.907257557E0,1.014021969E1
3.607557675E0,5.944783688E-1,8.839898109E0,4.933592319E0,1.014088439E1
3.609962831E0,5.609610081E-1,8.825533867E0,4.926409721E0,1.012295599E1
3.612368404E0,5.633550882E-1,8.825533867E0,4.974291801E0,1.014647702E1
3.614774393E0,5.681433678E-1,8.825533867E0,5.029356480E0,1.017385185E1
3.617180852E0,5.729315281E-1,8.844685555E0,5.082026482E0,1.021683445E1
3.619586633E0,5.825079679E-1,8.856657028E0,5.122725964E0,1.024802471E1
3.621991893E0,6.088429689E-1,8.854262352E0,5.177790165E0,1.027512348E1
3.624397987E0,6.686954498E-1,8.871020317E0,5.218489647E0,1.031381546E1
3.626803820E0,6.854541302E-1,8.882991791E0,5.263978004E0,1.034827787E1
3.629209550E0,7.070010900E-1,8.904539108E0,5.242430687E0,1.035730403E1
3.631615279E0,7.309420109E-1,8.902144432E0,5.321436405E0,1.039712158E1
3.634020435E0,7.548830509E-1,8.899750710E0,5.366923809E0,1.042013830E1
3.636426164E0,7.764298916E-1,8.899750710E0,5.366923809E0,1.042172141E1
3.638831685E0,7.764298916E-1,8.878203392E0,5.402835369E0,1.042189853E1
3.641236945E0,7.692476511E-1,8.875809669E0,5.386076927E0,1.041064666E1
3.643643039E0,7.764298916E-1,8.856657028E0,5.354953289E0,1.037876398E1
3.646048768E0,7.644594908E-1,8.847079277E0,5.338194847E0,1.036105855E1
3.648454341E0,7.237597704E-1,8.832715988E0,5.331012726E0,1.034216595E1
3.650860279E0,7.070010900E-1,8.808774948E0,5.316648006E0,1.031315241E1
3.653265956E0,6.950305700E-1,8.794409752E0,5.316648006E0,1.030007070E1
3.655672050E0,6.615132093E-1,8.777651787E0,5.321436405E0,1.028603208E1
3.658078039E0,6.184194088E-1,8.780045509E0,5.338194847E0,1.029407431E1
3.660483508E0,5.968724489E-1,8.720192909E0,5.307071686E0,1.022560663E1
3.662889393E0,5.561728477E-1,8.727375984E0,5.290312767E0,1.022075481E1
3.665294654E0,5.465964079E-1,8.744133949E0,5.275948524E0,1.022713445E1
3.667699341E0,5.418082476E-1,8.727375984E0,5.292706966E0,1.022122276E1
3.670104445E0,5.418082476E-1,8.724980354E0,5.263978004E0,1.020432765E1
3.672509706E0,5.298377275E-1,8.727375984E0,5.218489647E0,1.018235993E1
3.674915331E0,5.154731274E-1,8.710617065E0,5.151455402E0,1.013301806E1
3.677320643E0,4.939262569E-1,8.717798233E0,5.101179600E0,1.011266545E1
3.679725748E0,4.963203967E-1,8.708222389E0,5.067661762E0,1.008764922E1
3.682131581E0,4.675911963E-1,8.710617065E0,5.024568081E0,1.006676590E1
3.684537206E0,4.221033156E-1,8.691463470E0,4.998232841E0,1.003504061E1
3.686942258E0,3.622508347E-1,8.693858147E0,4.957533360E0,1.001456600E1
3.689347623E0,3.191570342E-1,8.703434944E0,4.945562840E0,1.001549963E1
3.691752987E0,2.736691535E-1,8.715404510E0,4.938380241E0,1.002101642E1
3.694158873E0,2.209990025E-1,8.708222389E0,4.912045479E0,1.000050841E1
3.696564654E0,1.850875318E-1,8.715404510E0,4.916833401E0,1.000838568E1
3.698970018E0,1.372055411E-1,8.729769707E0,4.907257557E0,1.001543215E1
3.701375852E0,1.228409410E-1,8.734558105E0,4.880921841E0,1.000654752E1
3.703781373E0,1.012940705E-1,8.770468712E0,4.847404957E0,1.002141291E1
3.706186320E0,9.650588036E-2,8.784833908E0,4.799522877E0,1.001089606E1
3.708591529E0,1.156586707E-1,8.799198151E0,4.732487679E0,9.991781856E0
3.710997414E0,7.735309005E-2,8.799198151E0,4.713335514E0,9.982354595E0
3.713403508E0,7.256488502E-2,8.799198151E0,4.706152916E0,9.978929252E0
3.715809133E0,7.495898008E-2,8.784833908E0,4.696576595E0,9.961764771E0
3.718214706E0,5.820028484E-2,8.770468712E0,4.696576595E0,9.948986904E0
3.720620695E0,1.989470422E-2,8.768074989E0,4.689394474E0,9.943337234E0
3.723026320E0,1.510649920E-2,8.751316071E0,4.696576595E0,9.931948091E0
3.725431633E0,-1.841086149E-2,8.727375984E0,4.713335514E0,9.918818589E0
3.727837154E0,-3.995776176E-2,8.703434944E0,4.730093956E0,9.905814721E0
3.730242623E0,-7.826333493E-2,8.669917107E0,4.751640797E0,9.886944829E0
3.732648508E0,-1.405099034E-1,8.634005547E0,4.792340279E0,9.875845288E0
3.735054602E0,-1.716331840E-1,8.593305588E0,4.821069241E0,9.854799211E0
3.737460175E0,-2.147269696E-1,8.564577103E0,4.804310799E0,9.822397409E0
3.739866112E0,-2.530325651E-1,8.552605629E0,4.864163399E0,9.842315484E0
3.742271841E0,-2.626089454E-1,8.528664589E0,4.871345997E0,9.825329254E0
3.744677310E0,-2.554266453E-1,8.526270866E0,4.909651279E0,9.842114272E0
3.747082987E0,-2.697912455E-1,8.519088745E0,4.876133919E0,9.819589724E0
3.749488716E0,-2.697912455E-1,8.497541428E0,4.888104439E0,9.806863037E0
3.751895123E0,-2.721853256E-1,8.511906624E0,4.878527641E0,9.814615182E0
3.754300956E0,-2.219092548E-1,8.519088745E0,4.902468681E0,9.831496119E0
3.756706268E0,-2.003623843E-1,8.540636063E0,4.928803921E0,9.862845306E0
3.759112362E0,-1.596626937E-1,8.559788704E0,4.955139160E0,9.891859225E0
3.761517987E0,-1.309335083E-1,8.535847664E0,4.967109680E0,9.876741239E0
3.763923091E0,-9.023384005E-2,8.564577103E0,4.988656521E0,9.911953237E0
3.766328560E0,-5.432235450E-2,8.595699310E0,4.998232841E0,9.943406312E0
3.768733977E0,-2.080495656E-2,8.586123466E0,5.031750202E0,9.951907311E0
3.771139654E0,7.419139147E-4,8.607670784E0,5.043720722E0,9.976528234E0
3.773545018E0,2.468290925E-2,8.626822472E0,5.050902843E0,9.996714197E0
3.775950018E0,5.101798475E-2,8.641187668E0,5.041327000E0,1.000438429E1
3.778355748E0,3.904750943E-2,8.643581390E0,5.017385960E0,9.994357700E0
3.780761008E0,6.059437990E-2,8.645976067E0,5.036538601E0,1.000616285E1
3.783165800E0,5.101798475E-2,8.634005547E0,5.024568081E0,9.989741689E0
3.785571008E0,7.924214005E-3,8.631611824E0,5.029356480E0,9.989955559E0
3.787976581E0,-1.652181149E-3,8.593305588E0,5.019779682E0,9.952039575E0
3.790382675E0,-7.108104229E-2,8.566970825E0,5.053297520E0,9.946550028E0
3.792788195E0,-1.357217133E-1,8.533453941E0,5.050902843E0,9.917150603E0
3.795193248E0,-1.931800842E-1,8.464024544E0,5.070055962E0,9.868257064E0
3.797599081E0,-2.602148354E-1,8.442477226E0,5.070055962E0,9.851324831E0
3.800004758E0,-3.200672865E-1,8.423324585E0,5.070055962E0,9.836681737E0
3.802410279E0,-3.583728969E-1,8.380230904E0,5.067661762E0,9.799892697E0
3.804815956E0,-4.206194580E-1,8.351501465E0,5.050902843E0,9.769141056E0
3.807221737E0,-4.589250684E-1,8.341925621E0,5.017385960E0,9.745383376E0
3.809627987E0,-4.828660190E-1,8.327560425E0,5.010203362E0,9.730547772E0
3.812034029E0,-5.092011094E-1,8.346714020E0,4.991050243E0,9.738454869E0
3.814439602E0,-4.900483489E-1,8.346714020E0,4.983868599E0,9.733793121E0
3.816845539E0,-4.756837487E-1,8.339531898E0,4.947957039E0,9.708570759E0
3.819251060E0,-4.517427385E-1,8.380230904E0,4.914439201E0,9.725433366E0
3.821656268E0,-4.254076779E-1,8.392201424E0,4.912045479E0,9.733355393E0
3.824061529E0,-3.942843676E-1,8.408959389E0,4.902468681E0,9.741676310E0
3.826466841E0,-3.583728969E-1,8.418537140E0,4.854587078E0,9.724567569E0
3.828872987E0,-3.128850460E-1,8.466418266E0,4.856980801E0,9.765674468E0
3.831278873E0,-3.080968261E-1,8.468812943E0,4.854587078E0,9.766408347E0
3.833684029E0,-2.769735456E-1,8.475995064E0,4.880921841E0,9.784815005E0
3.836089758E0,-2.506384552E-1,8.495147705E0,4.888104439E0,9.804280655E0
3.838495070E0,-1.979682744E-1,8.535847664E0,4.919228077E0,9.853866838E0
3.840899810E0,-1.620568037E-1,8.521482468E0,4.885710239E0,9.824056718E0
3.843305175E0,-1.596626937E-1,8.533453941E0,4.854587078E0,9.818978768E0
3.845710956E0,-1.285394132E-1,8.562182426E0,4.842616558E0,9.837602625E0
3.848116945E0,-9.741612524E-2,8.528664589E0,4.825858116E0,9.799822250E0
3.850522154E0,-8.305153996E-2,8.554999352E0,4.799522877E0,9.809705975E0
3.852927050E0,-4.474595189E-2,8.543029785E0,4.804310799E0,9.801365331E0
3.855332883E0,-3.756365180E-2,8.523877144E0,4.804310799E0,9.784645872E0
3.857738195E0,-3.038136661E-2,8.514300346E0,4.816281319E0,9.782167406E0
3.860143195E0,-8.834481239E-3,8.466418266E0,4.828251839E0,9.746400983E0
3.862548768E0,-6.440386176E-3,8.478388786E0,4.833039761E0,9.759169597E0
3.864954341E0,7.419139147E-4,8.468812943E0,4.828251839E0,9.748477267E0
3.867360383E0,2.707700431E-2,8.471206665E0,4.849798679E0,9.761281819E0
3.869766112E0,4.622979462E-2,8.480782509E0,4.840222359E0,9.764914830E0
3.872171633E0,6.298848987E-2,8.521482468E0,4.868951321E0,9.814597188E0
3.874578091E0,8.692947030E-2,8.523877144E0,4.847404957E0,9.806190550E0
3.876984185E0,1.036881506E-1,8.538241386E0,4.861769199E0,9.825941021E0
3.879389550E0,1.132645607E-1,8.578940392E0,4.864163399E0,9.862612872E0
3.881795123E0,1.348114312E-1,8.600487709E0,4.861769199E0,9.880453568E0
3.884200695E0,1.539642215E-1,8.624428749E0,4.868951321E0,9.905107934E0
3.886606425E0,1.515701413E-1,8.629217148E0,4.866557598E0,9.908064642E0
3.889011529E0,1.563583612E-1,8.641187668E0,4.856980801E0,9.913870826E0
3.891416216E0,1.587524414E-1,8.655552864E0,4.859375477E0,9.927604331E0
3.893822050E0,1.324173510E-1,8.648369789E0,4.861769199E0,9.922128507E0
3.896227779E0,1.132645607E-1,8.665128708E0,4.897680759E0,9.954122825E0
3.898633091E0,1.132645607E-1,8.650763512E0,4.935986519E0,9.960547229E0
3.901038508E0,8.453539014E-2,8.643581390E0,4.952744961E0,9.962345514E0
3.903443925E0,6.777667999E-2,8.638793945E0,4.983868599E0,9.973580136E0
3.905849654E0,7.495898008E-2,8.631611824E0,5.010203362E0,9.980605155E0
3.908255018E0,7.495898008E-2,8.667522430E0,5.024568081E0,1.001887460E1
3.910660331E0,9.889996052E-2,8.660340309E0,5.055691242E0,1.002852379E1
3.913066789E0,1.156586707E-1,8.667522430E0,5.060479164E0,1.003731893E1
3.915472570E0,1.491760314E-1,8.657946587E0,5.096390724E0,1.004766097E1
3.917877466E0,1.802993119E-1,8.648369789E0,5.115543842E0,1.004965654E1
3.920282831E0,2.162108123E-1,8.684281349E0,5.074843884E0,1.006069233E1
3.922688195E0,2.545163929E-1,8.674704552E0,5.074843884E0,1.005332373E1
3.925094133E0,2.904278934E-1,8.696251869E0,5.098784924E0,1.008497658E1
3.927499862E0,3.311275244E-1,8.701039314E0,5.115543842E0,1.009883753E1
3.929904862E0,4.005563557E-1,8.713010788E0,5.206519604E0,1.015799433E1
3.932310852E0,4.364678562E-1,8.753710747E0,5.273554325E0,1.022879911E1
3.934716477E0,4.604088962E-1,8.782439232E0,5.316648006E0,1.027667073E1
3.937121633E0,4.939262569E-1,8.801592827E0,5.304677486E0,1.028842081E1
3.939527154E0,5.130790472E-1,8.844685555E0,5.326224327E0,1.033732936E1
3.941932518E0,5.513846874E-1,8.873415947E0,5.335800648E0,1.036881402E1
3.944338352E0,5.753256083E-1,8.894961357E0,5.309465885E0,1.037505494E1
3.946743820E0,5.825079679E-1,8.945238113E0,5.314253807E0,1.042103133E1
3.949148925E0,5.849020481E-1,8.957208633E0,5.287919044E0,1.041805091E1
3.951554914E0,5.777196884E-1,8.954814911E0,5.261583805E0,1.040224660E1
3.953960383E0,5.513846874E-1,8.954814911E0,5.244824886E0,1.039234927E1
3.956365227E0,5.154731274E-1,8.952420235E0,5.199337482E0,1.036555116E1
3.958770748E0,4.364678562E-1,8.950026512E0,5.168213844E0,1.034426958E1
3.961176529E0,3.646449149E-1,8.940449715E0,5.199337482E0,1.034880270E1
3.963582466E0,2.904278934E-1,8.933267593E0,5.220883846E0,1.035109880E1
3.965987987E0,2.018462121E-1,8.926085472E0,5.242430687E0,1.035368646E1
3.968392987E0,1.395996213E-1,8.904539108E0,5.273554325E0,1.034991208E1
3.970798664E0,7.735309005E-2,8.892567635E0,5.297495365E0,1.035119316E1
3.973204081E0,7.419139147E-4,8.868626595E0,5.331012726E0,1.034757145E1
3.975609029E0,-4.235186428E-2,8.839898109E0,5.321436405E0,1.031810436E1
3.978014341E0,-8.544563502E-2,8.815957069E0,5.311860085E0,1.029292269E1
3.980419654E0,-1.261453182E-1,8.796803474E0,5.299889565E0,1.027075914E1
3.982825279E0,-1.500862986E-1,8.763286591E0,5.292706966E0,1.023867495E1
3.985230487E0,-1.452981085E-1,8.734558105E0,5.261583805E0,1.019793513E1
3.987635383E0,-1.572685987E-1,8.729769707E0,5.235249043E0,1.018044425E1
3.990041320E0,-1.859977841E-1,8.701039314E0,5.211308002E0,1.014398400E1
3.992446998E0,-2.075446695E-1,8.681887627E0,5.208913326E0,1.012674803E1
3.994852258E0,-2.266974598E-1,8.643581390E0,5.161031723E0,1.006971397E1
3.997257987E0,-2.673971355E-1,8.622035027E0,5.156243324E0,1.004976788E1
3.999663768E0,-2.865499258E-1,8.581335068E0,5.182578564E0,1.002898514E1
4.002069758E0,-3.320378065E-1,8.566970825E0,5.211308002E0,1.003299404E1
4.004475123E0,-3.751316071E-1,8.550211906E0,5.242430687E0,1.003642999E1
4.006880227E0,-3.751316071E-1,8.554999352E0,5.235249043E0,1.003676094E1
4.009286112E0,-4.134371877E-1,8.566970825E0,5.196942806E0,1.002856590E1
4.011691581E0,-4.325899482E-1,8.552605629E0,5.211308002E0,1.002456624E1
4.014096268E0,-4.230135679E-1,8.576546669E0,5.199337482E0,1.003838650E1
4.016501268E0,-4.134371877E-1,8.559788704E0,5.204125404E0,1.002615750E1
4.018906685E0,-3.990725875E-1,8.578940392E0,5.196942806E0,1.003821158E1
4.021312727E0,-3.751316071E-1,8.566970825E0,5.182578564E0,1.001962242E1
4.023718195E0,-3.703433871E-1,8.578940392E0,5.175396442E0,1.002597131E1
4.026123352E0,-3.344318867E-1,8.581335068E0,5.208913326E0,1.004409948E1
4.028529550E0,-3.080968261E-1,8.581335068E0,5.216095924E0,1.004698422E1
4.030935175E0,-3.080968261E-1,8.559788704E0,5.199337482E0,1.001988107E1
4.033340435E0,-2.913381159E-1,8.543029785E0,5.220883846E0,1.001627995E1
4.035746060E0,-2.841558456E-1,8.545423508E0,5.223278522E0,1.001936355E1
4.038151373E0,-2.673971355E-1,8.528664589E0,5.244824886E0,1.001587784E1
4.040556998E0,-2.937322259E-1,8.509512901E0,5.244824886E0,1.000031382E1
4.042962310E0,-3.152791262E-1,8.485571861E0,5.278342247E0,9.998261230E0
4.045367466E0,-3.368260264E-1,8.459236145E0,5.292706966E0,9.984231316E0
4.047773664E0,-3.631610870E-1,8.444871902E0,5.302283287E0,9.978073736E0
4.050179237E0,-4.110430777E-1,8.423324585E0,5.340589046E0,9.982146304E0
4.052584133E0,-4.206194580E-1,8.394596100E0,5.357347965E0,9.967313662E0
4.054989498E0,-4.708955288E-1,8.389807701E0,5.328618526E0,9.950115138E0
4.057395018E0,-4.876542091E-1,8.387413025E0,5.352559566E0,9.961746724E0
4.059800904E0,-4.996246994E-1,8.382624626E0,5.345377445E0,9.954450286E0
4.062206373E0,-5.020188093E-1,8.404171944E0,5.333406925E0,9.966311172E0
4.064611373E0,-4.900483489E-1,8.416142464E0,5.333406925E0,9.975812287E0
4.067017206E0,-4.948365390E-1,8.435295105E0,5.299889565E0,9.974361940E0
4.069422675E0,-5.211716294E-1,8.435295105E0,5.240036964E0,9.944033928E0
4.071827987E0,-5.044128895E-1,8.468812943E0,5.189760685E0,9.945292403E0
4.074233873E0,-5.163834095E-1,8.480782509E0,5.151455402E0,9.936187224E0
4.076639289E0,-5.235657096E-1,8.502329826E0,5.108361244E0,9.932728131E0
