"Time (s)","Gyroscope x (rad/s)","Gyroscope y (rad/s)","Gyroscope z (rad/s)","Absolute (rad/s)"
1.154252610E-1,-3.787361085E-2,1.190881478E-3,3.665187955E-2,5.271801279E-2
1.178702610E-1,-3.787361085E-2,-3.696036292E-3,3.604101762E-2,5.241207909E-2
1.203160950E-1,-3.726274520E-2,-9.804681875E-3,3.848447651E-2,5.445823077E-2
1.227610950E-1,-3.726274520E-2,-1.469159964E-2,3.909534216E-2,5.597143074E-2
1.252053650E-1,-3.787361085E-2,-2.080024779E-2,3.848447651E-2,5.786290383E-2
1.276503650E-1,-3.604101390E-2,-2.507629991E-2,3.604101762E-2,5.680431719E-2
1.300961990E-1,-3.543015197E-2,-3.118494712E-2,3.665187955E-2,5.975915720E-2
1.325411990E-1,-3.604101390E-2,-3.668272868E-2,3.604101762E-2,6.279754945E-2
1.349854170E-1,-3.604101390E-2,-3.973705322E-2,3.481928632E-2,6.395600660E-2
1.374304700E-1,-3.481928632E-2,-4.401310533E-2,3.604101762E-2,6.669700962E-2
1.398762510E-1,-3.665187955E-2,-4.767829552E-2,3.604101762E-2,7.011087711E-2
1.423213030E-1,-3.543015197E-2,-5.012175441E-2,3.420842439E-2,7.026878562E-2
1.447655220E-1,-3.481928632E-2,-5.195434764E-2,3.420842439E-2,7.128711831E-2
1.472105220E-1,-3.359755874E-2,-5.256521329E-2,3.420842439E-2,7.114853407E-2
1.496563550E-1,-3.298669308E-2,-5.256521329E-2,3.420842439E-2,7.086211871E-2
1.521013550E-1,-3.298669308E-2,-5.256521329E-2,3.237582743E-2,6.999584110E-2
1.545455740E-1,-3.176496178E-2,-5.134348199E-2,3.298669308E-2,6.879889432E-2
1.569906260E-1,-3.115409613E-2,-5.195434764E-2,3.359755874E-2,6.927212930E-2
1.594364070E-1,-3.298669308E-2,-5.195434764E-2,3.298669308E-2,6.982476695E-2
1.618814590E-1,-2.993236855E-2,-5.195434764E-2,3.298669308E-2,6.843480727E-2
1.643256780E-1,-2.871064097E-2,-5.500867218E-2,3.481928632E-2,7.115221444E-2
1.667706780E-1,-2.932150289E-2,-5.806299299E-2,3.481928632E-2,7.377970172E-2
1.692165110E-1,-2.748890966E-2,-5.989558995E-2,3.543015197E-2,7.482257359E-2
1.716615110E-1,-2.748890966E-2,-6.294991076E-2,3.726274520E-2,7.814629613E-2
1.741057820E-1,-2.565631643E-2,-6.417164207E-2,3.848447651E-2,7.910310455E-2
1.765507820E-1,-2.748890966E-2,-6.478250772E-2,4.031706974E-2,8.110412796E-2
1.789966150E-1,-2.626718208E-2,-6.844769418E-2,4.153879732E-2,8.426460334E-2
1.814416150E-1,-2.565631643E-2,-6.722597033E-2,4.092793539E-2,8.278087674E-2
1.838858340E-1,-2.626718208E-2,-6.722597033E-2,4.214966297E-2,8.358163692E-2
1.863308340E-1,-2.443458512E-2,-6.539336592E-2,4.337139428E-2,8.218527300E-2
1.887766670E-1,-2.443458512E-2,-6.294991076E-2,4.520398751E-2,8.125971143E-2
1.912217200E-1,-2.504545078E-2,-5.867385864E-2,4.703658074E-2,7.926118988E-2
1.936659380E-1,-2.565631643E-2,-5.745213106E-2,4.703658074E-2,7.855847417E-2
1.961109380E-1,-2.565631643E-2,-5.256521329E-2,4.703658074E-2,7.505856480E-2
1.985567720E-1,-2.626718208E-2,-4.951088876E-2,4.642571509E-2,7.277801853E-2
2.010017720E-1,-2.565631643E-2,-4.584570229E-2,4.703658074E-2,7.051606143E-2
2.034459900E-1,-2.626718208E-2,-4.279137775E-2,4.764744639E-2,6.921954935E-2
2.058910420E-1,-2.504545078E-2,-4.095878452E-2,4.581485316E-2,6.636186709E-2
2.083368240E-1,-2.382372320E-2,-3.607186675E-2,4.398225993E-2,6.166999713E-2
2.107818760E-1,-2.321285754E-2,-3.240667656E-2,4.398225993E-2,5.935881257E-2
2.132260950E-1,-2.199112624E-2,-2.813062444E-2,4.214966297E-2,5.524070739E-2
2.156710950E-1,-2.138026431E-2,-2.385457046E-2,4.153879732E-2,5.245596169E-2
2.181169280E-1,-2.138026431E-2,-2.018938214E-2,4.031706974E-2,4.990183329E-2
2.205619280E-1,-2.076939866E-2,-1.774592325E-2,3.848447651E-2,4.719470992E-2
2.230061990E-1,-2.015853301E-2,-1.346987206E-2,3.726274520E-2,4.445577675E-2
2.254511990E-1,-2.138026431E-2,-1.285900641E-2,3.604101762E-2,4.383405867E-2
2.278970320E-1,-2.076939866E-2,-9.193818085E-3,3.481928632E-2,4.157254997E-2
2.303420320E-1,-1.893680543E-2,-7.972088642E-3,3.420842439E-2,3.990454982E-2
2.327862510E-1,-1.832594164E-2,-7.972088642E-3,3.115409985E-2,3.701313648E-2
2.352313030E-1,-1.832594164E-2,-6.750359200E-3,3.054323420E-2,3.625322940E-2
2.376770840E-1,-1.649334654E-2,-7.972088642E-3,2.809977531E-2,3.354373340E-2
2.401221360E-1,-1.832594164E-2,-9.804681875E-3,2.626718208E-2,3.349532472E-2
2.425663550E-1,-8.552104235E-3,-1.041554753E-2,2.626718208E-2,2.952265184E-2
2.450113550E-1,-1.343902200E-2,-1.346987206E-2,2.382372320E-2,3.048958105E-2
2.474571880E-1,-1.038469933E-2,-1.224814076E-2,2.382372320E-2,2.873027531E-2
2.499021880E-1,-9.162969887E-3,-1.408073585E-2,2.199112624E-2,2.767375603E-2
2.523464590E-1,-6.108645815E-3,-1.530246530E-2,2.199112624E-2,2.747891248E-2
2.547914590E-1,-2.443457488E-3,-1.652419381E-2,1.954766735E-2,2.571246321E-2
2.572372920E-1,-3.665186930E-3,-1.896765269E-2,1.832593977E-2,2.662790853E-2
2.596822920E-1,3.054325003E-3,-1.957851648E-2,1.771507412E-2,2.657952332E-2
2.621265110E-1,-6.108633243E-4,-2.141111158E-2,1.527161431E-2,2.630648317E-2
2.645715630E-1,7.941242307E-3,-2.141111158E-2,1.343902200E-2,2.649728931E-2
2.670173450E-1,6.719513331E-3,-2.568716556E-2,1.160642691E-2,2.897743052E-2
2.694623970E-1,1.038470119E-2,-2.446543425E-2,7.941238582E-3,2.773919181E-2
2.719066150E-1,1.099556684E-2,-3.118494712E-2,6.719509605E-3,3.374248400E-2
2.743516150E-1,1.343902573E-2,-3.423926979E-2,5.497780163E-3,3.719086709E-2
2.767974490E-1,1.649335027E-2,-3.668272868E-2,2.443456557E-3,4.029421381E-2
2.792424490E-1,1.710421406E-2,-4.095878452E-2,2.443456557E-3,4.445387101E-2
2.816867200E-1,2.321286127E-2,-4.401310533E-2,6.108623929E-4,4.976307388E-2
2.841317200E-1,2.260199562E-2,-4.951088876E-2,-6.108670495E-4,5.442932546E-2
2.865775530E-1,2.871064469E-2,-5.073262006E-2,-6.108670495E-4,5.829642369E-2
2.890225530E-1,2.748891339E-2,-5.745213106E-2,-1.832596492E-3,6.371613715E-2
2.914667720E-1,3.420842811E-2,-5.745213106E-2,-1.832596492E-3,6.689037545E-2
2.939118240E-1,3.359756246E-2,-6.172818318E-2,-2.443461679E-3,7.032165603E-2
2.963576050E-1,3.848448023E-2,-6.417164207E-2,-2.443461679E-3,7.486671737E-2
2.988026570E-1,4.092793912E-2,-6.722597033E-2,-2.443461679E-3,7.874260468E-2
3.012468760E-1,3.909534588E-2,-7.150202245E-2,-3.665191121E-3,8.157462172E-2
3.036918760E-1,4.520399123E-2,-7.333461195E-2,-2.443461679E-3,8.618199718E-2
3.061377090E-1,4.276053235E-2,-7.822152972E-2,-3.054325469E-3,8.919865326E-2
3.085827090E-1,4.886918142E-2,-8.249758929E-2,-1.832596492E-3,9.590311539E-2
3.110269800E-1,4.703658819E-2,-8.494103700E-2,-1.832596492E-3,9.711219699E-2
3.134719800E-1,5.192350596E-2,-8.921709657E-2,-6.108670495E-4,1.032284551E-1
3.159178130E-1,5.253436789E-2,-9.532574564E-2,-2.328306437E-9,1.088432708E-1
3.183628130E-1,5.497782677E-2,-9.471487254E-2,-2.328306437E-9,1.095146954E-1
3.208070320E-1,5.742128566E-2,-9.654747695E-2,6.108623929E-4,1.123342891E-1
3.232520840E-1,5.803215131E-2,-9.532574564E-2,1.832591835E-3,1.116157998E-1
3.256978650E-1,6.230819970E-2,-9.227142483E-2,2.443456557E-3,1.113656054E-1
3.281429170E-1,5.986474454E-2,-8.921709657E-2,1.221727114E-3,1.074475248E-1
3.305871360E-1,6.536252797E-2,-8.188671619E-2,3.054321278E-3,1.048190022E-1
3.330321360E-1,6.230819970E-2,-7.822152972E-2,1.832591835E-3,1.000213870E-1
3.354779700E-1,6.658425927E-2,-6.905855983E-2,2.443456557E-3,9.596102724E-2
3.379230220E-1,6.536252797E-2,-6.539336592E-2,2.443456557E-3,9.249066357E-2
3.403672400E-1,6.536252797E-2,-6.050645560E-2,2.443456557E-3,8.910253482E-2
3.428122400E-1,6.597339362E-2,-5.928472430E-2,2.443456557E-3,8.873070314E-2
3.452580740E-1,6.536252797E-2,-5.745213106E-2,1.832591835E-3,8.704232200E-2
3.477030740E-1,6.963858008E-2,-5.806299299E-2,3.054321278E-3,9.072029469E-2
3.501472920E-1,6.536252797E-2,-5.928472430E-2,3.665185999E-3,8.831971572E-2
3.525923450E-1,7.024944574E-2,-5.928472430E-2,4.886915442E-3,9.205186095E-2
3.550381780E-1,6.841684878E-2,-6.417164207E-2,5.497780163E-3,9.396323977E-2
3.574831780E-1,7.208204269E-2,-6.294991076E-2,6.719509605E-3,9.593572824E-2
3.599273970E-1,7.147117704E-2,-6.722597033E-2,7.330374327E-3,9.839306186E-2
3.623724490E-1,7.269290835E-2,-6.844769418E-2,8.552104235E-3,1.002121961E-1
3.648182300E-1,7.330376655E-2,-6.966942549E-2,1.099556312E-2,1.017259723E-1
3.672632820E-1,7.086031139E-2,-7.089114934E-2,1.099556312E-2,1.008347222E-1
3.697075010E-1,7.452549785E-2,-7.028029114E-2,1.466075052E-2,1.034809488E-1
3.721525010E-1,7.147117704E-2,-7.333461195E-2,1.649334654E-2,1.037213813E-1
3.745983340E-1,7.452549785E-2,-7.211288065E-2,1.893680543E-2,1.054178352E-1
3.770433340E-1,7.086031139E-2,-7.699980587E-2,2.076939866E-2,1.066842151E-1
3.794876050E-1,7.696896046E-2,-7.699980587E-2,1.954766735E-2,1.106133006E-1
3.819326050E-1,7.330376655E-2,-8.066498488E-2,2.138026431E-2,1.110738389E-1
3.843784380E-1,7.269290835E-2,-8.494103700E-2,2.321285754E-2,1.141843923E-1
3.868234380E-1,7.330376655E-2,-8.799536526E-2,2.321285754E-2,1.168565927E-1
3.892676570E-1,7.024944574E-2,-9.043882042E-2,2.321285754E-2,1.168460595E-1
3.917127090E-1,7.391463220E-2,-9.410401434E-2,2.443458512E-2,1.221310252E-1
3.941584900E-1,6.963858008E-2,-9.715833515E-2,2.382372320E-2,1.218886529E-1
3.966035420E-1,7.269290835E-2,-9.410401434E-2,2.504545078E-2,1.215199533E-1
3.990477610E-1,6.902771443E-2,-9.471487254E-2,2.382372320E-2,1.195964139E-1
4.014927610E-1,6.902771443E-2,-8.921709657E-2,2.504545078E-2,1.155499471E-1
4.039385950E-1,6.658425927E-2,-8.433017880E-2,2.321285754E-2,1.099267001E-1
4.063836470E-1,6.536252797E-2,-7.699980587E-2,2.321285754E-2,1.036342941E-1
4.088278650E-1,6.352993101E-2,-7.150202245E-2,2.076939866E-2,9.787726635E-2
4.112728650E-1,6.047561020E-2,-6.294991076E-2,1.893680543E-2,8.932297181E-2
4.137186990E-1,6.047561020E-2,-5.684126541E-2,1.832593977E-2,8.499452306E-2
4.161636990E-1,5.436696112E-2,-5.561953783E-2,1.710420847E-2,7.963575452E-2
4.186079700E-1,5.436696112E-2,-4.645656422E-2,1.649334654E-2,7.338943589E-2
4.210529700E-1,4.886918142E-2,-4.645656422E-2,1.527161431E-2,6.913487872E-2
4.234988030E-1,5.070177466E-2,-4.156964645E-2,1.404988673E-2,6.705299976E-2
4.259438030E-1,4.642572254E-2,-4.279137775E-2,1.343902200E-2,6.455274615E-2
4.283880220E-1,4.581485689E-2,-3.851532191E-2,1.343902200E-2,6.134360966E-2
4.308330740E-1,4.459312558E-2,-3.668272868E-2,1.221729256E-2,5.902060377E-2
4.332788550E-1,4.031707346E-2,-3.240667656E-2,1.282815635E-2,5.329372096E-2
4.357239070E-1,4.214967042E-2,-3.118494712E-2,1.282815635E-2,5.397830341E-2
4.381681260E-1,3.665188700E-2,-2.935235202E-2,1.282815635E-2,4.867733544E-2
4.406131780E-1,3.787361458E-2,-2.690889314E-2,1.282815635E-2,4.819814111E-2
4.430589590E-1,3.237583116E-2,-2.813062444E-2,1.343902200E-2,4.494589845E-2
4.455040110E-1,3.237583116E-2,-2.385457046E-2,1.466075052E-2,4.280388511E-2
4.479482300E-1,2.871064469E-2,-2.446543425E-2,1.466075052E-2,4.046969480E-2
4.503932300E-1,2.809977904E-2,-2.141111158E-2,1.404988673E-2,3.801884530E-2
4.528390630E-1,2.687805146E-2,-2.324370667E-2,1.466075052E-2,3.844004625E-2
4.552840630E-1,2.321286127E-2,-2.080024779E-2,1.466075052E-2,3.444451832E-2
4.577283340E-1,2.504545450E-2,-2.202197537E-2,1.588248089E-2,3.693907673E-2
4.601733340E-1,2.015853673E-2,-2.080024779E-2,1.404988673E-2,3.219341902E-2
4.626191670E-1,2.260199562E-2,-1.835678890E-2,1.404988673E-2,3.232988125E-2
4.650641670E-1,1.710421406E-2,-1.774592325E-2,1.160642691E-2,2.724300050E-2
4.675083860E-1,1.954767480E-2,-1.285900641E-2,1.038469747E-2,2.559897611E-2
4.699534380E-1,1.343902573E-2,-1.346987206E-2,9.773833677E-3,2.139094880E-2
4.723992720E-1,1.404989138E-2,-1.224814076E-2,8.552104235E-3,2.050743491E-2
4.748442720E-1,1.221729629E-2,-1.285900641E-2,5.497780163E-3,1.856992087E-2
4.772884900E-1,1.038470119E-2,-1.224814076E-2,4.276050720E-3,1.661756843E-2
4.797335420E-1,1.160643063E-2,-1.530246530E-2,1.832591835E-3,1.929334261E-2
4.821793240E-1,5.497783888E-3,-1.713505760E-2,1.832591835E-3,1.808851070E-2
4.846243760E-1,6.108648609E-3,-1.774592325E-2,-6.108670495E-4,1.877782039E-2
4.870685950E-1,1.832595561E-3,-2.324370667E-2,-1.832596492E-3,2.338774714E-2
4.895135950E-1,4.276054446E-3,-2.202197537E-2,-3.665191121E-3,2.273072077E-2
4.919594280E-1,6.108661182E-4,-2.629802935E-2,-3.665191121E-3,2.655923815E-2
4.944044800E-1,1.221730839E-3,-2.385457046E-2,-4.276054911E-3,2.426556828E-2
4.968486990E-1,-1.832592767E-3,-2.507629991E-2,-3.054325469E-3,2.532801053E-2
4.992936990E-1,-3.665186930E-3,-2.446543425E-2,-4.276054911E-3,2.510529255E-2
5.017395320E-1,-2.443457488E-3,-2.385457046E-2,-3.665191121E-3,2.425787795E-2
5.041845320E-1,-6.108645815E-3,-2.446543425E-2,-4.276054911E-3,2.557650626E-2
5.066288030E-1,-4.276051652E-3,-2.080024779E-2,-4.886920564E-3,2.179029413E-2
5.090738030E-1,-9.162969887E-3,-2.385457046E-2,-2.443461679E-3,2.567043151E-2
5.115196360E-1,-7.330375258E-3,-2.018938214E-2,-2.443461679E-3,2.161749424E-2
5.139646360E-1,-1.282815821E-2,-1.957851648E-2,-1.832596492E-3,2.347846589E-2
5.164088550E-1,-1.221729256E-2,-1.713505760E-2,-2.443461679E-3,2.118591375E-2
5.188539070E-1,-1.343902200E-2,-1.713505760E-2,-3.054325469E-3,2.198968884E-2
5.212997400E-1,-1.343902200E-2,-1.408073585E-2,-2.443461679E-3,1.961746517E-2
5.237447400E-1,-1.343902200E-2,-1.041554753E-2,-2.328306437E-9,1.700267458E-2
5.261889590E-1,-1.649334654E-2,-7.972088642E-3,6.108623929E-4,1.832915247E-2
5.286340110E-1,-1.466075145E-2,-1.863441197E-3,6.108623929E-4,1.479132174E-2
5.310797920E-1,-1.893680543E-2,-3.085170640E-3,1.221727114E-3,1.922533471E-2
5.335248450E-1,-1.404988766E-2,1.801747130E-3,1.832591835E-3,1.428299789E-2
5.359690630E-1,-1.893680543E-2,1.801747130E-3,3.054321278E-3,1.926597444E-2
5.384140630E-1,-1.710421033E-2,4.245205782E-3,4.276050720E-3,1.813450835E-2
5.408598970E-1,-2.015853301E-2,3.023478435E-3,6.108644884E-3,2.127964796E-2
5.433049490E-1,-2.138026431E-2,3.023478435E-3,6.719509605E-3,2.261435237E-2
5.457491670E-1,-2.076939866E-2,4.245205782E-3,8.552104235E-3,2.285887529E-2
5.481941670E-1,-2.443458512E-2,1.801747130E-3,8.552104235E-3,2.595060172E-2
5.506400010E-1,-2.076939866E-2,3.634340363E-3,9.162968025E-3,2.298991809E-2
5.530850530E-1,-2.382372320E-2,1.190881478E-3,8.552104235E-3,2.534021453E-2
5.555292720E-1,-2.015853301E-2,3.023478435E-3,7.941238582E-3,2.187626899E-2
5.579742720E-1,-2.382372320E-2,2.412612783E-3,8.552104235E-3,2.542693403E-2
5.604201050E-1,-2.138026431E-2,3.634340363E-3,7.941238582E-3,2.309518136E-2
5.628651050E-1,-2.138026431E-2,4.856071435E-3,7.941238582E-3,2.331867068E-2
5.653093760E-1,-2.076939866E-2,7.910395972E-3,7.330374327E-3,2.340249288E-2
5.677543760E-1,-1.832594164E-2,1.218644809E-2,6.108644884E-3,2.283999116E-2
5.702002090E-1,-2.199112624E-2,1.401904132E-2,3.665185999E-3,2.633584518E-2
5.726452090E-1,-1.832594164E-2,2.012768760E-2,3.054321278E-3,2.739147356E-2
5.750894280E-1,-2.138026431E-2,2.134941891E-2,-6.108670495E-4,3.022063117E-2
5.775344800E-1,-1.893680543E-2,2.684720233E-2,-2.443461679E-3,3.294458040E-2
5.799803130E-1,-2.138026431E-2,2.562547103E-2,-4.276054911E-3,3.364617531E-2
5.824253130E-1,-1.954766735E-2,2.745806798E-2,-6.719513796E-3,3.436871633E-2
5.848695320E-1,-2.015853301E-2,2.562547103E-2,-9.773838334E-3,3.403761352E-2
5.873145840E-1,-1.832594164E-2,2.501460537E-2,-9.162972681E-3,3.233466696E-2
5.897603650E-1,-1.649334654E-2,2.440374345E-2,-1.099556778E-2,3.144003316E-2
5.922054170E-1,-1.954766735E-2,2.257115021E-2,-1.466075610E-2,3.326418330E-2
5.946496360E-1,-1.404988766E-2,2.134941891E-2,-1.527161989E-2,2.977279639E-2
5.970946880E-1,-1.893680543E-2,1.768423244E-2,-1.771507785E-2,3.138723722E-2
5.995404700E-1,-1.343902200E-2,1.707336679E-2,-1.588248461E-2,2.691394589E-2
6.019855220E-1,-1.649334654E-2,1.462990697E-2,-1.771507785E-2,2.828230262E-2
6.044297400E-1,-1.282815821E-2,1.279731374E-2,-1.710421592E-2,2.491760591E-2
6.068747400E-1,-1.343902200E-2,1.157558244E-2,-1.649335027E-2,2.422048770E-2
6.093205740E-1,-1.527161710E-2,1.157558244E-2,-1.588248461E-2,2.488914854E-2
6.117655740E-1,-1.099556312E-2,9.742989205E-3,-1.466075610E-2,2.075490343E-2
6.142098450E-1,-1.466075145E-2,9.742989205E-3,-1.404989045E-2,2.252249749E-2
6.166548450E-1,-9.162969887E-3,7.299530320E-3,-1.343902666E-2,1.782836497E-2
6.191006780E-1,-1.282815821E-2,4.856071435E-3,-1.221729722E-2,1.836859887E-2
6.215456780E-1,-6.108645815E-3,6.077799015E-3,-1.099556778E-2,1.396988566E-2
6.239899490E-1,-8.552104235E-3,4.245205782E-3,-9.773838334E-3,1.366338811E-2
6.264349490E-1,-7.941240445E-3,9.132123552E-3,-1.038470212E-2,1.594681845E-2
6.288807820E-1,-1.099556312E-2,1.157558244E-2,-7.941243239E-3,1.783142903E-2
6.313257820E-1,-1.221729256E-2,1.890596002E-2,-4.886920564E-3,2.303431255E-2
6.337700010E-1,-1.221729256E-2,2.684720233E-2,-3.665191121E-3,2.972319190E-2
6.362150530E-1,-1.588248275E-2,3.723190352E-2,-1.221731771E-3,4.049642610E-2
6.386608860E-1,-1.282815821E-2,5.128179118E-2,1.221727114E-3,5.287604720E-2
6.411058860E-1,-1.710421033E-2,6.166649610E-2,5.497780163E-3,6.423033815E-2
6.435501050E-1,-1.404988766E-2,7.693811506E-2,8.552104235E-3,7.867662537E-2
6.459951570E-1,-1.649334654E-2,8.610107750E-2,1.038469747E-2,8.827948781E-2
6.484409380E-1,-1.099556312E-2,9.831837565E-2,1.527161431E-2,1.001030849E-1
6.508859900E-1,-1.099556312E-2,1.025944278E-1,1.832593977E-2,1.047967513E-1
6.533302090E-1,-7.941240445E-3,1.068704799E-1,2.138026431E-2,1.092770720E-1
6.557752610E-1,-4.886916373E-3,1.074813381E-1,2.382372320E-2,1.101984109E-1
6.582210420E-1,-7.330375258E-3,1.025944278E-1,2.626718208E-2,1.061570340E-1
6.606660950E-1,-1.221728045E-3,9.709664434E-2,2.809977531E-2,1.010883195E-1
6.631103130E-1,-5.497781094E-3,8.854454011E-2,2.809977531E-2,9.305889830E-2
6.655553650E-1,-6.108633243E-4,7.999243587E-2,2.871064097E-2,8.499096338E-2
6.680011470E-1,-1.221728045E-3,6.838599592E-2,2.993236855E-2,7.465978666E-2
6.704461990E-1,2.443460282E-3,5.861216411E-2,3.115409985E-2,6.642239244E-2
6.728904170E-1,2.443460282E-3,4.883832857E-2,2.871064097E-2,5.670497104E-2
6.753354170E-1,3.665189724E-3,3.906449303E-2,2.809977531E-2,4.826039374E-2
6.777812510E-1,5.497783888E-3,3.173412010E-2,2.687804401E-2,4.194888861E-2
6.802263030E-1,1.832595561E-3,2.623633668E-2,2.260199189E-2,3.467785758E-2
6.826705220E-1,4.276054446E-3,2.562547103E-2,2.260199189E-2,3.443543879E-2
6.851155220E-1,1.396983862E-9,2.501460537E-2,1.893680543E-2,3.137408296E-2
6.875613550E-1,4.886919167E-3,2.929066122E-2,1.771507412E-2,3.457815300E-2
6.900063550E-1,6.108661182E-4,3.234498575E-2,1.771507412E-2,3.688353443E-2
6.924506260E-1,3.665189724E-3,3.967535868E-2,1.893680543E-2,4.411542023E-2
6.948956260E-1,1.832595561E-3,4.517314211E-2,1.893680543E-2,4.901605629E-2
6.973414590E-1,1.832595561E-3,5.128179118E-2,1.954766735E-2,5.491167282E-2
6.997864590E-1,3.054325003E-3,6.105562672E-2,2.076939866E-2,6.456381631E-2
7.022307300E-1,-1.221728045E-3,6.899686903E-2,2.260199189E-2,7.261480973E-2
7.046757300E-1,-1.221728045E-3,7.754897326E-2,2.626718208E-2,8.188590067E-2
7.071215630E-1,-7.330375258E-3,8.487934619E-2,2.993236855E-2,9.030052324E-2
7.095665630E-1,-6.108645815E-3,9.282059222E-2,3.420842439E-2,9.911202850E-2
7.120107820E-1,-1.343902200E-2,9.892923385E-2,3.787361085E-2,1.067801996E-1
7.144558340E-1,-1.160642877E-2,1.074813381E-1,4.276052862E-2,1.162557957E-1
7.169016670E-1,-1.343902200E-2,1.105356589E-1,4.703658074E-2,1.208767104E-1
7.193466670E-1,-1.282815821E-2,1.172551736E-1,5.070177093E-2,1.283900579E-1
7.217908860E-1,-1.343902200E-2,1.184769049E-1,5.497782305E-2,1.313009724E-1
7.242359380E-1,-1.588248275E-2,1.215312257E-1,5.681041628E-2,1.350907676E-1
7.266817720E-1,-1.099556312E-2,1.239746884E-1,5.803214759E-2,1.373257292E-1
7.291267720E-1,-1.527161710E-2,1.227529570E-1,5.986474082E-2,1.374237896E-1
7.315709900E-1,-1.038469933E-2,1.245855466E-1,6.108646840E-2,1.391436560E-1
7.340160420E-1,-1.099556312E-2,1.215312257E-1,5.864301324E-2,1.353873858E-1
7.364618240E-1,-6.108645815E-3,1.209203675E-1,5.803214759E-2,1.342638484E-1
7.389068760E-1,-4.886916373E-3,1.172551736E-1,5.375609547E-2,1.290828242E-1
7.413510950E-1,-6.108645815E-3,1.166443154E-1,5.070177093E-2,1.273337404E-1
7.437961470E-1,-7.330375258E-3,1.142008528E-1,4.764744639E-2,1.239590591E-1
7.462419280E-1,-7.330375258E-3,1.117573902E-1,4.337139428E-2,1.201021503E-1
7.486869800E-1,-6.108645815E-3,1.080922112E-1,3.787361085E-2,1.146980910E-1
7.511311990E-1,-4.886916373E-3,1.056487486E-1,3.420842439E-2,1.111564498E-1
7.535762510E-1,-4.886916373E-3,1.038161591E-1,2.993236855E-2,1.081555524E-1
7.560220320E-1,-3.054322209E-3,9.831837565E-2,2.687804401E-2,1.019718644E-1
7.584670840E-1,-3.665186930E-3,9.648577124E-2,2.260199189E-2,9.916545610E-2
7.609113030E-1,-2.443457488E-3,9.526403993E-2,1.954766735E-2,9.727959235E-2
7.633563030E-1,-2.443457488E-3,8.915539831E-2,1.588248089E-2,9.059199044E-2
7.658021360E-1,1.396983862E-9,8.304675668E-2,1.404988673E-2,8.422685506E-2
7.682471880E-1,3.054325003E-3,7.449465245E-2,1.038469747E-2,7.527698245E-2
7.706914070E-1,7.330378052E-3,6.533167511E-2,7.330374327E-3,6.614904839E-2
7.731364070E-1,1.221729629E-2,5.006005988E-2,6.108644884E-3,5.189014806E-2
7.755822400E-1,1.527161896E-2,3.478844091E-2,5.497780163E-3,3.838858624E-2
7.780272400E-1,1.893680915E-2,1.890596002E-2,6.719509605E-3,2.758966971E-2
7.804715110E-1,2.321286127E-2,1.190881478E-3,6.719509605E-3,2.419518416E-2
7.829165110E-1,2.504545450E-2,-1.652419381E-2,9.162968025E-3,3.137329685E-2
7.853623450E-1,2.748891339E-2,-3.240667656E-2,1.038469747E-2,4.374557105E-2
7.878073970E-1,2.687805146E-2,-4.401310533E-2,1.466075052E-2,5.361455676E-2
7.902516150E-1,2.932151034E-2,-5.684126541E-2,1.771507412E-2,6.636643936E-2
7.926966150E-1,3.054323792E-2,-6.050645560E-2,2.199112624E-2,7.125679045E-2
7.951424490E-1,2.993237227E-2,-6.294991076E-2,2.565631643E-2,7.427573458E-2
7.975874490E-1,2.993237227E-2,-5.989558995E-2,3.115409985E-2,7.385124605E-2
8.000317200E-1,2.993237227E-2,-5.134348199E-2,3.420842439E-2,6.857343765E-2
8.024767200E-1,2.748891339E-2,-4.156964645E-2,3.787361085E-2,6.259461849E-2
8.049225530E-1,2.687805146E-2,-2.935235202E-2,4.214966297E-2,5.797054690E-2
8.073675530E-1,2.687805146E-2,-1.713505760E-2,4.581485316E-2,5.581254894E-2
8.098118240E-1,2.504545450E-2,-9.193818085E-3,4.764744639E-2,5.460842636E-2
8.122568240E-1,2.565632015E-2,-3.084616037E-5,5.009090528E-2,5.627918360E-2
8.147026570E-1,2.748891339E-2,4.245205782E-3,5.070177093E-2,5.783019719E-2
8.171476570E-1,2.809977904E-2,4.245205782E-3,5.131263286E-2,5.865667605E-2
8.195918760E-1,2.871064469E-2,2.412612783E-3,5.009090528E-2,5.778598974E-2
8.220369280E-1,2.748891339E-2,-2.474304987E-3,4.764744639E-2,5.506397817E-2
8.244827610E-1,2.748891339E-2,-9.804681875E-3,4.642571509E-2,5.483720605E-2
8.269277610E-1,2.565632015E-2,-1.591333002E-2,4.337139428E-2,5.284466556E-2
8.293719800E-1,2.443459257E-2,-2.263284102E-2,3.970620409E-2,5.182545176E-2
8.318170320E-1,2.382372692E-2,-2.874148823E-2,3.359755874E-2,5.022388937E-2
8.342628650E-1,2.321286127E-2,-3.485013545E-2,2.748890966E-2,5.009000922E-2
8.367078650E-1,2.382372692E-2,-4.034791887E-2,2.443458512E-2,5.284480553E-2
8.391520840E-1,2.443459257E-2,-4.401310533E-2,1.832593977E-2,5.357278063E-2
8.415971360E-1,2.382372692E-2,-4.645656422E-2,1.404988673E-2,5.406645578E-2
8.440429170E-1,2.138026804E-2,-4.523483664E-2,9.162968025E-3,5.086517758E-2
8.464879700E-1,2.015853673E-2,-4.462397099E-2,4.886915442E-3,4.920921999E-2
8.489321880E-1,1.954767480E-2,-4.034791887E-2,-6.108670495E-4,4.483792263E-2
8.513772400E-1,1.771507785E-2,-3.546100110E-2,-4.886920564E-3,3.993981190E-2
8.538230220E-1,1.466075517E-2,-3.118494712E-2,-9.162972681E-3,3.565667872E-2
8.562680740E-1,1.343902573E-2,-2.446543425E-2,-1.160643157E-2,3.023035130E-2
8.587122920E-1,1.099556684E-2,-1.774592325E-2,-1.282816101E-2,2.450269367E-2
8.611573450E-1,1.038470119E-2,-1.285900641E-2,-1.343902666E-2,2.130266421E-2
8.636031260E-1,8.552107960E-3,-6.750359200E-3,-1.343902666E-2,1.730067448E-2
8.660481780E-1,9.773837402E-3,-2.474304987E-3,-1.282816101E-2,1.631599821E-2
8.684923970E-1,1.282816008E-2,-6.417118129E-4,-9.773838334E-3,1.614005579E-2
8.709374490E-1,1.466075517E-2,-6.417118129E-4,-6.108650006E-3,1.589544404E-2
8.733832300E-1,1.649335027E-2,-2.474304987E-3,-2.443461679E-3,1.685595720E-2
8.758282820E-1,1.954767480E-2,-7.361222990E-3,2.443456557E-3,2.103020861E-2
8.782725010E-1,2.199113369E-2,-1.102641318E-2,7.330374327E-3,2.566955661E-2
8.807175530E-1,2.260199562E-2,-1.530246530E-2,1.282815635E-2,3.015919836E-2
8.831633340E-1,2.504545450E-2,-2.018938214E-2,1.710420847E-2,3.643404849E-2
8.856083860E-1,2.565632015E-2,-2.446543425E-2,2.015853301E-2,4.078198978E-2
8.880526050E-1,2.626718581E-2,-2.751975879E-2,2.382372320E-2,4.488732517E-2
8.904976570E-1,2.809977904E-2,-3.240667656E-2,2.809977531E-2,5.127755494E-2
8.929434380E-1,2.993237227E-2,-3.485013545E-2,2.993236855E-2,5.483088124E-2
8.953884900E-1,3.176496923E-2,-3.790445998E-2,3.115409985E-2,5.844945932E-2
8.978327090E-1,3.359756246E-2,-4.279137775E-2,3.176496178E-2,6.299929373E-2
9.002777610E-1,3.359756246E-2,-4.584570229E-2,3.298669308E-2,6.571717083E-2
9.027235420E-1,3.298669681E-2,-4.890002310E-2,3.176496178E-2,6.699512835E-2
9.051685950E-1,3.176496923E-2,-5.012175441E-2,2.993236855E-2,6.646164474E-2
9.076128130E-1,3.176496923E-2,-4.890002310E-2,2.809977531E-2,6.472884135E-2
9.100578130E-1,3.054323792E-2,-4.523483664E-2,2.504545078E-2,6.005293026E-2
9.125036470E-1,2.871064469E-2,-4.034791887E-2,2.076939866E-2,5.369938171E-2
9.149486990E-1,2.748891339E-2,-3.179581091E-2,1.832593977E-2,4.585252468E-2
9.173929170E-1,2.626718581E-2,-2.263284102E-2,1.404988673E-2,3.741136004E-2
9.198379170E-1,2.565632015E-2,-1.224814076E-2,1.160642691E-2,3.070786319E-2
9.222837510E-1,2.565632015E-2,-6.417118129E-4,9.773833677E-3,2.746245405E-2
9.247288030E-1,2.626718581E-2,8.521257900E-3,7.330374327E-3,2.857116158E-2
9.271730220E-1,2.687805146E-2,1.707336679E-2,6.108644884E-3,3.242290928E-2
9.296180220E-1,2.809977904E-2,2.440374345E-2,4.886915442E-3,3.753694472E-2
9.320638550E-1,3.054323792E-2,2.990152314E-2,4.886915442E-3,4.302176672E-2
9.345089070E-1,3.176496923E-2,3.234498575E-2,4.886915442E-3,4.559707574E-2
9.369531260E-1,3.298669681E-2,3.234498575E-2,7.330374327E-3,4.677664650E-2
9.393981260E-1,3.359756246E-2,2.929066122E-2,9.773833677E-3,4.563186236E-2
9.418439590E-1,3.359756246E-2,2.501460537E-2,1.038469747E-2,4.315516918E-2
9.442890110E-1,3.420842811E-2,2.196028456E-2,1.099556312E-2,4.211143622E-2
9.467332300E-1,3.237583116E-2,1.462990697E-2,1.282815635E-2,3.777287673E-2
9.491782300E-1,3.115410358E-2,7.299530320E-3,1.404988673E-2,3.494653959E-2
9.516240630E-1,3.237583116E-2,3.023478435E-3,1.527161431E-2,3.592433811E-2
9.540691150E-1,3.237583116E-2,-1.252577407E-3,1.710420847E-2,3.663764922E-2
9.565133340E-1,3.115410358E-2,-4.306900315E-3,1.893680543E-2,3.671144453E-2
9.589583340E-1,3.054323792E-2,-4.306900315E-3,2.015853301E-2,3.684840873E-2
9.614041670E-1,3.115410358E-2,-5.528629757E-3,2.076939866E-2,3.784853811E-2
9.638492200E-1,3.054323792E-2,-4.306900315E-3,2.138026431E-2,3.753071376E-2
9.662934380E-1,2.871064469E-2,-3.085170640E-3,2.015853301E-2,3.521627251E-2
9.687384380E-1,2.687805146E-2,-3.085170640E-3,1.893680543E-2,3.302348449E-2
9.711842720E-1,2.687805146E-2,-3.085170640E-3,1.954766735E-2,3.337752578E-2
9.736292720E-1,2.443459257E-2,-2.474304987E-3,1.832593977E-2,3.064329565E-2
9.760735420E-1,2.321286127E-2,-1.863441197E-3,1.527161431E-2,2.784836701E-2
9.785185420E-1,2.260199562E-2,-1.252577407E-3,1.404988673E-2,2.664241868E-2
9.809643760E-1,2.260199562E-2,-3.084616037E-5,1.221729256E-2,2.569267201E-2
9.834093760E-1,2.138026804E-2,1.190881478E-3,1.038469747E-2,2.379865546E-2
9.858536470E-1,2.076940238E-2,6.688664667E-3,9.773833677E-3,2.390887147E-2
9.882986470E-1,1.893680915E-2,1.096471678E-2,7.330374327E-3,2.307730796E-2
9.907444800E-1,1.710421406E-2,1.646250114E-2,6.108644884E-3,2.451292770E-2
9.931894800E-1,1.649335027E-2,2.196028456E-2,6.719509605E-3,2.827430831E-2
9.956337510E-1,1.527161896E-2,2.745806798E-2,7.330374327E-3,3.226301646E-2
9.980787510E-1,1.527161896E-2,3.234498575E-2,9.773833677E-3,3.708029495E-2
1.000524584E0,1.588248461E-2,3.662103787E-2,1.038469747E-2,4.124555338E-2
1.002969584E0,1.588248461E-2,4.028622434E-2,1.282815635E-2,4.516408733E-2
1.005413855E0,1.649335027E-2,4.089708999E-2,1.588248089E-2,4.687062803E-2
1.007858855E0,1.649335027E-2,4.089708999E-2,1.832593977E-2,4.775398037E-2
1.010304688E0,1.832594350E-2,3.967535868E-2,2.199112624E-2,4.892426724E-2
1.012749688E0,2.076940238E-2,3.356670961E-2,2.626718208E-2,4.741367866E-2
1.015193959E0,2.382372692E-2,2.806892991E-2,2.871064097E-2,4.668763964E-2
1.017638959E0,2.504545450E-2,1.951682568E-2,3.237582743E-2,4.534727641E-2
1.020084792E0,2.626718581E-2,8.521257900E-3,3.604101762E-2,4.540409494E-2
1.022529792E0,2.809977904E-2,-2.474304987E-3,3.848447651E-2,4.771556035E-2
1.024974063E0,2.871064469E-2,-1.346987206E-2,4.031706974E-2,5.129526961E-2
1.027419063E0,2.809977904E-2,-2.568716556E-2,4.214966297E-2,5.679808223E-2
1.029864897E0,2.809977904E-2,-3.546100110E-2,4.398225993E-2,6.309928185E-2
1.032309897E0,2.871064469E-2,-4.462397099E-2,4.153879732E-2,6.738747352E-2
1.034754167E0,2.809977904E-2,-5.012175441E-2,4.214966297E-2,7.126276683E-2
1.037199167E0,2.809977904E-2,-5.500867218E-2,3.970620409E-2,7.343115306E-2
1.039645001E0,2.687805146E-2,-5.806299299E-2,3.848447651E-2,7.466455476E-2
1.042090001E0,2.443459257E-2,-5.867385864E-2,3.726274520E-2,7.367620499E-2
1.044534272E0,2.382372692E-2,-5.745213106E-2,3.543015197E-2,7.157941741E-2
1.046979272E0,2.382372692E-2,-5.561953783E-2,3.237582743E-2,6.862431898E-2
1.049425105E0,2.199113369E-2,-5.195434764E-2,3.115409985E-2,6.444720426E-2
1.051870105E0,2.321286127E-2,-5.195434764E-2,2.809977531E-2,6.346407283E-2
1.054314324E0,2.138026804E-2,-4.706742987E-2,2.443458512E-2,5.717960971E-2
1.056759376E0,1.954767480E-2,-4.584570229E-2,2.260199189E-2,5.472467493E-2
1.059205209E0,2.015853673E-2,-4.523483664E-2,2.138026431E-2,5.394138255E-2
1.061650209E0,1.893680915E-2,-4.401310533E-2,1.832593977E-2,5.129908625E-2
1.064094480E0,1.527161896E-2,-4.218051210E-2,1.771507412E-2,4.823112893E-2
1.066539480E0,1.343902573E-2,-4.034791887E-2,1.588248089E-2,4.539620214E-2
1.068985313E0,1.099556684E-2,-3.790445998E-2,1.527161431E-2,4.231870485E-2
1.071430313E0,8.552107960E-3,-3.485013545E-2,1.649334654E-2,3.949304966E-2
1.073874584E0,8.552107960E-3,-3.240667656E-2,1.771507412E-2,3.790982837E-2
1.076319584E0,6.108648609E-3,-3.118494712E-2,1.893680543E-2,3.699214936E-2
1.078765417E0,4.276054446E-3,-3.118494712E-2,2.199112624E-2,3.839785413E-2
1.081210417E0,5.497783888E-3,-3.118494712E-2,2.321285754E-2,3.926274710E-2
1.083654688E0,6.108648609E-3,-3.485013545E-2,2.748890966E-2,4.480499618E-2
1.086099688E0,7.330378052E-3,-3.973705322E-2,3.115409985E-2,5.102299264E-2
1.088545522E0,9.162971750E-3,-4.706742987E-2,3.481928632E-2,5.925947777E-2
1.090990522E0,1.038470119E-2,-5.623039976E-2,3.726274520E-2,6.825109564E-2
1.093434792E0,8.552107960E-3,-6.600423902E-2,4.153879732E-2,7.845489024E-2
1.095879792E0,8.552107960E-3,-7.516720146E-2,4.398225993E-2,8.750820484E-2
1.098325626E0,7.941242307E-3,-8.494103700E-2,4.581485316E-2,9.683513756E-2
1.100770626E0,4.886919167E-3,-9.227142483E-2,4.764744639E-2,1.039623825E-1
1.103214897E0,3.665189724E-3,-9.838006645E-2,5.009090528E-2,1.104589059E-1
1.105659897E0,3.054325003E-3,-1.020452604E-1,5.070177093E-2,1.139878662E-1
1.108105730E0,1.396983862E-9,-1.038778499E-1,4.886917770E-2,1.147989731E-1
1.110550730E0,-6.108633243E-4,-1.069321707E-1,4.825831205E-2,1.173189114E-1
1.112995001E0,-6.108633243E-4,-1.081539020E-1,4.886917770E-2,1.186837655E-1
1.115440001E0,-1.221728045E-3,-1.093756333E-1,4.764744639E-2,1.193096850E-1
1.117885834E0,-1.832592767E-3,-1.069321707E-1,4.581485316E-2,1.163479621E-1
1.120330834E0,-3.054322209E-3,-1.032669917E-1,4.520398751E-2,1.127687942E-1
1.122775105E0,-3.665186930E-3,-9.838006645E-2,4.459312186E-2,1.080769059E-1
1.125220105E0,-4.276051652E-3,-9.166055173E-2,4.337139428E-2,1.014939368E-1
1.127665938E0,-4.276051652E-3,-8.433017880E-2,4.153879732E-2,9.410279144E-2
1.130110938E0,-3.665186930E-3,-7.516720146E-2,4.092793539E-2,8.566584889E-2
1.132555209E0,-4.276051652E-3,-6.722597033E-2,3.909534216E-2,7.788492462E-2
1.135000209E0,-3.665186930E-3,-5.989558995E-2,4.092793539E-2,7.263615619E-2
1.137446042E0,-4.276051652E-3,-5.500867218E-2,4.153879732E-2,6.906308938E-2
1.139891042E0,-4.276051652E-3,-5.073262006E-2,4.092793539E-2,6.532365002E-2
1.142335313E0,-4.886916373E-3,-4.828915745E-2,4.092793539E-2,6.348874368E-2
1.144780313E0,-4.276051652E-3,-5.073262006E-2,3.970620409E-2,6.456520734E-2
1.147226147E0,-3.054322209E-3,-5.317607522E-2,3.909534216E-2,6.607170074E-2
1.149671147E0,-1.832592767E-3,-5.745213106E-2,3.970620409E-2,6.986192384E-2
1.152115417E0,-2.443457488E-3,-6.233904883E-2,3.970620409E-2,7.395072776E-2
1.154560417E0,-3.054322209E-3,-6.539336592E-2,4.031706974E-2,7.688359580E-2
1.157006251E0,-4.276051652E-3,-6.661509722E-2,4.031706974E-2,7.798283086E-2
1.159451251E0,-6.108645815E-3,-6.966942549E-2,3.970620409E-2,8.042218005E-2
1.161895522E0,-6.719510537E-3,-6.966942549E-2,3.848447651E-2,7.987512505E-2
1.164340522E0,-8.552104235E-3,-6.966942549E-2,3.909534216E-2,8.034558552E-2
1.166786355E0,-8.552104235E-3,-7.150202245E-2,3.787361085E-2,8.136392382E-2
1.169231355E0,-9.162969887E-3,-7.455634326E-2,3.848447651E-2,8.440179660E-2
1.171675626E0,-8.552104235E-3,-7.822152972E-2,3.848447651E-2,8.759452683E-2
1.174120626E0,-9.773833677E-3,-8.188671619E-2,3.604101762E-2,8.999953924E-2
1.176566459E0,-1.038469933E-2,-8.921709657E-2,3.359755874E-2,9.589748825E-2
1.179011459E0,-1.099556312E-2,-9.532574564E-2,3.298669308E-2,1.014693161E-1
1.181455730E0,-1.282815821E-2,-1.002126560E-1,3.115409985E-2,1.057247180E-1
1.183900730E0,-1.404988766E-2,-1.044887081E-1,2.748890966E-2,1.089537958E-1
1.186346563E0,-1.649334654E-2,-1.069321707E-1,2.626718208E-2,1.113395009E-1
1.188791563E0,-1.893680543E-2,-1.093756333E-1,2.504545078E-2,1.137932615E-1
1.191235834E0,-1.893680543E-2,-1.093756333E-1,2.443458512E-2,1.136603744E-1
1.193680834E0,-1.832594164E-2,-1.069321707E-1,2.321285754E-2,1.109466810E-1
1.196126667E0,-1.832594164E-2,-1.026561186E-1,2.321285754E-2,1.068314353E-1
1.198571667E0,-1.771507598E-2,-9.960179776E-2,2.443458512E-2,1.040739688E-1
1.201015938E0,-1.832594164E-2,-9.471487254E-2,2.382372320E-2,9.936959799E-2
1.203460938E0,-1.771507598E-2,-9.166055173E-2,2.443458512E-2,9.650144875E-2
1.205906772E0,-1.893680543E-2,-9.043882042E-2,2.443458512E-2,9.557631396E-2
1.208351772E0,-2.138026431E-2,-9.104969352E-2,2.382372320E-2,9.651286018E-2
1.210796042E0,-2.076939866E-2,-9.227142483E-2,2.443458512E-2,9.768537614E-2
1.213241042E0,-2.138026431E-2,-9.104969352E-2,2.382372320E-2,9.651286018E-2
1.215686876E0,-2.076939866E-2,-9.593660384E-2,2.199112624E-2,1.005922935E-1
1.218131876E0,-2.382372320E-2,-9.715833515E-2,2.199112624E-2,1.024251996E-1
1.220576147E0,-2.260199189E-2,-1.002126560E-1,1.954766735E-2,1.045731216E-1
1.223021147E0,-2.260199189E-2,-1.020452604E-1,1.649334654E-2,1.058116992E-1
1.225466980E0,-2.199112624E-2,-1.026561186E-1,1.588248089E-2,1.061797604E-1
1.227912032E0,-2.565631643E-2,-1.032669917E-1,1.221729256E-2,1.071054638E-1
1.230356251E0,-2.260199189E-2,-1.038778499E-1,1.099556312E-2,1.068754422E-1
1.232801251E0,-2.687804401E-2,-1.050995812E-1,7.330374327E-3,1.087294146E-1
1.235247084E0,-2.260199189E-2,-1.014343873E-1,7.941238582E-3,1.042249885E-1
1.237692136E0,-2.687804401E-2,-1.032669917E-1,5.497780163E-3,1.068490824E-1
1.240136355E0,-2.443458512E-2,-1.002126560E-1,4.886915442E-3,1.032642596E-1
1.242581355E0,-2.626718208E-2,-9.960179776E-2,3.665185999E-3,1.030723850E-1
1.245027188E0,-2.565631643E-2,-9.654747695E-2,4.276050720E-3,9.998973191E-2
1.247472240E0,-2.565631643E-2,-9.654747695E-2,3.665185999E-3,9.996547137E-2
1.249916459E0,-2.871064097E-2,-9.593660384E-2,4.276050720E-3,1.002318187E-1
1.252361459E0,-2.382372320E-2,-9.410401434E-2,5.497780163E-3,9.722839548E-2
1.254807292E0,-2.687804401E-2,-9.471487254E-2,7.330374327E-3,9.872725418E-2
1.257252345E0,-2.015853301E-2,-9.166055173E-2,9.162968025E-3,9.429731268E-2
1.259696563E0,-2.138026431E-2,-8.982796222E-2,1.099556312E-2,9.298968172E-2
1.262141563E0,-1.710421033E-2,-8.433017880E-2,1.404988673E-2,8.718676725E-2
1.264587397E0,-1.588248275E-2,-8.127585799E-2,1.527161431E-2,8.420950394E-2
1.267032449E0,-1.466075145E-2,-7.577807456E-2,1.771507412E-2,7.919013871E-2
1.269476667E0,-1.221729256E-2,-7.211288065E-2,1.954766735E-2,7.570760260E-2
1.271921667E0,-1.160642877E-2,-6.966942549E-2,2.076939866E-2,7.362001058E-2
1.274367501E0,-6.108645815E-3,-6.478250772E-2,2.199112624E-2,6.868550424E-2
1.276812553E0,-8.552104235E-3,-6.417164207E-2,2.138026431E-2,6.817810377E-2
1.279256772E0,-3.665186930E-3,-6.172818318E-2,2.260199189E-2,6.583807585E-2
1.281701772E0,-6.719510537E-3,-6.233904883E-2,2.138026431E-2,6.624518498E-2
1.284147605E0,-3.054322209E-3,-5.928472430E-2,2.138026431E-2,6.309614189E-2
1.286592657E0,-3.054322209E-3,-5.867385864E-2,1.954766735E-2,6.191980193E-2
1.289036876E0,-3.054322209E-3,-5.317607522E-2,1.832593977E-2,5.632818059E-2
1.291481928E0,-1.221728045E-3,-4.828915745E-2,1.649334654E-2,5.104278428E-2
1.293927709E0,-1.832592767E-3,-4.340223968E-2,1.404988673E-2,4.565645762E-2
1.296372761E0,2.443460282E-3,-3.668272868E-2,1.282815635E-2,3.893783092E-2
1.298816980E0,1.396983862E-9,-2.996321768E-2,9.773833677E-3,3.151701506E-2
1.301262032E0,4.276054446E-3,-2.385457046E-2,8.552104235E-3,2.569948755E-2
1.303707813E0,1.832595561E-3,-2.263284102E-2,3.054321278E-3,2.291141152E-2
1.306152865E0,6.719513331E-3,-1.896765269E-2,6.108623929E-4,2.013198602E-2
1.308597084E0,6.108648609E-3,-1.957851648E-2,-1.221731771E-3,2.054571790E-2
1.311042136E0,9.162971750E-3,-1.896765269E-2,-4.886920564E-3,2.162438190E-2
1.313487917E0,1.221729629E-2,-1.957851648E-2,-7.941243239E-3,2.440581858E-2
1.315932970E0,1.038470119E-2,-2.446543425E-2,-8.552108891E-3,2.792020878E-2
1.318377188E0,1.649335027E-2,-2.568716556E-2,-9.773838334E-3,3.205290928E-2
1.320822240E0,1.527161896E-2,-2.874148823E-2,-1.099556778E-2,3.435400999E-2
1.323268022E0,1.649335027E-2,-3.240667656E-2,-1.343902666E-2,3.876636076E-2
1.325713074E0,1.832594350E-2,-3.912618756E-2,-1.527161989E-2,4.582489643E-2
1.328157292E0,2.015853673E-2,-4.462397099E-2,-1.710421592E-2,5.186732682E-2
1.330602345E0,2.138026804E-2,-4.828915745E-2,-1.832594350E-2,5.589989977E-2
1.333048126E0,2.199113369E-2,-5.439780653E-2,-1.954767480E-2,6.184531434E-2
1.335493178E0,2.260199562E-2,-5.928472430E-2,-2.076940238E-2,6.675999413E-2
1.337937397E0,2.443459257E-2,-6.356077641E-2,-2.076940238E-2,7.119262383E-2
1.340382449E0,2.565632015E-2,-6.844769418E-2,-2.260199562E-2,7.651263823E-2
1.342828230E0,2.504545450E-2,-7.211288065E-2,-2.321286127E-2,7.978959377E-2
1.345273282E0,2.565632015E-2,-7.638893276E-2,-2.565632015E-2,8.456809432E-2
1.347717501E0,2.565632015E-2,-7.944326103E-2,-2.565632015E-2,8.733684933E-2
1.350162553E0,2.626718581E-2,-8.433017880E-2,-2.626718581E-2,9.214938500E-2
1.352608386E0,2.809977904E-2,-8.616276830E-2,-2.993237227E-2,9.544405238E-2
1.355053386E0,2.871064469E-2,-8.860623091E-2,-3.054323792E-2,9.802170504E-2
1.357497605E0,2.871064469E-2,-8.921709657E-2,-3.237583116E-2,9.915737936E-2
1.359942657E0,2.748891339E-2,-9.227142483E-2,-3.543015569E-2,1.025911893E-1
1.362388490E0,2.748891339E-2,-8.921709657E-2,-3.665188700E-2,1.002930282E-1
1.364833490E0,2.809977904E-2,-8.860623091E-2,-3.970620781E-2,1.010803872E-1
1.367277709E0,2.687805146E-2,-8.433017880E-2,-4.214966670E-2,9.803368354E-2
1.369722761E0,2.626718581E-2,-7.883239537E-2,-4.520399123E-2,9.459340587E-2
1.372168595E0,2.565632015E-2,-7.272375375E-2,-4.703658447E-2,9.032957103E-2
1.374613595E0,2.565632015E-2,-6.783682853E-2,-4.825831577E-2,8.711456313E-2
1.377057813E0,2.504545450E-2,-5.745213106E-2,-5.131264031E-2,8.100005685E-2
1.379502865E0,2.321286127E-2,-4.645656422E-2,-5.314523354E-2,7.430656186E-2
1.381948699E0,2.321286127E-2,-3.729359433E-2,-5.619955808E-2,7.133049442E-2
1.384393699E0,2.382372692E-2,-2.629802935E-2,-5.619955808E-2,6.646462699E-2
1.386837917E0,2.260199562E-2,-1.530246530E-2,-5.986474827E-2,6.579364510E-2
1.389282970E0,2.199113369E-2,-3.085170640E-3,-6.047561392E-2,6.442381639E-2
1.391728803E0,2.138026804E-2,8.521257900E-3,-6.352993101E-2,6.757055447E-2
1.394173803E0,2.138026804E-2,1.585163549E-2,-6.352993101E-2,6.887991248E-2
1.396618022E0,2.199113369E-2,2.196028456E-2,-6.291906536E-2,7.017601331E-2
1.399063074E0,2.260199562E-2,2.684720233E-2,-6.475166231E-2,7.365052784E-2
1.401508907E0,2.138026804E-2,3.478844091E-2,-6.414079666E-2,7.603547382E-2
1.403953907E0,2.199113369E-2,3.845363483E-2,-6.230820343E-2,7.645001116E-2
1.406398178E0,2.138026804E-2,4.272968695E-2,-6.047561392E-2,7.707296470E-2
1.408843178E0,2.260199562E-2,4.517314211E-2,-5.925388262E-2,7.786196490E-2
1.411289011E0,2.076940238E-2,4.700573906E-2,-5.619955808E-2,7.615312146E-2
1.413734011E0,1.954767480E-2,4.883832857E-2,-5.192350224E-2,7.391443710E-2
1.416178282E0,1.954767480E-2,4.822747037E-2,-4.886917770E-2,7.138765312E-2
1.418623282E0,1.832594350E-2,4.761660472E-2,-4.398225993E-2,6.736186190E-2
1.421069115E0,1.893680915E-2,4.639487341E-2,-4.031707346E-2,6.431604335E-2
1.423514115E0,1.893680915E-2,4.334054515E-2,-3.787361458E-2,6.059221300E-2
1.425958386E0,1.710421406E-2,4.150795564E-2,-3.237583116E-2,5.535032939E-2
1.428403386E0,1.710421406E-2,3.906449303E-2,-2.993237227E-2,5.210120598E-2
1.430849220E0,1.771507785E-2,3.662103787E-2,-2.748891339E-2,4.909750255E-2
1.433294220E0,1.832594350E-2,3.295585141E-2,-2.321286127E-2,4.428052930E-2
1.435738490E0,1.832594350E-2,2.806892991E-2,-1.954767480E-2,3.880485307E-2
1.438183490E0,1.832594350E-2,2.196028456E-2,-1.832594350E-2,3.396961154E-2
1.440629324E0,1.954767480E-2,1.707336679E-2,-1.588248461E-2,3.042802592E-2
1.443074376E0,2.015853673E-2,1.157558244E-2,-1.466075610E-2,2.748269422E-2
1.445518595E0,2.076940238E-2,6.077799015E-3,-1.527161989E-2,2.648641332E-2
1.447963595E0,2.138026804E-2,1.190881478E-3,-1.282816101E-2,2.496188645E-2
1.450409428E0,2.199113369E-2,-3.085170640E-3,-1.221729722E-2,2.534542543E-2
1.452854480E0,2.199113369E-2,-6.750359200E-3,-1.221729722E-2,2.604687432E-2
1.455298699E0,2.260199562E-2,-1.102641318E-2,-1.099556778E-2,2.744693980E-2
1.457743699E0,2.321286127E-2,-1.530246530E-2,-1.099556778E-2,2.989824214E-2
1.460189532E0,2.138026804E-2,-1.957851648E-2,-9.773838334E-3,3.059349743E-2
1.462634584E0,2.321286127E-2,-2.446543425E-2,-1.038470212E-2,3.528790784E-2
1.465078803E0,2.321286127E-2,-2.874148823E-2,-1.038470212E-2,3.837645258E-2
1.467523803E0,2.382372692E-2,-3.301754221E-2,-1.099556778E-2,4.217381378E-2
1.469969636E0,2.382372692E-2,-3.729359433E-2,-8.552108891E-3,4.507239409E-2
1.472414688E0,2.382372692E-2,-4.156964645E-2,-8.552108891E-3,4.866974457E-2
1.474858907E0,2.260199562E-2,-4.645656422E-2,-6.719513796E-3,5.209812310E-2
1.477303959E0,2.260199562E-2,-5.012175441E-2,-6.108650006E-3,5.532048514E-2
1.479749740E0,2.382372692E-2,-5.439780653E-2,-4.886920564E-3,5.958668737E-2
1.482194792E0,2.382372692E-2,-5.867385864E-2,-4.276054911E-3,6.347027886E-2
1.484639011E0,2.260199562E-2,-6.356077641E-2,-1.832596492E-3,6.748467170E-2
1.487084063E0,2.321286127E-2,-6.661509722E-2,-2.328306437E-9,7.054366100E-2
1.489529845E0,2.321286127E-2,-6.600423902E-2,6.108623929E-4,6.996977669E-2
1.491974897E0,2.321286127E-2,-6.966942549E-2,1.221727114E-3,7.344493443E-2
1.494419115E0,2.199113369E-2,-6.966942549E-2,3.665185999E-3,7.314965753E-2
1.496864167E0,2.138026804E-2,-6.905855983E-2,6.719509605E-3,7.260407948E-2
1.499309949E0,2.076940238E-2,-6.966942549E-2,7.330374327E-3,7.306799101E-2
1.501755001E0,2.015853673E-2,-6.966942549E-2,9.162968025E-3,7.310373064E-2
1.504199220E0,1.893680915E-2,-7.028029114E-2,1.099556312E-2,7.361266516E-2
1.506644272E0,1.832594350E-2,-7.211288065E-2,1.221729256E-2,7.540139255E-2
1.509090053E0,1.710421406E-2,-7.272375375E-2,1.404988673E-2,7.601774671E-2
1.511535105E0,1.832594350E-2,-7.211288065E-2,1.466075052E-2,7.583564707E-2
1.513979324E0,1.588248461E-2,-7.394547760E-2,1.466075052E-2,7.703975974E-2
1.516424376E0,1.404989138E-2,-7.516720146E-2,1.466075052E-2,7.786170579E-2
1.518870209E0,1.282816008E-2,-7.638893276E-2,1.588248089E-2,7.907012039E-2
1.521315209E0,1.160643063E-2,-7.638893276E-2,1.527161431E-2,7.876039921E-2
1.523759428E0,1.038470119E-2,-7.577807456E-2,1.527161431E-2,7.799603071E-2
1.526204480E0,8.552107960E-3,-7.699980587E-2,1.649334654E-2,7.920946367E-2
1.528650313E0,5.497783888E-3,-7.455634326E-2,1.649334654E-2,7.655654399E-2
1.531095313E0,4.276054446E-3,-7.455634326E-2,1.588248089E-2,7.634910714E-2
1.533539532E0,2.443460282E-3,-7.394547760E-2,1.527161431E-2,7.554552508E-2
1.535984584E0,6.108661182E-4,-7.272375375E-2,1.343902200E-2,7.395758804E-2
1.538430417E0,-1.221728045E-3,-7.333461195E-2,1.343902200E-2,7.456584501E-2
1.540875417E0,-3.054322209E-3,-7.333461195E-2,1.282815635E-2,7.451077633E-2
1.543319636E0,-4.276051652E-3,-7.150202245E-2,1.038469747E-2,7.237862787E-2
1.545764688E0,-6.719510537E-3,-7.272375375E-2,9.773833677E-3,7.368462530E-2
1.548210522E0,-8.552104235E-3,-7.333461195E-2,9.773833677E-3,7.447571162E-2
1.550655522E0,-1.160642877E-2,-7.272375375E-2,8.552104235E-3,7.413900482E-2
1.553099740E0,-1.404988766E-2,-7.028029114E-2,6.719509605E-3,7.198521011E-2
1.555544792E0,-1.527161710E-2,-6.966942549E-2,4.886915442E-3,7.149079017E-2
1.557990626E0,-1.771507598E-2,-6.905855983E-2,4.276050720E-3,7.142263796E-2
1.560435626E0,-1.954766735E-2,-6.905855983E-2,4.886915442E-3,7.193801448E-2
1.562879897E0,-2.138026431E-2,-6.600423902E-2,3.665185999E-3,6.947739819E-2
1.565324897E0,-2.382372320E-2,-6.417164207E-2,3.054321278E-3,6.851932801E-2
1.567770730E0,-2.504545078E-2,-6.356077641E-2,2.443456557E-3,6.836093462E-2
1.570215730E0,-2.687804401E-2,-6.050645560E-2,6.108623929E-4,6.621052463E-2
1.572660001E0,-2.871064097E-2,-5.623039976E-2,1.221727114E-3,6.314785332E-2
1.575105001E0,-2.932150289E-2,-5.195434764E-2,-2.328306437E-9,5.965739494E-2
1.577550834E0,-2.993236855E-2,-4.951088876E-2,-6.108670495E-4,5.785886234E-2
1.579995886E0,-3.176496178E-2,-4.523483664E-2,-1.221731771E-3,5.528739342E-2
1.582440105E0,-3.420842066E-2,-4.218051210E-2,-1.832596492E-3,5.433939690E-2
1.584885105E0,-3.481928632E-2,-3.912618756E-2,-2.443461679E-3,5.243292628E-2
1.587330938E0,-3.665187955E-2,-3.607186675E-2,-3.054325469E-3,5.151571362E-2
1.589775990E0,-3.604101390E-2,-3.423926979E-2,-4.886920564E-3,4.995161931E-2
1.592220209E0,-3.787361085E-2,-3.179581091E-2,-6.719513796E-3,4.990526882E-2
1.594665209E0,-3.726274520E-2,-3.179581091E-2,-5.497784354E-3,4.929210286E-2
1.597111042E0,-3.787361085E-2,-3.057408333E-2,-9.162972681E-3,4.952923418E-2
1.599556095E0,-3.726274520E-2,-2.996321768E-2,-9.773838334E-3,4.880404194E-2
1.602000313E0,-3.726274520E-2,-2.874148823E-2,-1.221729722E-2,4.861941667E-2
1.604445313E0,-3.665187955E-2,-2.690889314E-2,-1.404989045E-2,4.759042158E-2
1.606891147E0,-3.543015197E-2,-2.751975879E-2,-1.527161989E-2,4.739045438E-2
1.609336199E0,-3.543015197E-2,-2.813062444E-2,-1.710421592E-2,4.836508971E-2
1.611780417E0,-3.604101390E-2,-2.874148823E-2,-1.649335027E-2,4.895976339E-2
1.614225470E0,-3.543015197E-2,-3.057408333E-2,-1.649335027E-2,4.961956109E-2
1.616671251E0,-3.359755874E-2,-3.240667656E-2,-1.832594350E-2,5.014806919E-2
1.619116303E0,-3.176496178E-2,-3.485013545E-2,-1.832594350E-2,5.059036413E-2
1.621560522E0,-3.115409613E-2,-3.729359433E-2,-2.076940238E-2,5.284655106E-2
1.624005574E0,-2.993236855E-2,-3.973705322E-2,-2.076940238E-2,5.391055704E-2
1.626451355E0,-2.809977531E-2,-4.462397099E-2,-2.199113369E-2,5.713585669E-2
1.628896407E0,-2.993236855E-2,-4.401310533E-2,-2.199113369E-2,5.759088547E-2
1.631340626E0,-2.871064097E-2,-4.340223968E-2,-2.382372692E-2,5.723307853E-2
1.633785678E0,-2.809977531E-2,-4.401310533E-2,-2.626718581E-2,5.845268055E-2
1.636231511E0,-2.871064097E-2,-4.340223968E-2,-2.626718581E-2,5.829254124E-2
1.638676511E0,-2.626718208E-2,-4.279137775E-2,-2.626718581E-2,5.666596787E-2
1.641120730E0,-2.748890966E-2,-3.973705322E-2,-2.993237227E-2,5.683854733E-2
1.643565782E0,-2.932150289E-2,-3.790445998E-2,-3.054323792E-2,5.682770452E-2
1.646011615E0,-3.115409613E-2,-3.179581091E-2,-3.481929004E-2,5.651490295E-2
1.648456615E0,-3.420842066E-2,-2.690889314E-2,-3.543015569E-2,5.612130172E-2
1.650900834E0,-3.909533843E-2,-1.957851648E-2,-3.665188700E-2,5.705369940E-2
1.653345886E0,-4.092793167E-2,-1.041554753E-2,-3.787361458E-2,5.672732941E-2
1.655791720E0,-4.581484944E-2,3.023478435E-3,-4.031707346E-2,6.110325902E-2
1.658236720E0,-4.764744639E-2,1.646250114E-2,-4.092793912E-2,6.493373000E-2
1.660680938E0,-5.009090528E-2,3.051238880E-2,-4.092793912E-2,7.152063242E-2
1.663125990E0,-5.009090528E-2,4.150795564E-2,-4.153880477E-2,7.718472307E-2
1.665571824E0,-5.131263286E-2,5.250352249E-2,-4.153880477E-2,8.435092451E-2
1.668016824E0,-5.009090528E-2,6.105562672E-2,-3.970620781E-2,8.839384189E-2
1.670461095E0,-5.131263286E-2,6.777513772E-2,-3.848448023E-2,9.331404397E-2
1.672906095E0,-5.070176721E-2,6.899686903E-2,-3.665188700E-2,9.313752173E-2
1.675351928E0,-4.886917397E-2,6.960772723E-2,-3.298669681E-2,9.122255215E-2
1.677796928E0,-4.764744639E-2,6.716427952E-2,-3.237583116E-2,8.848454122E-2
1.680241199E0,-4.520398751E-2,6.288821250E-2,-2.932151034E-2,8.281351778E-2
1.682686199E0,-4.276052862E-2,5.433611199E-2,-2.748891339E-2,7.440776998E-2
1.685132032E0,-4.031706974E-2,4.639487341E-2,-2.321286127E-2,6.570226267E-2
1.687577032E0,-3.665187955E-2,3.478844091E-2,-2.015853673E-2,5.440553739E-2
1.690021303E0,-3.298669308E-2,2.440374345E-2,-1.771507785E-2,4.469327240E-2
1.692466303E0,-2.932150289E-2,1.340817567E-2,-1.649335027E-2,3.621547059E-2
1.694912136E0,-2.504545078E-2,-3.084616037E-5,-1.588248461E-2,2.965685205E-2
1.697357136E0,-2.260199189E-2,-1.163727697E-2,-1.527161989E-2,2.965634210E-2
1.699801407E0,-2.015853301E-2,-2.018938214E-2,-1.466075610E-2,3.207671077E-2
1.702246407E0,-1.893680543E-2,-2.874148823E-2,-1.527161989E-2,3.765498798E-2
1.704692240E0,-2.015853301E-2,-3.240667656E-2,-1.649335027E-2,4.157631227E-2
1.707137292E0,-2.015853301E-2,-3.362840414E-2,-1.893680915E-2,4.354123056E-2
1.709581511E0,-2.076939866E-2,-2.935235202E-2,-1.954767480E-2,4.092725351E-2
1.712026511E0,-2.138026431E-2,-2.385457046E-2,-2.260199562E-2,3.920467370E-2
1.714472345E0,-2.138026431E-2,-1.469159964E-2,-2.504545450E-2,3.605875197E-2
1.716917397E0,-2.260199189E-2,-6.750359200E-3,-2.565632015E-2,3.485203223E-2
1.719361615E0,-2.260199189E-2,2.412612783E-3,-2.871064469E-2,3.661928258E-2
1.721806615E0,-2.443458512E-2,1.035385113E-2,-2.871064469E-2,3.909670449E-2
1.724252449E0,-2.565631643E-2,1.768423244E-2,-3.115410358E-2,4.406310043E-2
1.726697501E0,-2.748890966E-2,2.501460537E-2,-3.054323792E-2,4.810675648E-2
1.729141720E0,-2.809977531E-2,2.990152314E-2,-3.359756246E-2,5.303295827E-2
1.731586772E0,-2.871064097E-2,3.417757526E-2,-3.420842439E-2,5.623721059E-2
1.734032553E0,-2.993236855E-2,3.539930657E-2,-3.543015569E-2,5.834683817E-2
1.736477605E0,-2.993236855E-2,3.601017222E-2,-3.543015569E-2,5.871946119E-2
1.738921824E0,-3.176496178E-2,3.417757526E-2,-3.481929004E-2,5.821943324E-2
1.741366876E0,-3.115409613E-2,3.173412010E-2,-3.298669681E-2,5.536925366E-2
1.743812657E0,-2.932150289E-2,2.745806798E-2,-3.176496923E-2,5.121239400E-2
1.746257709E0,-2.687804401E-2,2.318201214E-2,-2.871064469E-2,4.565233899E-2
1.748701928E0,-2.687804401E-2,1.829509437E-2,-2.932151034E-2,4.378231032E-2
1.751146980E0,-2.626718208E-2,1.218644809E-2,-2.748891339E-2,3.992636636E-2
1.753592813E0,-2.626718208E-2,8.521257900E-3,-2.443459257E-2,3.687310680E-2
1.756037813E0,-2.443458512E-2,3.634340363E-3,-2.199113369E-2,3.307366537E-2
1.758482032E0,-2.382372320E-2,2.412612783E-3,-2.138026804E-2,3.210150072E-2
1.760927084E0,-2.321285754E-2,-6.417118129E-4,-1.954767480E-2,3.035391473E-2
1.763372917E0,-2.443458512E-2,5.800157669E-4,-1.649335027E-2,2.948586054E-2
1.765817917E0,-2.382372320E-2,2.412612783E-3,-1.649335027E-2,2.907612578E-2
1.768262136E0,-2.260199189E-2,6.077799015E-3,-1.649335027E-2,2.863250393E-2
1.770707188E0,-2.138026431E-2,6.688664667E-3,-1.466075610E-2,2.677296597E-2
1.773153022E0,-2.138026431E-2,8.521257900E-3,-1.404989045E-2,2.696529176E-2
1.775598022E0,-2.015853301E-2,1.279731374E-2,-1.404989045E-2,2.770446018E-2
1.778042292E0,-1.710421033E-2,1.462990697E-2,-1.343902666E-2,2.621441639E-2
1.780487292E0,-1.588248275E-2,1.585163549E-2,-1.343902666E-2,2.615597529E-2
1.782933126E0,-1.282815821E-2,1.768423244E-2,-1.343902666E-2,2.564958397E-2
1.785378126E0,-1.099556312E-2,1.768423244E-2,-1.282816101E-2,2.445804981E-2
1.787822397E0,-9.162969887E-3,1.829509437E-2,-1.282816101E-2,2.415020104E-2
1.790267397E0,-7.941240445E-3,1.829509437E-2,-1.099556778E-2,2.277446571E-2
1.792713230E0,-4.276051652E-3,1.890596002E-2,-9.773838334E-3,2.170824401E-2
1.795158282E0,-1.832592767E-3,1.890596002E-2,-8.552108891E-3,2.083104143E-2
1.797602501E0,2.443460282E-3,2.073855326E-2,-5.497784354E-3,2.159360373E-2
1.800047501E0,4.276054446E-3,2.318201214E-2,-4.276054911E-3,2.395777482E-2
1.802493334E0,7.330378052E-3,2.318201214E-2,-2.328306437E-9,2.431337347E-2
1.804938386E0,1.038470119E-2,2.501460537E-2,1.221727114E-3,2.711208435E-2
1.807382605E0,1.282816008E-2,2.379287779E-2,4.276050720E-3,2.736690217E-2
1.809827605E0,1.404989138E-2,2.440374345E-2,5.497780163E-3,2.869089975E-2
1.812273438E0,1.771507785E-2,2.379287779E-2,6.719509605E-3,3.041507564E-2
1.814718490E0,1.832594350E-2,2.440374345E-2,9.773833677E-3,3.204544779E-2
1.817162709E0,2.076940238E-2,2.562547103E-2,1.099556312E-2,3.476974617E-2
1.819607709E0,2.321286127E-2,2.318201214E-2,1.343902200E-2,3.545207931E-2
1.822053542E0,2.382372692E-2,2.257115021E-2,1.343902200E-2,3.546313718E-2
1.824498595E0,2.748891339E-2,2.196028456E-2,1.527161431E-2,3.835513865E-2
1.826942813E0,2.748891339E-2,2.134941891E-2,1.588248089E-2,3.825821802E-2
1.829387865E0,3.054323792E-2,2.134941891E-2,1.649334654E-2,4.075190242E-2
1.831833647E0,3.298669681E-2,2.196028456E-2,1.710420847E-2,4.316167527E-2
1.834278699E0,3.298669681E-2,2.318201214E-2,1.954766735E-2,4.480668647E-2
1.836722917E0,3.604102135E-2,2.440374345E-2,2.015853301E-2,4.796732603E-2
1.839167970E0,3.604102135E-2,2.684720233E-2,2.015853301E-2,4.925539509E-2
1.841613803E0,3.604102135E-2,3.051238880E-2,2.321285754E-2,5.261936759E-2
1.844058803E0,3.665188700E-2,3.417757526E-2,2.504545078E-2,5.602447747E-2
1.846503022E0,3.787361458E-2,3.845363483E-2,2.626718208E-2,6.002547432E-2
1.848948074E0,3.970620781E-2,4.272968695E-2,2.871064097E-2,6.501315244E-2
1.851393907E0,4.031707346E-2,4.517314211E-2,3.054323420E-2,6.781569388E-2
1.853838907E0,4.092793912E-2,4.822747037E-2,3.359755874E-2,7.162248984E-2
1.856283126E0,4.153880477E-2,5.311438069E-2,3.543015197E-2,7.617023964E-2
1.858728178E0,4.276053235E-2,5.677957460E-2,3.787361085E-2,8.054063334E-2
1.861174011E0,4.337139800E-2,5.983389542E-2,3.970620409E-2,8.389133357E-2
1.863619011E0,4.459312558E-2,6.166649610E-2,4.153879732E-2,8.669933836E-2
1.866063230E0,4.520399123E-2,6.594254822E-2,4.214966297E-2,9.037928179E-2
1.868508282E0,4.459312558E-2,6.655340642E-2,4.398225993E-2,9.139114806E-2
1.870954115E0,4.703658819E-2,6.472081691E-2,4.581485316E-2,9.219666773E-2
1.873399115E0,4.703658819E-2,6.472081691E-2,4.581485316E-2,9.219666773E-2
1.875843386E0,4.642572254E-2,6.105562672E-2,4.703658074E-2,8.997542551E-2
1.878288386E0,4.520399123E-2,5.739044026E-2,4.825831205E-2,8.755528618E-2
1.880734220E0,4.581485689E-2,5.372524634E-2,4.764744639E-2,8.518029322E-2
1.883179220E0,4.581485689E-2,4.883832857E-2,4.642571509E-2,8.148331406E-2
1.885623490E0,4.581485689E-2,4.639487341E-2,4.337139428E-2,7.831068402E-2
1.888068490E0,4.520399123E-2,4.334054515E-2,4.214966297E-2,7.548773255E-2
1.890514324E0,4.398226365E-2,4.028622434E-2,4.031706974E-2,7.199226000E-2
1.892959376E0,4.153880477E-2,4.028622434E-2,3.726274520E-2,6.882560826E-2
1.895403595E0,3.787361458E-2,4.211882129E-2,3.420842439E-2,6.617115752E-2
1.897848595E0,3.787361458E-2,4.211882129E-2,3.237582743E-2,6.524262403E-2
1.900294428E0,3.359756246E-2,4.456227645E-2,2.993236855E-2,6.332881945E-2
1.902739480E0,2.993237227E-2,4.822747037E-2,2.748890966E-2,6.306723367E-2
1.905183699E0,2.932151034E-2,5.311438069E-2,2.382372320E-2,6.518019785E-2
1.907628699E0,2.932151034E-2,5.677957460E-2,2.321285754E-2,6.798902718E-2
1.910074532E0,2.687805146E-2,6.044476107E-2,2.199112624E-2,6.971089172E-2
1.912519584E0,2.748891339E-2,6.533167511E-2,2.076939866E-2,7.385956981E-2
1.914963803E0,2.626718581E-2,6.777513772E-2,2.015853301E-2,7.543076824E-2
1.917408803E0,2.504545450E-2,6.899686903E-2,2.076939866E-2,7.628375087E-2
1.919854636E0,2.382372692E-2,6.960772723E-2,2.015853301E-2,7.628349826E-2
1.922299688E0,2.504545450E-2,6.960772723E-2,2.138026431E-2,7.700406602E-2
1.924743907E0,2.260199562E-2,6.716427952E-2,2.076939866E-2,7.384618182E-2
1.927188959E0,2.321286127E-2,6.410994381E-2,2.199112624E-2,7.164168798E-2
1.929634740E0,2.260199562E-2,6.044476107E-2,2.382372320E-2,6.878945510E-2
1.932079792E0,2.382372692E-2,5.739044026E-2,2.321285754E-2,6.633301857E-2
1.934524011E0,2.443459257E-2,5.433611199E-2,2.626718208E-2,6.511088415E-2
1.936969063E0,2.687805146E-2,5.067092553E-2,2.993236855E-2,6.469867874E-2
1.939414897E0,2.809977904E-2,4.822747037E-2,2.993236855E-2,6.333587583E-2
1.941859897E0,3.054323792E-2,4.517314211E-2,3.237582743E-2,6.341684597E-2
1.944304115E0,3.054323792E-2,4.395141080E-2,3.420842439E-2,6.352032898E-2
1.946749167E0,3.237583116E-2,4.089708999E-2,3.665187955E-2,6.375050343E-2
1.949195001E0,3.359756246E-2,3.723190352E-2,3.848447651E-2,6.321444277E-2
1.951640001E0,3.665188700E-2,3.417757526E-2,3.848447651E-2,6.318640996E-2
1.954084220E0,3.604102135E-2,3.295585141E-2,3.909534216E-2,6.255788631E-2
1.956529272E0,3.726275265E-2,2.929066122E-2,3.970620409E-2,6.183072224E-2
1.958975105E0,3.970620781E-2,2.623633668E-2,3.909534216E-2,6.159037327E-2
1.961420105E0,4.214967042E-2,2.379287779E-2,3.787361085E-2,6.145816585E-2
1.963864376E0,4.276053235E-2,2.134941891E-2,3.726274520E-2,6.060340745E-2
1.966309376E0,4.276053235E-2,1.768423244E-2,3.543015197E-2,5.827942066E-2
1.968755209E0,4.276053235E-2,1.707336679E-2,3.298669308E-2,5.663995852E-2
1.971200209E0,4.398226365E-2,1.646250114E-2,3.176496178E-2,5.669626316E-2
1.973644480E0,4.398226365E-2,1.768423244E-2,2.748890966E-2,5.479791737E-2
1.976089480E0,4.276053235E-2,1.829509437E-2,2.565631643E-2,5.311704225E-2
1.978535313E0,3.970620781E-2,2.073855326E-2,2.382372320E-2,5.073697189E-2
1.980980365E0,4.153880477E-2,2.196028456E-2,2.199112624E-2,5.187808818E-2
1.983424584E0,4.031707346E-2,2.440374345E-2,2.076939866E-2,5.150123326E-2
1.985869584E0,3.970620781E-2,2.562547103E-2,1.771507412E-2,5.046852044E-2
1.988315417E0,3.970620781E-2,2.501460537E-2,1.893680543E-2,5.060549398E-2
1.990760470E0,3.909534588E-2,2.379287779E-2,1.649334654E-2,4.864748281E-2
1.993204688E0,3.909534588E-2,2.196028456E-2,1.649334654E-2,4.777793055E-2
1.995649688E0,3.726275265E-2,2.073855326E-2,1.710420847E-2,4.594729887E-2
1.998095522E0,3.726275265E-2,1.646250114E-2,1.649334654E-2,4.394948417E-2
2.000540574E0,3.726275265E-2,1.340817567E-2,1.954766735E-2,4.416336954E-2
2.002984792E0,3.726275265E-2,1.035385113E-2,1.893680543E-2,4.306178780E-2
2.005429845E0,3.604102135E-2,6.077799015E-3,2.015853301E-2,4.174040385E-2
2.007875626E0,3.665188700E-2,4.245205782E-3,2.076939866E-2,4.234088466E-2
2.010320678E0,3.481929004E-2,3.023478435E-3,2.260199189E-2,4.162180220E-2
2.012764897E0,3.543015569E-2,1.801747130E-3,2.260199189E-2,4.206414462E-2
2.015209949E0,3.481929004E-2,1.801747130E-3,2.260199189E-2,4.155092405E-2
2.017655782E0,3.420842811E-2,4.245205782E-3,2.382372320E-2,4.190236405E-2
2.020100782E0,3.481929004E-2,4.856071435E-3,2.443458512E-2,4.281370504E-2
2.022545001E0,3.481929004E-2,4.856071435E-3,2.260199189E-2,4.179490910E-2
2.024990053E0,3.420842811E-2,5.466933362E-3,2.321285754E-2,4.170060755E-2
2.027435886E0,3.237583116E-2,4.856071435E-3,2.138026431E-2,3.910104314E-2
2.029880886E0,3.176496923E-2,2.412612783E-3,1.954766735E-2,3.737573102E-2
2.032325105E0,3.176496923E-2,5.800157669E-4,1.832593977E-2,3.667682861E-2
2.034770157E0,3.115410358E-2,-1.252577407E-3,1.771507412E-2,3.586043741E-2
2.037215990E0,3.054323792E-2,-2.474304987E-3,1.527161431E-2,3.423789964E-2
2.039660990E0,3.054323792E-2,-4.917764105E-3,1.282815635E-2,3.349082534E-2
2.042105209E0,2.993237227E-2,-5.528629757E-3,1.160642691E-2,3.257639947E-2
2.044550261E0,2.809977904E-2,-4.917764105E-3,1.038469747E-2,3.035825962E-2
2.046996095E0,2.871064469E-2,-6.139495410E-3,9.773833677E-3,3.094385799E-2
2.049441095E0,2.748891339E-2,-4.306900315E-3,7.330374327E-3,2.877367090E-2
2.051885365E0,2.748891339E-2,-4.306900315E-3,6.719509605E-3,2.862414294E-2
2.054330365E0,2.748891339E-2,-4.306900315E-3,4.276050720E-3,2.815092111E-2
2.056776199E0,2.748891339E-2,-4.917764105E-3,3.665185999E-3,2.816484247E-2
2.059221199E0,2.504545450E-2,-4.306900315E-3,6.108623929E-4,2.542041177E-2
2.061665470E0,2.321286127E-2,-6.750359200E-3,-6.108670495E-4,2.418217187E-2
2.064110470E0,2.382372692E-2,-7.972088642E-3,-1.832596492E-3,2.518893749E-2
2.066556303E0,2.076940238E-2,-6.750359200E-3,-3.054325469E-3,2.205140197E-2
2.069001303E0,2.076940238E-2,-7.972088642E-3,-3.665191121E-3,2.254674918E-2
2.071445574E0,1.893680915E-2,-7.972088642E-3,-6.719513796E-3,2.161732647E-2
2.073890574E0,1.893680915E-2,-6.139495410E-3,-7.941243239E-3,2.143267340E-2
2.076336407E0,1.649335027E-2,-4.917764105E-3,-9.162972681E-3,1.949807876E-2
2.078781459E0,1.466075517E-2,-2.474304987E-3,-1.099556778E-2,1.849222642E-2
2.081225678E0,1.282816008E-2,-1.863441197E-3,-1.038470212E-2,1.660951963E-2
2.083670678E0,1.221729629E-2,-3.084616037E-5,-1.099556778E-2,1.643672080E-2
2.086116511E0,8.552107960E-3,-1.252577407E-3,-1.099556778E-2,1.398606490E-2
2.088561563E0,7.941242307E-3,1.190881478E-3,-1.099556778E-2,1.361558074E-2
2.091005782E0,6.108648609E-3,3.023478435E-3,-1.038470212E-2,1.242171678E-2
2.093450834E0,4.276054446E-3,3.634340363E-3,-9.773838334E-3,1.127035879E-2
2.095896615E0,4.886919167E-3,6.688664667E-3,-9.162972681E-3,1.235233914E-2
2.098341667E0,3.665189724E-3,8.521257900E-3,-9.162972681E-3,1.303861650E-2
2.100785886E0,3.665189724E-3,9.742989205E-3,-6.719513796E-3,1.238996852E-2
2.103230938E0,3.054325003E-3,1.157558244E-2,-6.719513796E-3,1.372861521E-2
2.105676772E0,3.054325003E-3,1.340817567E-2,-5.497784354E-3,1.480991927E-2
2.108121772E0,4.276054446E-3,1.524076890E-2,-3.665191121E-3,1.624805540E-2
2.110565990E0,3.665189724E-3,1.768423244E-2,-2.443461679E-3,1.822460419E-2
2.113011042E0,3.054325003E-3,2.134941891E-2,-6.108670495E-4,2.157544316E-2
2.115456876E0,2.443460282E-3,2.318201214E-2,6.108623929E-4,2.331843344E-2
2.117901876E0,1.832595561E-3,2.501460537E-2,6.108623929E-4,2.508908211E-2
2.120346095E0,1.221730839E-3,2.562547103E-2,1.832591835E-3,2.571994915E-2
2.122791147E0,1.221730839E-3,2.501460537E-2,3.665185999E-3,2.531119706E-2
2.125236980E0,6.108661182E-4,2.318201214E-2,4.276050720E-3,2.358099773E-2
2.127681980E0,1.221730839E-3,2.134941891E-2,4.886915442E-3,2.193563896E-2
2.130126199E0,1.396983862E-9,2.073855326E-2,6.108644884E-3,2.161950817E-2
2.132571251E0,1.221730839E-3,1.890596002E-2,7.330374327E-3,2.031409211E-2
2.135017084E0,1.396983862E-9,1.646250114E-2,7.330374327E-3,1.802077500E-2
2.137462084E0,-6.108633243E-4,1.462990697E-2,7.941238582E-3,1.665744885E-2
2.139906355E0,1.396983862E-9,1.279731374E-2,7.941238582E-3,1.506102617E-2
2.142351355E0,-1.221728045E-3,9.742989205E-3,7.941238582E-3,1.262860754E-2
2.144797188E0,-6.108633243E-4,5.466933362E-3,7.330374327E-3,9.164873275E-3
2.147242188E0,-2.443457488E-3,3.023478435E-3,7.330374327E-3,8.297366697E-3
2.149686459E0,-1.832592767E-3,1.190881478E-3,7.330374327E-3,7.649247199E-3
2.152131459E0,-1.832592767E-3,-2.474304987E-3,6.108644884E-3,6.840769236E-3
2.154577292E0,-1.832592767E-3,-6.750359200E-3,4.886915442E-3,8.532742121E-3
2.157022345E0,-1.221728045E-3,-7.361222990E-3,2.443456557E-3,7.851796181E-3
2.159466563E0,-3.054322209E-3,-9.804681875E-3,1.832591835E-3,1.043163763E-2
2.161911563E0,-4.276051652E-3,-1.408073585E-2,-6.108670495E-4,1.472837053E-2
2.164357397E0,-4.886916373E-3,-1.591333002E-2,-1.832596492E-3,1.674737095E-2
2.166802449E0,-4.886916373E-3,-1.713505760E-2,-4.276054911E-3,1.832421338E-2
2.169246667E0,-4.886916373E-3,-1.957851648E-2,-6.108650006E-3,2.108354487E-2
2.171691720E0,-6.719510537E-3,-2.202197537E-2,-6.719513796E-3,2.398480950E-2
2.174137501E0,-7.330375258E-3,-2.385457046E-2,-8.552108891E-3,2.638017248E-2
2.176582553E0,-9.162969887E-3,-2.507629991E-2,-1.038470212E-2,2.864651588E-2
2.179026772E0,-9.162969887E-3,-2.629802935E-2,-1.160643157E-2,3.017044280E-2
2.181471824E0,-1.038469933E-2,-2.874148823E-2,-1.221729722E-2,3.291166172E-2
2.183917605E0,-1.282815821E-2,-2.874148823E-2,-1.404989045E-2,3.446787215E-2
2.186362657E0,-1.221729256E-2,-2.874148823E-2,-1.343902666E-2,3.399915912E-2
2.188806876E0,-1.343902200E-2,-2.874148823E-2,-1.343902666E-2,3.445704421E-2
2.191251928E0,-1.466075145E-2,-2.874148823E-2,-1.466075610E-2,3.543936439E-2
2.193697761E0,-1.649334654E-2,-2.935235202E-2,-1.527161989E-2,3.697043986E-2
2.196142761E0,-1.771507598E-2,-2.874148823E-2,-1.404989045E-2,3.656906459E-2
2.198586980E0,-1.771507598E-2,-2.996321768E-2,-1.466075610E-2,3.776977760E-2
2.201032032E0,-1.954766735E-2,-3.057408333E-2,-1.588248461E-2,3.961236155E-2
2.203477865E0,-2.138026431E-2,-3.179581091E-2,-1.466075610E-2,4.102471283E-2
2.205922865E0,-2.015853301E-2,-3.485013545E-2,-1.466075610E-2,4.284665872E-2
2.208367084E0,-2.260199189E-2,-3.546100110E-2,-1.527161989E-2,4.473874172E-2
2.210812136E0,-2.260199189E-2,-3.607186675E-2,-1.588248461E-2,4.543438044E-2
2.213257970E0,-2.504545078E-2,-3.912618756E-2,-1.588248461E-2,4.909568693E-2
2.215702970E0,-2.565631643E-2,-3.973705322E-2,-1.527161989E-2,4.970414817E-2
2.218147240E0,-2.687804401E-2,-4.034791887E-2,-1.649335027E-2,5.120951484E-2
2.220592240E0,-2.687804401E-2,-4.340223968E-2,-1.710421592E-2,5.383992813E-2
2.223038074E0,-2.993236855E-2,-4.401310533E-2,-1.588248461E-2,5.554595796E-2
2.225483074E0,-3.176496178E-2,-4.767829552E-2,-1.710421592E-2,5.978952135E-2
2.227927345E0,-3.543015197E-2,-5.195434764E-2,-1.649335027E-2,6.501215663E-2
2.230372345E0,-3.481928632E-2,-5.317607522E-2,-1.710421592E-2,6.582273071E-2
2.232818178E0,-4.031706974E-2,-5.806299299E-2,-1.893680915E-2,7.318046193E-2
2.235263230E0,-3.726274520E-2,-6.111731753E-2,-1.954767480E-2,7.420209075E-2
2.237707449E0,-4.214966297E-2,-6.722597033E-2,-2.015853673E-2,8.186752579E-2
2.240152449E0,-4.031706974E-2,-6.844769418E-2,-2.138026804E-2,8.226584232E-2
2.242598282E0,-4.276052862E-2,-7.333461195E-2,-2.260199562E-2,8.784804110E-2
2.245043334E0,-4.214966297E-2,-7.272375375E-2,-2.382372692E-2,8.736651769E-2
2.247487553E0,-4.153879732E-2,-7.333461195E-2,-2.565632015E-2,8.810041860E-2
2.249932605E0,-4.581484944E-2,-7.150202245E-2,-2.626718581E-2,8.889040833E-2
2.252378386E0,-4.459312186E-2,-7.028029114E-2,-2.871064469E-2,8.804639094E-2
2.254823438E0,-4.886917397E-2,-6.966942549E-2,-2.993237227E-2,9.021070847E-2
2.257267657E0,-4.337139428E-2,-6.539336592E-2,-3.115410358E-2,8.442717760E-2
2.259712709E0,-4.581484944E-2,-6.417164207E-2,-3.115410358E-2,8.477958625E-2
2.262158490E0,-4.398225620E-2,-5.867385864E-2,-3.298669681E-2,8.040635992E-2
2.264603542E0,-4.459312186E-2,-5.561953783E-2,-3.481929004E-2,7.933764847E-2
2.267047761E0,-4.214966297E-2,-5.134348199E-2,-3.359756246E-2,7.444154374E-2
2.269492813E0,-4.031706974E-2,-4.828915745E-2,-3.481929004E-2,7.190056883E-2
2.271938647E0,-3.970620409E-2,-4.706742987E-2,-3.665188700E-2,7.166091276E-2
2.274383647E0,-3.604101390E-2,-4.645656422E-2,-3.420842439E-2,6.802487296E-2
2.276827865E0,-3.909533843E-2,-4.645656422E-2,-3.543015569E-2,7.029903114E-2
2.279272917E0,-3.359755874E-2,-4.706742987E-2,-3.359756246E-2,6.688000532E-2
2.281718751E0,-3.543015197E-2,-5.317607522E-2,-3.054323792E-2,7.082287785E-2
2.284163751E0,-3.176496178E-2,-5.439780653E-2,-2.932151034E-2,6.948298440E-2
2.286607970E0,-3.176496178E-2,-6.233904883E-2,-2.809977904E-2,7.539739643E-2
2.289053022E0,-2.993236855E-2,-6.844769418E-2,-2.504545450E-2,7.879281894E-2
2.291498855E0,-2.748890966E-2,-7.455634326E-2,-2.076940238E-2,8.213194598E-2
2.293943855E0,-2.748890966E-2,-8.127585799E-2,-1.832594350E-2,8.773394697E-2
2.296388126E0,-1.954766735E-2,-8.433017880E-2,-1.649335027E-2,8.812332811E-2
2.298833126E0,-1.893680543E-2,-8.738449961E-2,-1.282816101E-2,9.032837365E-2
2.301278959E0,-1.221729256E-2,-8.921709657E-2,-7.330379449E-3,9.034759001E-2
2.303723959E0,-1.343902200E-2,-9.288228303E-2,-4.886920564E-3,9.397663436E-2
2.306168230E0,-7.941240445E-3,-9.043882042E-2,-1.221731771E-3,9.079502281E-2
2.308613230E0,-7.330375258E-3,-9.227142483E-2,-1.221731771E-3,9.257020509E-2
2.311059063E0,-4.276051652E-3,-9.227142483E-2,1.221727114E-3,9.237853146E-2
2.313504115E0,-1.832592767E-3,-9.104969352E-2,-2.328306437E-9,9.106813431E-2
2.315948334E0,-4.886916373E-3,-9.349314868E-2,6.108623929E-4,9.362277477E-2
2.318393334E0,2.443460282E-3,-9.349314868E-2,-2.328306437E-9,9.352507337E-2
2.320839167E0,3.665189724E-3,-9.715833515E-2,-1.832596492E-3,9.724471253E-2
2.323284220E0,7.330378052E-3,-9.838006645E-2,-6.108650006E-3,9.884172966E-2
2.325728438E0,1.099556684E-2,-1.026561186E-1,-1.099556778E-2,1.038271818E-1
2.328173490E0,1.649335027E-2,-1.063213125E-1,-1.527161989E-2,1.086714059E-1
2.330619272E0,1.954767480E-2,-1.099864915E-1,-2.138026804E-2,1.137376620E-1
2.333064324E0,2.260199562E-2,-1.130408272E-1,-2.748891339E-2,1.185104180E-1
2.335508542E0,2.321286127E-2,-1.142625436E-1,-3.543015569E-2,1.218608294E-1
2.337953595E0,2.443459257E-2,-1.118190959E-1,-4.153880477E-2,1.217621937E-1
2.340399376E0,2.809977904E-2,-1.099864915E-1,-4.825831577E-2,1.233510881E-1
2.342844428E0,2.932151034E-2,-1.038778499E-1,-5.558869243E-2,1.214103018E-1
2.345288647E0,3.237583116E-2,-9.654747695E-2,-6.230820343E-2,1.193814138E-1
2.347733699E0,3.665188700E-2,-8.799536526E-2,-6.780598313E-2,1.169794703E-1
2.350179532E0,3.970620781E-2,-7.883239537E-2,-7.086031139E-2,1.131914892E-1
2.352624532E0,4.459312558E-2,-6.783682853E-2,-7.696895301E-2,1.118686814E-1
2.355068751E0,4.948004335E-2,-5.989558995E-2,-7.941241562E-2,1.110949510E-1
2.357513803E0,5.436696112E-2,-5.317607522E-2,-8.185587823E-2,1.117311337E-1
2.359959636E0,5.925387889E-2,-4.706742987E-2,-8.307760209E-2,1.123755004E-1
2.362404636E0,6.475166231E-2,-4.340223968E-2,-8.307760209E-2,1.139228693E-1
2.364848855E0,6.902771443E-2,-4.340223968E-2,-8.246673644E-2,1.159712998E-1
2.367293907E0,7.452549785E-2,-4.462397099E-2,-7.941241562E-2,1.176931620E-1
2.369739740E0,7.819068432E-2,-4.401310533E-2,-7.696895301E-2,1.182165652E-1
2.372184740E0,8.429933339E-2,-4.401310533E-2,-7.452549785E-2,1.208204489E-1
2.374629011E0,9.224057943E-2,-4.095878452E-2,-7.024944574E-2,1.229671954E-1
2.377074011E0,1.020144150E-1,-3.668272868E-2,-6.475166231E-2,1.262748638E-1
2.379519845E0,1.117882505E-1,-3.423926979E-2,-5.925388262E-2,1.310723585E-1
2.381964897E0,1.233946756E-1,-3.057408333E-2,-5.314523354E-2,1.377876496E-1
2.384409115E0,1.356119663E-1,-2.935235202E-2,-5.070177466E-2,1.477255425E-1
2.386854115E0,1.478292644E-1,-3.057408333E-2,-4.764745012E-2,1.582989118E-1
2.389299949E0,1.594356894E-1,-3.301754221E-2,-4.276053235E-2,1.683400139E-1
2.391745001E0,1.704312563E-1,-4.279137775E-2,-4.276053235E-2,1.808490483E-1
2.394189220E0,1.783724874E-1,-5.317607522E-2,-4.031707346E-2,1.904465953E-1
2.396634272E0,1.887571961E-1,-6.661509722E-2,-4.031707346E-2,2.041869650E-1
2.399080053E0,1.973093003E-1,-8.188671619E-2,-3.909534216E-2,2.171746764E-1
2.401525105E0,2.034179419E-1,-9.593660384E-2,-4.214966670E-2,2.288215144E-1
2.403969324E0,2.113591880E-1,-1.136516854E-1,-4.459312558E-2,2.440859660E-1
2.406414376E0,2.156352401E-1,-1.301450431E-1,-4.764745012E-2,2.563329252E-1
2.408860157E0,2.223547548E-1,-1.496927142E-1,-5.070177466E-2,2.728006885E-1
2.411305209E0,2.247982174E-1,-1.704621166E-1,-5.314523354E-2,2.870818483E-1
2.413749428E0,2.284633964E-1,-1.942858398E-1,-5.742128566E-2,3.053517891E-1
2.416194480E0,2.302960008E-1,-2.211638838E-1,-6.169733778E-2,3.252018957E-1
2.418640261E0,2.327394485E-1,-2.480419278E-1,-6.719511747E-2,3.467097239E-1
2.421085313E0,2.370155007E-1,-2.828612328E-1,-7.024944574E-2,3.756618282E-1
2.423529532E0,2.406806946E-1,-3.189022541E-1,-7.513636351E-2,4.065357519E-1
2.425974584E0,2.467893362E-1,-3.634953797E-1,-7.757981867E-2,4.461529959E-1
2.428420417E0,2.516762614E-1,-4.111428261E-1,-8.063414693E-2,4.887547746E-1
2.430865417E0,2.596174777E-1,-4.642880559E-1,-8.307760209E-2,5.383925348E-1
2.433309636E0,2.663370073E-1,-5.192658305E-1,-8.368846774E-2,5.895559039E-1
2.435754688E0,2.748891115E-1,-5.736328363E-1,-8.368846774E-2,6.415780655E-1
2.438200522E0,2.828303576E-1,-6.261671782E-1,-8.246673644E-2,6.920109167E-1
2.440645522E0,2.901607156E-1,-6.738146544E-1,-7.941241562E-2,7.379198880E-1
2.443089792E0,2.981019616E-1,-7.202403545E-1,-7.513636351E-2,7.831069026E-1
2.445534792E0,3.060432076E-1,-7.617791891E-1,-7.086031139E-2,8.240092000E-1
2.447980626E0,3.127627075E-1,-7.990419269E-1,-6.414079666E-2,8.604664746E-1
2.450425626E0,3.219256997E-1,-8.375263810E-1,-5.803215131E-2,8.991408820E-1
2.452869897E0,3.292560577E-1,-8.760108948E-1,-5.070177466E-2,9.372167888E-1
2.455314897E0,3.402516246E-1,-9.144953489E-1,-4.398225993E-2,9.767329985E-1
2.457760730E0,3.500254750E-1,-9.535906911E-1,-3.726274893E-2,1.016484900E0
2.460205782E0,3.591884375E-1,-9.975729585E-1,-3.115410358E-2,1.060725563E0
2.462650001E0,3.701840043E-1,-1.036057353E0,-2.565632015E-2,1.100504104E0
2.465095001E0,3.793469667E-1,-1.078207016E0,-2.138026804E-2,1.143193600E0
2.467540834E0,3.891208172E-1,-1.119745731E0,-1.649335027E-2,1.185545252E0
2.469985886E0,3.995054960E-1,-1.164338946E0,-1.404989045E-2,1.231051267E0
2.472430105E0,4.098902047E-1,-1.209542871E0,-1.466075610E-2,1.277191792E0
2.474875105E0,4.227183759E-1,-1.255968571E0,-1.588248461E-2,1.325292469E0
2.477320938E0,4.343248010E-1,-1.302394271E0,-2.199113369E-2,1.373081381E0
2.479765990E0,4.477638304E-1,-1.344543934E0,-2.809977904E-2,1.417420345E0
2.482210209E0,4.636462927E-1,-1.382417560E0,-3.665188700E-2,1.458557354E0
2.484655261E0,4.801396430E-1,-1.416625977E0,-4.642572254E-2,1.496502116E0
2.487101095E0,4.966330230E-1,-1.447169304E0,-5.986474827E-2,1.531184882E0
2.489546095E0,5.149589777E-1,-1.478323340E0,-7.452549785E-2,1.567219416E0
2.491990313E0,5.332849026E-1,-1.503368855E0,-8.979711682E-2,1.597677759E0
2.494435365E0,5.491673946E-1,-1.527192593E0,-1.087339222E-1,1.626568507E0
2.496881199E0,5.650498867E-1,-1.548572779E0,-1.301141828E-1,1.653568482E0
2.499326199E0,5.778780580E-1,-1.567509651E0,-1.533270478E-1,1.677658708E0
2.501770417E0,5.888736248E-1,-1.580948591E0,-1.753181815E-1,1.696144764E0
2.504215470E0,6.035343409E-1,-1.593776822E0,-2.009744942E-1,1.716032927E0
2.506661303E0,6.188059449E-1,-1.605994105E0,-2.260199487E-1,1.735863728E0
2.509106303E0,6.346884370E-1,-1.617600560E0,-2.522871196E-1,1.755878633E0
2.511550574E0,6.511818171E-1,-1.629206896E0,-2.767217159E-1,1.776211636E0
2.513995574E0,6.695077419E-1,-1.640202522E0,-3.029888868E-1,1.797305538E0
2.516441407E0,6.847793460E-1,-1.654252410E0,-3.274234831E-1,1.820076901E0
2.518886407E0,6.963858008E-1,-1.671356559E0,-3.512471914E-1,1.844386218E0
2.521330678E0,7.043270469E-1,-1.697012901E0,-3.707948625E-1,1.874411429E0
2.523775678E0,7.104356885E-1,-1.731221318E0,-3.854556382E-1,1.910607801E0
2.526221511E0,7.195986509E-1,-1.771538377E0,-3.970620632E-1,1.952902640E0
2.528666563E0,7.226529717E-1,-1.812466383E0,-3.958403170E-1,1.990967419E0
2.531110782E0,7.269290090E-1,-1.850340009E0,-3.842338920E-1,2.024801130E0
2.533555782E0,7.342594266E-1,-1.887602687E0,-3.738491833E-1,2.059598024E0
2.536001615E0,7.446441054E-1,-1.929141521E0,-3.665188253E-1,2.100099498E0
2.538446667E0,7.544179559E-1,-1.973123789E0,-3.616319001E-1,2.143161583E0
2.540890886E0,7.617483139E-1,-2.017106056E0,-3.610210419E-1,2.186164113E0
2.543335886E0,7.696895599E-1,-2.059255600E0,-3.671296835E-1,2.228842715E0
2.545781720E0,7.764090896E-1,-2.092242479E0,-3.769035339E-1,2.263260025E0
2.548226772E0,7.849611640E-1,-2.117898703E0,-3.878990710E-1,2.291751433E0
2.550670990E0,7.910698056E-1,-2.130726814E0,-4.001163840E-1,2.307787104E0
2.553116042E0,7.984002233E-1,-2.134392023E0,-4.141662717E-1,2.316161895E0
2.555561824E0,8.075631857E-1,-2.122785568E0,-4.288270175E-1,2.311334999E0
2.558006876E0,8.179478645E-1,-2.100183725E0,-4.398225844E-1,2.296356744E0
2.560451095E0,8.301651478E-1,-2.067807913E0,-4.550942183E-1,2.274228327E0
2.562896147E0,8.423824310E-1,-2.025047302E0,-4.673115015E-1,2.242499671E0
2.565341928E0,8.545997739E-1,-1.981065035E0,-4.795287848E-1,2.210182640E0
2.567786980E0,8.674278855E-1,-1.933417559E0,-4.905243516E-1,2.175120395E0
2.570231199E0,8.765909076E-1,-1.885770082E0,-5.027416348E-1,2.139460113E0
2.572676251E0,8.839212656E-1,-1.838733554E0,-5.131263733E-1,2.103700682E0
2.575122084E0,8.888081908E-1,-1.791697025E0,-5.229001641E-1,2.067264572E0
2.577567084E0,8.949168324E-1,-1.748325586E0,-5.326740146E-1,2.035008624E0
2.580011355E0,8.991928697E-1,-1.706786752E0,-5.455021858E-1,2.004804596E0
2.582456355E0,9.065232277E-1,-1.668302298E0,-5.564977527E-1,1.978561767E0
2.584902188E0,9.120210409E-1,-1.634704709E0,-5.674933195E-1,1.956039502E0
2.587347188E0,9.217948914E-1,-1.602328897E0,-5.803214908E-1,1.937507870E0
2.589791459E0,9.334012866E-1,-1.568731308E0,-5.931496024E-1,1.919370295E0
2.592236459E0,9.456185699E-1,-1.535744667E0,-6.078103781E-1,1.903191955E0
2.594682292E0,9.578359127E-1,-1.498481870E0,-6.194168329E-1,1.883235185E0
2.597127292E0,9.694423079E-1,-1.455110550E0,-6.310232282E-1,1.858858632E0
2.599571563E0,9.816595912E-1,-1.408684731E0,-6.450731158E-1,1.834166718E0
2.602016563E0,9.957094789E-1,-1.360426426E0,-6.566795707E-1,1.809261033E0
2.604462397E0,1.008537650E0,-1.309113860E0,-6.652316451E-1,1.781420903E0
2.606907449E0,1.021365881E0,-1.255357742E0,-6.737837791E-1,1.753024787E0
2.609351667E0,1.036026597E0,-1.205266833E0,-6.798924208E-1,1.728662186E0
2.611796667E0,1.048854709E0,-1.158230305E0,-6.847793460E-1,1.706023561E0
2.614242501E0,1.061071992E0,-1.114248037E0,-6.884445548E-1,1.685638860E0
2.616687553E0,1.076343656E0,-1.075763464E0,-6.902770996E-1,1.671007232E0
2.619131772E0,1.087950110E0,-1.040944219E0,-6.908879876E-1,1.656661257E0
2.621576824E0,1.099556565E0,-1.014677048E0,-6.908879876E-1,1.648004964E0
2.624022605E0,1.109330297E0,-9.896317124E-1,-6.908879876E-1,1.639301938E0
2.626467657E0,1.116049886E0,-9.676405787E-1,-6.908879876E-1,1.630712068E0
2.628911876E0,1.120936751E0,-9.468711615E-1,-6.890553832E-1,1.621068018E0
2.631356928E0,1.127656341E0,-9.285452366E-1,-6.872227788E-1,1.614335847E0
2.633802761E0,1.134986639E0,-9.059432149E-1,-6.860010624E-1,1.606090046E0
2.636247761E0,1.141095281E0,-8.833412528E-1,-6.829467416E-1,1.596498187E0
2.638691980E0,1.149036527E0,-8.582957983E-1,-6.805033088E-1,1.587463817E0
2.641137032E0,1.156977773E0,-8.301960230E-1,-6.792815328E-1,1.577734580E0
2.643582865E0,1.165529847E0,-8.020962477E-1,-6.780598164E-1,1.568943380E0
2.646027865E0,1.173471093E0,-7.727747560E-1,-6.792815328E-1,1.560653270E0
2.648472084E0,1.181412339E0,-7.434532046E-1,-6.817250252E-1,1.553449965E0
2.650917136E0,1.191186190E0,-7.165751457E-1,-6.878336668E-1,1.550973769E0
2.653362970E0,1.198516607E0,-6.945840716E-1,-6.963857412E-1,1.550432904E0
2.655807970E0,1.205847025E0,-6.774798632E-1,-7.031052709E-1,1.551580818E0
2.658252240E0,1.211955667E0,-6.634299159E-1,-7.134900093E-1,1.555006040E0
2.660697240E0,1.215620756E0,-6.524344087E-1,-7.244855762E-1,1.558295168E0
2.663143074E0,1.220507741E0,-6.444931626E-1,-7.360919714E-1,1.564238464E0
2.665588074E0,1.222340345E0,-6.359410286E-1,-7.489201427E-1,1.568253261E0
2.668032345E0,1.224172950E0,-6.279997826E-1,-7.623591423E-1,1.572950921E0
2.670477345E0,1.223562002E0,-6.200585365E-1,-7.739655972E-1,1.574991844E0
2.672923178E0,1.224172950E0,-6.096738577E-1,-7.867937684E-1,1.577766161E0
2.675368230E0,1.224783778E0,-5.980674028E-1,-8.014544845E-1,1.581173366E0
2.677812449E0,1.223562002E0,-5.821849108E-1,-8.148935437E-1,1.581168786E0
2.680257449E0,1.222340345E0,-5.650807023E-1,-8.295542598E-1,1.581642308E0
2.682703282E0,1.221118569E0,-5.479764938E-1,-8.417715430E-1,1.581135076E0
2.685148334E0,1.217453361E0,-5.272070765E-1,-8.533779979E-1,1.577464419E0
2.687592553E0,1.213788152E0,-5.076594353E-1,-8.655952811E-1,1.574882526E0
2.690037605E0,1.212566495E0,-4.911660850E-1,-8.759800196E-1,1.574453119E0
2.692483386E0,1.207679510E0,-4.734510183E-1,-8.851429820E-1,1.570389686E0
2.694928438E0,1.198516607E0,-4.551250637E-1,-8.906407356E-1,1.561032287E0
2.697372657E0,1.194240570E0,-4.367991388E-1,-8.979711533E-1,1.556713274E0
2.699817709E0,1.193629622E0,-4.258035719E-1,-9.028580189E-1,1.556024730E0
2.702263542E0,1.191797137E0,-4.221383929E-1,-9.065232277E-1,1.555752423E0
2.704708542E0,1.189353585E0,-4.203057885E-1,-9.083558321E-1,1.554454639E0
2.707152761E0,1.186299324E0,-4.196949303E-1,-9.083558321E-1,1.551953684E0
2.709597813E0,1.183244944E0,-4.215275049E-1,-9.065232277E-1,1.549044349E0
2.712043647E0,1.182634115E0,-4.215275049E-1,-8.991928697E-1,1.544298127E0
2.714488647E0,1.183855891E0,-4.203057885E-1,-8.900299072E-1,1.539585971E0
2.716932865E0,1.188131928E0,-4.196949303E-1,-8.790343404E-1,1.536392751E0
2.719377917E0,1.192407966E0,-4.209166467E-1,-8.668169975E-1,1.533094677E0
2.721823751E0,1.197905779E0,-4.221383929E-1,-8.558214903E-1,1.531538279E0
2.724268751E0,1.201570868E0,-4.245818257E-1,-8.442150354E-1,1.528640345E0
2.726713022E0,1.205847025E0,-4.251927137E-1,-8.344411850E-1,1.526809740E0
2.729158022E0,1.205236077E0,-4.282470345E-1,-8.271108270E-1,1.523188053E0
2.731603855E0,1.202181816E0,-4.319122136E-1,-8.228347898E-1,1.519488852E0
2.734048907E0,1.196684003E0,-4.398534596E-1,-8.216130137E-1,1.516763532E0
2.736493126E0,1.191186190E0,-4.490164220E-1,-8.222239017E-1,1.515451230E0
2.738938126E0,1.183855891E0,-4.606228471E-1,-8.301651478E-1,1.517518485E0
2.741383959E0,1.178968906E0,-4.783379436E-1,-8.374955058E-1,1.523211605E0
2.743829011E0,1.172860265E0,-4.978856146E-1,-8.497127891E-1,1.531503545E0
2.746273230E0,1.168584228E0,-5.204876065E-1,-8.643735647E-1,1.543903528E0
2.748718230E0,1.164919019E0,-5.430895686E-1,-8.802560568E-1,1.557829684E0
2.751164063E0,1.161253810E0,-5.656915903E-1,-8.991928697E-1,1.573869500E0
2.753609115E0,1.157588601E0,-5.882936120E-1,-9.162970781E-1,1.589245443E0
2.756053334E0,1.156977773E0,-6.060086489E-1,-9.352338910E-1,1.606395493E0
2.758498386E0,1.154534340E0,-6.206694245E-1,-9.517272115E-1,1.619865662E0
2.760944167E0,1.153312564E0,-6.322758198E-1,-9.676097035E-1,1.632841425E0
2.763389220E0,1.149647474E0,-6.389953494E-1,-9.847139120E-1,1.643065994E0
2.765833438E0,1.146593094E0,-6.408279538E-1,-9.981529713E-1,1.649741053E0
2.768278490E0,1.141095281E0,-6.383844614E-1,-1.012813807E0,1.653912019E0
2.770724324E0,1.134986639E0,-6.328867078E-1,-1.025641918E0,1.655500408E0
2.773169324E0,1.130099773E0,-6.243345737E-1,-1.034804940E0,1.654611864E0
2.775613542E0,1.123380184E0,-6.145607829E-1,-1.044578671E0,1.652517048E0
2.778058595E0,1.114828110E0,-6.053978205E-1,-1.053130865E0,1.648767071E0
2.780504428E0,1.105054259E0,-5.931804776E-1,-1.059239507E0,1.641644397E0
2.782949428E0,1.097113013E0,-5.846284032E-1,-1.063515544E0,1.636005087E0
2.785393699E0,1.087339163E0,-5.754654408E-1,-1.067180753E0,1.628601144E0
2.787838699E0,1.078176260E0,-5.669133067E-1,-1.069624186E0,1.621095507E0
2.790284532E0,1.068402410E0,-5.601937771E-1,-1.071456790E0,1.613480843E0
2.792729532E0,1.062293768E0,-5.528634191E-1,-1.072067618E0,1.607312971E0
2.795173803E0,1.055574298E0,-5.467547774E-1,-1.073900223E0,1.602011103E0
2.797618803E0,1.051298141E0,-5.406461358E-1,-1.072678447E0,1.596297302E0
2.800064636E0,1.048854709E0,-5.345374942E-1,-1.070845962E0,1.591394862E0
2.802509636E0,1.046411276E0,-5.302613974E-1,-1.069624186E0,1.587529403E0
2.804953907E0,1.043967843E0,-5.278179646E-1,-1.069013357E0,1.584692468E0
2.807398907E0,1.041524410E0,-5.259853601E-1,-1.069013357E0,1.582473777E0
2.809844740E0,1.037248254E0,-5.278179646E-1,-1.069013357E0,1.580273806E0
2.812289792E0,1.033583164E0,-5.296505690E-1,-1.071456790E0,1.580140353E0
2.814734011E0,1.026252747E0,-5.357592106E-1,-1.075732827E0,1.580327101E0
2.817179011E0,1.018311501E0,-5.424787402E-1,-1.081230640E0,1.581234073E0
2.819624845E0,1.010370255E0,-5.522525907E-1,-1.087950110E0,1.584129546E0
2.822069897E0,1.000596404E0,-5.644698739E-1,-1.094058752E0,1.586437504E0
2.824514115E0,9.902117252E-1,-5.772980452E-1,-1.102610826E0,1.590453686E0
2.826959167E0,9.779944420E-1,-5.944022536E-1,-1.111163020E0,1.595139626E0
2.829404949E0,9.669988751E-1,-6.115064621E-1,-1.120325923E0,1.601298583E0
2.831850001E0,9.572250247E-1,-6.292214990E-1,-1.130710602E0,1.609566994E0
2.834294220E0,9.474511743E-1,-6.420496702E-1,-1.141095400E0,1.616165282E0
2.836739272E0,9.376773834E-1,-6.542669535E-1,-1.151480079E0,1.622717010E0
2.839185053E0,9.279035330E-1,-6.615973711E-1,-1.160032153E0,1.626158247E0
2.841630105E0,9.175187945E-1,-6.634299159E-1,-1.170416832E0,1.628451888E0
2.844074324E0,9.083558321E-1,-6.603755951E-1,-1.178358078E0,1.627800358E0
2.846519376E0,9.022471905E-1,-6.548778415E-1,-1.184466720E0,1.626615010E0
2.848965209E0,8.973602653E-1,-6.402170658E-1,-1.190575361E0,1.622529823E0
2.851410209E0,8.924733400E-1,-6.243345737E-1,-1.194240570E0,1.616326966E0
2.853854428E0,8.857538700E-1,-6.047869325E-1,-1.196073174E0,1.606523635E0
2.856299480E0,8.833103776E-1,-5.821849108E-1,-1.197905779E0,1.598172315E0
2.858745313E0,8.802560568E-1,-5.595829487E-1,-1.200349212E0,1.590227038E0
2.861190313E0,8.765909076E-1,-5.363700986E-1,-1.201570988E0,1.581100041E0
2.863634584E0,8.710930943E-1,-5.143789649E-1,-1.200349212E0,1.569785695E0
2.866079584E0,8.674278855E-1,-4.948312938E-1,-1.203403592E0,1.563799652E0
2.868525417E0,8.625410199E-1,-4.801705182E-1,-1.205847025E0,1.558399110E0
2.870970417E0,8.570432067E-1,-4.710075557E-1,-1.208901286E0,1.554931991E0
2.873414688E0,8.491019607E-1,-4.679532349E-1,-1.211344838E0,1.551551058E0
2.875859688E0,8.411607146E-1,-4.765053391E-1,-1.215620875E0,1.553171851E0
2.878305522E0,8.344412446E-1,-4.948312938E-1,-1.221118569E0,1.559577110E0
2.880750574E0,8.283325434E-1,-5.198767185E-1,-1.227838159E0,1.569711167E0
2.883194792E0,8.228347898E-1,-5.534743071E-1,-1.233946800E0,1.583039989E0
2.885639792E0,8.167261481E-1,-5.968456864E-1,-1.240666270E0,1.600787047E0
2.888085626E0,8.112283349E-1,-6.451039910E-1,-1.246164083E0,1.620856407E0
2.890530678E0,8.051196933E-1,-6.951949000E-1,-1.253494501E0,1.644007948E0
2.892974897E0,7.977893353E-1,-7.483401299E-1,-1.261435747E0,1.669640955E0
2.895419949E0,7.892372012E-1,-7.972093225E-1,-1.266933441E0,1.692205191E0
2.897865730E0,7.770199180E-1,-8.418024182E-1,-1.271209478E0,1.711246564E0
2.900310782E0,7.635809183E-1,-8.815086484E-1,-1.274263859E0,1.727385799E0
2.902755001E0,7.519744635E-1,-9.138844609E-1,-1.280372500E0,1.743560765E0
2.905200053E0,7.409788966E-1,-9.383190870E-1,-1.285870314E0,1.755834530E0
2.907645886E0,7.305942178E-1,-9.590884447E-1,-1.291978955E0,1.767152562E0
2.910090886E0,7.214312553E-1,-9.749709368E-1,-1.299309254E0,1.777423956E0
2.912535105E0,7.122682929E-1,-9.829121828E-1,-1.307861447E0,1.784360963E0
2.914980157E0,7.049378753E-1,-9.859665036E-1,-1.318246126E0,1.790765256E0
2.917425990E0,6.963858008E-1,-9.816904664E-1,-1.329852581E0,1.793649141E0
2.919870990E0,6.872228384E-1,-9.706948996E-1,-1.340237260E0,1.791859294E0
2.922315261E0,6.786707044E-1,-9.542015791E-1,-1.353065372E0,1.789379914E0
2.924760261E0,6.695077419E-1,-9.328212738E-1,-1.364060998E0,1.782991461E0
2.927206095E0,6.591230631E-1,-9.089975357E-1,-1.375056505E0,1.775246497E0
2.929651095E0,6.469057798E-1,-8.808977604E-1,-1.387273788E0,1.766068095E0
2.932095365E0,6.365210414E-1,-8.527979851E-1,-1.398269415E0,1.757151330E0
2.934540365E0,6.261363626E-1,-8.240873814E-1,-1.408043265E0,1.747498954E0
2.936986199E0,6.175842285E-1,-7.978202105E-1,-1.417206168E0,1.739655337E0
2.939431251E0,6.096429825E-1,-7.727747560E-1,-1.423314810E0,1.730511611E0
2.941875470E0,6.035343409E-1,-7.489510179E-1,-1.428812623E0,1.722407280E0
2.944320470E0,5.992583036E-1,-7.324576378E-1,-1.434310436E0,1.718386200E0
2.946766303E0,5.968148708E-1,-7.196295261E-1,-1.437364697E0,1.714663792E0
2.949211355E0,5.937604904E-1,-7.104665041E-1,-1.437975645E0,1.710288902E0
2.951655574E0,5.894844532E-1,-7.019144297E-1,-1.439197302E0,1.706301457E0
2.954100626E0,5.845975280E-1,-6.982492208E-1,-1.437975645E0,1.702081138E0
2.956546407E0,5.784888864E-1,-6.945840716E-1,-1.437364697E0,1.697973409E0
2.958991459E0,5.736019611E-1,-6.915297508E-1,-1.434921265E0,1.692994874E0
2.961435678E0,5.662716031E-1,-6.927514672E-1,-1.434921265E0,1.691025476E0
2.963880730E0,5.589412451E-1,-6.903079748E-1,-1.433699489E0,1.686545179E0
2.966326511E0,5.509999990E-1,-6.933622956E-1,-1.431867003E0,1.683625667E0
2.968771563E0,5.406152606E-1,-6.964166164E-1,-1.430034399E0,1.679958138E0
2.971215782E0,5.314522982E-1,-7.000818253E-1,-1.430034399E0,1.678557264E0
2.973660834E0,5.259545445E-1,-7.049687505E-1,-1.429423451E0,1.678350537E0
2.976106667E0,5.192350149E-1,-7.098556757E-1,-1.428812623E0,1.677797840E0
2.978551667E0,5.149589777E-1,-7.171860337E-1,-1.428201795E0,1.679076806E0
2.980995886E0,5.119046569E-1,-7.263489962E-1,-1.430034399E0,1.683635241E0
2.983440938E0,5.082394481E-1,-7.355119586E-1,-1.430645227E0,1.687018359E0
2.985886772E0,5.033525229E-1,-7.452858090E-1,-1.433088660E0,1.691909515E0
2.988331772E0,4.984656274E-1,-7.550596595E-1,-1.436753869E0,1.697894211E0
2.990776042E0,4.929678142E-1,-7.630009055E-1,-1.439808249E0,1.702420466E0
2.993221042E0,4.880808890E-1,-7.678878307E-1,-1.444084287E0,1.706825739E0
2.995666876E0,4.813613892E-1,-7.697204351E-1,-1.448360324E0,1.709364199E0
2.998111876E0,4.721983969E-1,-7.715529799E-1,-1.454468966E0,1.712817941E0
3.000556147E0,4.636462927E-1,-7.703312635E-1,-1.459355831E0,1.714087974E0
3.003001147E0,4.550941885E-1,-7.660552263E-1,-1.468518853E0,1.717701648E0
3.005446980E0,4.447095096E-1,-7.599465847E-1,-1.475849271E0,1.718550677E0
3.007892032E0,4.349356592E-1,-7.538379431E-1,-1.485012174E0,1.721250077E0
3.010336251E0,4.269944131E-1,-7.446749806E-1,-1.492953420E0,1.722142552E0
3.012781251E0,4.147771299E-1,-7.336794138E-1,-1.502727270E0,1.722937839E0
3.015227084E0,4.050032794E-1,-7.202403545E-1,-1.513722777E0,1.724566749E0
3.017672136E0,3.958403170E-1,-7.055796385E-1,-1.525329232E0,1.726604022E0
3.020116355E0,3.872882128E-1,-6.896971464E-1,-1.536935687E0,1.728538579E0
3.022561407E0,3.799578249E-1,-6.725929379E-1,-1.547931194E0,1.729982714E0
3.025007188E0,3.720166087E-1,-6.536561251E-1,-1.558315992E0,1.730321190E0
3.027452240E0,3.659079373E-1,-6.341084242E-1,-1.569922328E0,1.732235038E0
3.029896459E0,3.585775793E-1,-6.176151037E-1,-1.580917954E0,1.734741443E0
3.032341511E0,3.518580496E-1,-5.999000072E-1,-1.592524409E0,1.737762383E0
3.034787292E0,3.457494080E-1,-5.840175152E-1,-1.601076484E0,1.738983904E0
3.037232345E0,3.371973038E-1,-5.681350231E-1,-1.610239506E0,1.740503000E0
3.039676563E0,3.286451995E-1,-5.565286279E-1,-1.618180752E0,1.742481198E0
3.042121615E0,3.194822371E-1,-5.461438894E-1,-1.624289393E0,1.743174713E0
3.044567449E0,3.097083867E-1,-5.351483822E-1,-1.631619692E0,1.744845522E0
3.047012449E0,3.005454242E-1,-5.247636437E-1,-1.637728333E0,1.745811710E0
3.049456720E0,2.926041782E-1,-5.156006813E-1,-1.643226147E0,1.746898233E0
3.051901720E0,2.840520740E-1,-5.058268309E-1,-1.648723960E0,1.747809217E0
3.054347553E0,2.779434323E-1,-4.954421520E-1,-1.651778221E0,1.746736033E0
3.056792553E0,2.706130445E-1,-4.813922644E-1,-1.654832602E0,1.744546036E0
3.059236824E0,2.657261193E-1,-4.679532349E-1,-1.656054258E0,1.741294434E0
3.061681824E0,2.626717985E-1,-4.526816010E-1,-1.654832602E0,1.735623244E0
3.064127657E0,2.602283657E-1,-4.367991388E-1,-1.651167393E0,1.727676488E0
3.066572657E0,2.596174777E-1,-4.233601093E-1,-1.645669580E0,1.718971606E0
3.069016928E0,2.577849030E-1,-4.068667591E-1,-1.640171766E0,1.709431788E0
3.071461928E0,2.565631568E-1,-3.897625506E-1,-1.632230639E0,1.697620794E0
3.073907761E0,2.535088360E-1,-3.708257377E-1,-1.623678446E0,1.684669152E0
3.076352813E0,2.504545152E-1,-3.518889248E-1,-1.612682939E0,1.669520752E0
3.078797032E0,2.461784780E-1,-3.353955746E-1,-1.602909088E0,1.656022820E0
3.081242032E0,2.400698364E-1,-3.213456869E-1,-1.592524409E0,1.642263855E0
3.083687865E0,2.345720530E-1,-3.079066873E-1,-1.582139730E0,1.628802229E0
3.086132917E0,2.290742695E-1,-2.975219786E-1,-1.570533276E0,1.614796928E0
3.088577136E0,2.211330235E-1,-2.883590162E-1,-1.561370254E0,1.603099437E0
3.091022188E0,2.156352401E-1,-2.810286283E-1,-1.552207351E0,1.592112843E0
3.093467970E0,2.119700462E-1,-2.761417031E-1,-1.543655157E0,1.582421178E0
3.095913022E0,2.083048671E-1,-2.730873823E-1,-1.535713911E0,1.573653346E0
3.098357240E0,2.046396732E-1,-2.706439197E-1,-1.527772665E0,1.564996755E0
3.100802292E0,1.997527629E-1,-2.724765241E-1,-1.519831419E0,1.556930366E0
3.103248074E0,1.942549795E-1,-2.700330615E-1,-1.511890173E0,1.548051920E0
3.105693126E0,1.881463230E-1,-2.724765241E-1,-1.503949046E0,1.539969230E0
3.108137345E0,1.808159500E-1,-2.761417031E-1,-1.496007800E0,1.531988246E0
3.110582397E0,1.747073084E-1,-2.785851657E-1,-1.488677382E0,1.524563114E0
3.113028230E0,1.673769355E-1,-2.810286283E-1,-1.481957912E0,1.517626892E0
3.115473230E0,1.582139581E-1,-2.810286283E-1,-1.478903532E0,1.513659276E0
3.117917501E0,1.478292644E-1,-2.828612328E-1,-1.474627495E0,1.508771095E0
3.120362501E0,1.368336976E-1,-2.834720910E-1,-1.470962286E0,1.504263918E0
3.122808334E0,1.246164069E-1,-2.846938074E-1,-1.468518853E0,1.501042116E0
3.125253334E0,1.111773849E-1,-2.828612328E-1,-1.467297077E0,1.498443059E0
3.127697605E0,9.834922105E-2,-2.822503448E-1,-1.467297077E0,1.497430646E0
3.130142605E0,8.613193035E-2,-2.840829492E-1,-1.467297077E0,1.497024564E0
3.132588438E0,7.513636351E-2,-2.840829492E-1,-1.468518853E0,1.497630200E0
3.135033438E0,6.291906536E-2,-2.834720910E-1,-1.470962286E0,1.499348286E0
3.137477709E0,5.375609919E-2,-2.822503448E-1,-1.470962286E0,1.498761162E0
3.139922709E0,4.520399123E-2,-2.798068821E-1,-1.471573114E0,1.498620273E0
3.142368542E0,3.420842811E-2,-2.773634195E-1,-1.471573114E0,1.497874532E0
3.144813595E0,2.382372692E-2,-2.706439197E-1,-1.470962286E0,1.495842822E0
3.147257813E0,1.343902573E-2,-2.608700991E-1,-1.468518853E0,1.491570125E0
3.149702813E0,3.665189724E-3,-2.510962486E-1,-1.466075420E0,1.487427275E0
3.152148647E0,-6.719510537E-3,-2.370463759E-1,-1.461799383E0,1.480909711E0
3.154593699E0,-1.404988766E-2,-2.248290777E-1,-1.457523227E0,1.474828624E0
3.157037917E0,-2.076939866E-2,-2.107791901E-1,-1.452025533E0,1.467391353E0
3.159482970E0,-2.565631643E-2,-1.973401606E-1,-1.447138548E0,1.460757120E0
3.161928751E0,-3.237582743E-2,-1.814576834E-1,-1.438586473E0,1.450346899E0
3.164373803E0,-3.665187955E-2,-1.643534601E-1,-1.431867003E0,1.441734558E0
3.166818022E0,-4.092793167E-2,-1.490818411E-1,-1.424536586E0,1.432900895E0
3.169263074E0,-4.276052862E-2,-1.344210953E-1,-1.417206168E0,1.424208839E0
3.171708907E0,-4.520398751E-2,-1.215929314E-1,-1.408043265E0,1.414006393E0
3.174153907E0,-4.703658074E-2,-1.081539020E-1,-1.401323676E0,1.406277978E0
3.176598126E0,-4.642571509E-2,-9.410401434E-2,-1.394604206E0,1.398546318E0
3.179043178E0,-4.886917397E-2,-8.310844749E-2,-1.387884736E0,1.391229403E0
3.181489011E0,-5.070176721E-2,-7.272375375E-2,-1.381776094E0,1.384617127E0
3.183934011E0,-5.192349851E-2,-6.478250772E-2,-1.375667453E0,1.378170441E0
3.186378282E0,-5.497782305E-2,-5.684126541E-2,-1.370169640E0,1.372449756E0
3.188823282E0,-5.619955063E-2,-5.134348199E-2,-1.365282655E0,1.367403112E0
3.191269115E0,-5.864300951E-2,-4.706742987E-2,-1.361617565E0,1.363692318E0
3.193714115E0,-6.108646840E-2,-4.523483664E-2,-1.356730580E0,1.358858203E0
3.196158386E0,-6.047560275E-2,-4.706742987E-2,-1.352454543E0,1.354623908E0
3.198603386E0,-6.169733405E-2,-4.584570229E-2,-1.348789334E0,1.350977815E0
3.201049220E0,-6.230819970E-2,-4.645656422E-2,-1.343291521E0,1.345538047E0
3.203494272E0,-6.230819970E-2,-4.767829552E-2,-1.339015484E0,1.341312043E0
3.205938490E0,-5.986474082E-2,-4.645656422E-2,-1.335961223E0,1.338108511E0
3.208383490E0,-5.742128193E-2,-4.523483664E-2,-1.331685185E0,1.333689929E0
3.210829324E0,-5.375609174E-2,-4.218051210E-2,-1.325576544E0,1.327336463E0
3.213274376E0,-5.131263286E-2,-3.729359433E-2,-1.318856955E0,1.320381560E0
3.215718595E0,-4.825831205E-2,-2.935235202E-2,-1.311526656E0,1.312742395E0
3.218163647E0,-4.825831205E-2,-2.018938214E-2,-1.303585410E0,1.304634584E0
3.220609428E0,-4.703658074E-2,-1.102641318E-2,-1.295644164E0,1.296544570E0
3.223054480E0,-4.581484944E-2,1.190881478E-3,-1.287702918E0,1.288518228E0
3.225498699E0,-4.337139428E-2,1.462990697E-2,-1.279150724E0,1.279969409E0
3.227943751E0,-4.459312186E-2,2.684720233E-2,-1.271820426E0,1.272885115E0
3.230389532E0,-4.214966297E-2,3.845363483E-2,-1.263879180E0,1.265166336E0
3.232834584E0,-4.459312186E-2,5.189265683E-2,-1.256548762E0,1.258410182E0
3.235278803E0,-4.092793167E-2,6.716427952E-2,-1.247996688E0,1.250472658E0
3.237723855E0,-4.703658074E-2,7.938156277E-2,-1.240055442E0,1.243483563E0
3.240169688E0,-4.520398751E-2,9.526403993E-2,-1.232114196E0,1.236617980E0
3.242614688E0,-4.581484944E-2,1.038161591E-1,-1.225394726E0,1.230637652E0
3.245058959E0,-4.214966297E-2,1.160334423E-1,-1.219286084E0,1.225519853E0
3.247503959E0,-3.726274520E-2,1.233638301E-1,-1.213788271E0,1.220610140E0
3.249949792E0,-3.543015197E-2,1.282507330E-1,-1.210123062E0,1.217415858E0
3.252394792E0,-2.748890966E-2,1.331376582E-1,-1.207679629E0,1.215307107E0
3.254839063E0,-2.809977531E-2,1.319159269E-1,-1.205847025E0,1.213366580E0
3.257284063E0,-2.076939866E-2,1.349702477E-1,-1.204014421E0,1.211733907E0
3.259729897E0,-2.504545078E-2,1.331376582E-1,-1.204625249E0,1.212218999E0
3.262174897E0,-1.954766735E-2,1.343593746E-1,-1.204625249E0,1.212252673E0
3.264619167E0,-2.443458512E-2,1.349702477E-1,-1.204014421E0,1.211802270E0
3.267064167E0,-2.504545078E-2,1.423006207E-1,-1.202792645E0,1.211440005E0
3.269510001E0,-2.748890966E-2,1.490201354E-1,-1.198516607E0,1.208058235E0
3.271955053E0,-3.237582743E-2,1.600157022E-1,-1.193629742E0,1.204742786E0
3.274399272E0,-3.115409613E-2,1.697895378E-1,-1.185077548E0,1.197584176E0
3.276844272E0,-3.604101390E-2,1.765090525E-1,-1.177747250E0,1.191445754E0
3.279290105E0,-2.748890966E-2,1.856720150E-1,-1.168584228E0,1.183561927E0
3.281735157E0,-2.687804401E-2,1.887263358E-1,-1.156977773E0,1.172577343E0
3.284179376E0,-1.832594164E-2,1.954458505E-1,-1.146593094E0,1.163275824E0
3.286624428E0,-1.343902200E-2,1.966675818E-1,-1.134375811E0,1.151376231E0
3.289070209E0,-6.719510537E-3,2.015545070E-1,-1.123380303E0,1.141338108E0
3.291515261E0,-1.832592767E-3,2.052196860E-1,-1.114217281E0,1.132960118E0
3.293959480E0,1.832595561E-3,2.064414173E-1,-1.106276035E0,1.125374641E0
3.296404532E0,7.330378052E-3,2.101066113E-1,-1.097723961E0,1.117674558E0
3.298850365E0,6.108648609E-3,2.101066113E-1,-1.092836976E0,1.112867809E0
3.301295365E0,9.773837402E-3,2.137717903E-1,-1.087950110E0,1.108796351E0
3.303739584E0,7.941242307E-3,2.125500590E-1,-1.084284902E0,1.104949926E0
3.306184636E0,1.343902573E-2,2.137717903E-1,-1.082452297E0,1.103440964E0
3.308630470E0,1.588248461E-2,2.076631486E-1,-1.081230640E0,1.101106686E0
3.311075470E0,2.015853673E-2,2.070522904E-1,-1.078787088E0,1.098662186E0
3.313519740E0,2.687805146E-2,2.052196860E-1,-1.078176260E0,1.097862285E0
3.315964740E0,3.176496923E-2,2.015545070E-1,-1.076343656E0,1.095513075E0
3.318410574E0,4.214967042E-2,2.027762234E-1,-1.073900223E0,1.093689389E0
3.320855574E0,4.703658819E-2,2.009436339E-1,-1.071456790E0,1.091150969E0
3.323299845E0,5.497782677E-2,2.033870965E-1,-1.068402410E0,1.088977769E0
3.325744845E0,5.986474454E-2,2.070522904E-1,-1.062904716E0,1.084537170E0
3.328190678E0,6.597339362E-2,2.119392008E-1,-1.056795955E0,1.079855733E0
3.330635730E0,7.024944574E-2,2.186587155E-1,-1.049465656E0,1.074301998E0
3.333079949E0,7.452549785E-2,2.241564989E-1,-1.040302634E0,1.066784775E0
3.335524949E0,7.819068432E-2,2.302651405E-1,-1.033583164E0,1.061805055E0
3.337970782E0,8.429933339E-2,2.382063866E-1,-1.024420142E0,1.055123352E0
3.340415834E0,8.674279600E-2,2.437041700E-1,-1.014035463E0,1.046510371E0
3.342860053E0,9.162971377E-2,2.510345578E-1,-1.004872561E0,1.039799604E0
3.345305105E0,9.651663154E-2,2.608083785E-1,-9.920442700E-1,1.030285545E0
3.347750886E0,9.957095236E-2,2.675278783E-1,-9.804378748E-1,1.021148357E0
3.350195938E0,1.026252732E-1,2.730256617E-1,-9.682205915E-1,1.011200313E0
3.352640157E0,1.081230566E-1,2.779125869E-1,-9.578358531E-1,1.003182697E0
3.355085209E0,1.111773849E-1,2.785234451E-1,-9.474511743E-1,9.937803822E-1
3.357530990E0,1.154534370E-1,2.748582661E-1,-9.376773238E-1,9.839285168E-1
3.359976042E0,1.209512204E-1,2.705821991E-1,-9.315686822E-1,9.775807557E-1
3.362420261E0,1.258381307E-1,2.632518411E-1,-9.272926450E-1,9.721154337E-1
3.364865313E0,1.301141828E-1,2.522562742E-1,-9.205731153E-1,9.633367994E-1
3.367311147E0,1.325576454E-1,2.406498492E-1,-9.162970781E-1,9.566003422E-1
3.369756147E0,1.356119663E-1,2.278216779E-1,-9.150753617E-1,9.527099453E-1
3.372200365E0,1.380554289E-1,2.186587155E-1,-9.126318693E-1,9.485609438E-1
3.374645417E0,1.386662871E-1,2.107174695E-1,-9.114101529E-1,9.456736530E-1
3.377091251E0,1.368336976E-1,2.070522904E-1,-9.083558321E-1,9.416498444E-1
3.379536251E0,1.356119663E-1,2.046088278E-1,-9.053015113E-1,9.379905139E-1
3.381980522E0,1.313359141E-1,2.058305591E-1,-9.022471905E-1,9.347006655E-1
3.384425522E0,1.270598620E-1,2.094957381E-1,-9.016363025E-1,9.343343592E-1
3.386871355E0,1.252272576E-1,2.094957381E-1,-9.004145861E-1,9.329076895E-1
3.389316407E0,1.233946756E-1,2.125500590E-1,-8.985819817E-1,9.315864701E-1
3.391760626E0,1.240055338E-1,2.186587155E-1,-8.991928697E-1,9.336684760E-1
3.394205626E0,1.240055338E-1,2.223238945E-1,-9.004145861E-1,9.357092034E-1
3.396651459E0,1.246164069E-1,2.272108197E-1,-9.034689069E-1,9.398989686E-1
3.399096511E0,1.258381307E-1,2.308759987E-1,-9.095775485E-1,9.468211440E-1
3.401540730E0,1.276707202E-1,2.357629240E-1,-9.138535857E-1,9.523719574E-1
3.403985782E0,1.319467723E-1,2.400389910E-1,-9.199622273E-1,9.598745583E-1
3.406431563E0,1.350010931E-1,2.485910952E-1,-9.260709286E-1,9.683130653E-1
3.408876615E0,1.398880184E-1,2.565323114E-1,-9.315686822E-1,9.763184389E-1
3.411320834E0,1.435532123E-1,2.681387663E-1,-9.370664954E-1,9.851901033E-1
3.413765886E0,1.478292644E-1,2.797451913E-1,-9.401208162E-1,9.919364963E-1
3.416211667E0,1.514944434E-1,2.913516164E-1,-9.456185699E-1,1.001014890E0
3.418656720E0,1.582139581E-1,3.023471832E-1,-9.456185699E-1,1.005305901E0
3.421100938E0,1.643225998E-1,3.133427501E-1,-9.450076818E-1,1.009071412E0
3.423545990E0,1.692095250E-1,3.261708915E-1,-9.437859654E-1,1.012793791E0
3.425991824E0,1.747073084E-1,3.341121376E-1,-9.425642490E-1,1.015175319E0
3.428436824E0,1.789833605E-1,3.414425254E-1,-9.395099282E-1,1.015527915E0
3.430881042E0,1.857028753E-1,3.438859880E-1,-9.364556074E-1,1.014737520E0
3.433326095E0,1.912006587E-1,3.438859880E-1,-9.309577942E-1,1.010691684E0
3.435771928E0,1.985310316E-1,3.408316672E-1,-9.236274362E-1,1.004324866E0
3.438216928E0,2.064722776E-1,3.347229958E-1,-9.175187945E-1,9.982539875E-1
3.440661199E0,2.125809193E-1,3.286143541E-1,-9.089667201E-1,9.896456635E-1
3.443106199E0,2.205221653E-1,3.188405335E-1,-9.004145861E-1,9.803243025E-1
3.445552032E0,2.247982174E-1,3.121210039E-1,-8.924733400E-1,9.718345653E-1
3.447997032E0,2.266308069E-1,3.041797876E-1,-8.833103776E-1,9.613137308E-1
3.450441303E0,2.309068590E-1,2.968493998E-1,-8.747582436E-1,9.521762066E-1
3.452886303E0,2.321285903E-1,2.895190120E-1,-8.655952811E-1,9.417856080E-1
3.455332136E0,2.351829112E-1,2.827995121E-1,-8.582649231E-1,9.337586647E-1
3.457777188E0,2.370155007E-1,2.773017287E-1,-8.497127891E-1,9.247077485E-1
3.460221407E0,2.388481051E-1,2.742474079E-1,-8.423824310E-1,9.175337695E-1
3.462666407E0,2.382372320E-1,2.748582661E-1,-8.356629014E-1,9.113926321E-1
3.465112240E0,2.388481051E-1,2.760799825E-1,-8.283325434E-1,9.052090236E-1
3.467557292E0,2.370155007E-1,2.785234451E-1,-8.228347898E-1,9.004491925E-1
3.470001511E0,2.333503217E-1,2.827995121E-1,-8.185586929E-1,8.969204371E-1
3.472446563E0,2.315177172E-1,2.889081538E-1,-8.130609393E-1,8.933848363E-1
3.474892345E0,2.296851277E-1,2.925733328E-1,-8.100066185E-1,8.913277371E-1
3.477337397E0,2.254090756E-1,2.968493998E-1,-8.100066185E-1,8.916498974E-1
3.479781615E0,2.254090756E-1,2.986820042E-1,-8.093957305E-1,8.917071490E-1
3.482226667E0,2.247982174E-1,3.005145788E-1,-8.112283349E-1,8.938314505E-1
3.484672501E0,2.235764861E-1,3.011254370E-1,-8.124500513E-1,8.948396839E-1
3.487117501E0,2.217438966E-1,3.011254370E-1,-8.148935437E-1,8.966037988E-1
3.489561720E0,2.186895609E-1,3.047906458E-1,-8.155043721E-1,8.976468363E-1
3.492006772E0,2.138026506E-1,3.090666831E-1,-8.161152601E-1,8.984864527E-1
3.494452605E0,2.083048671E-1,3.163970709E-1,-8.136717677E-1,8.975298155E-1
3.496897605E0,2.052505463E-1,3.231165707E-1,-8.118392229E-1,8.975605990E-1
3.499341876E0,2.015853524E-1,3.322795630E-1,-8.075631261E-1,8.962168069E-1
3.501786876E0,1.991418898E-1,3.432751298E-1,-8.026762605E-1,8.954241934E-1
3.504232709E0,1.973093003E-1,3.536598086E-1,-7.977893353E-1,8.946921502E-1
3.506677709E0,1.973093003E-1,3.652662337E-1,-7.929024100E-1,8.950109571E-1
3.509121980E0,1.954767108E-1,3.756509423E-1,-7.874045968E-1,8.940530040E-1
3.511566980E0,1.966984421E-1,3.860356510E-1,-7.825176716E-1,8.944538598E-1
3.514012813E0,1.985310316E-1,3.958094716E-1,-7.806851268E-1,8.975238022E-1
3.516457813E0,2.003636211E-1,4.025290012E-1,-7.788525224E-1,8.993255412E-1
3.518902084E0,2.021962255E-1,4.092485011E-1,-7.782416344E-1,9.022348312E-1
3.521347084E0,2.028070837E-1,4.104702473E-1,-7.806851268E-1,9.050335929E-1
3.523792917E0,2.070831358E-1,4.116919637E-1,-7.831285596E-1,9.086605741E-1
3.526237970E0,2.076939940E-1,4.135245681E-1,-7.874045968E-1,9.133155876E-1
3.528682188E0,2.064722776E-1,4.159680307E-1,-7.898480892E-1,9.162533536E-1
3.531127240E0,2.070831358E-1,4.184114635E-1,-7.947350144E-1,9.217132532E-1
3.533573022E0,2.070831358E-1,4.214658141E-1,-7.984001637E-1,9.262611289E-1
3.536018074E0,2.046396732E-1,4.306287766E-1,-7.996218801E-1,9.309745916E-1
3.538462292E0,2.040288150E-1,4.397917390E-1,-7.996218801E-1,9.351147962E-1
3.540907345E0,2.028070837E-1,4.495655894E-1,-7.977893353E-1,9.379273724E-1
3.543353126E0,2.015853524E-1,4.617828727E-1,-7.947350144E-1,9.410014979E-1
3.545798178E0,1.997527629E-1,4.740001559E-1,-7.916806936E-1,9.441057328E-1
3.548242397E0,1.985310316E-1,4.856066108E-1,-7.849611640E-1,9.441357847E-1
3.550687449E0,1.948658377E-1,4.990456104E-1,-7.776308060E-1,9.443139766E-1
3.553133282E0,1.930332482E-1,5.106520653E-1,-7.684677839E-1,9.426399639E-1
3.555578282E0,1.918115169E-1,5.204258561E-1,-7.586939931E-1,9.398145056E-1
3.558022501E0,1.899789274E-1,5.265345573E-1,-7.483092546E-1,9.345038114E-1
3.560467553E0,1.912006587E-1,5.277562737E-1,-7.360919714E-1,9.256974488E-1
3.562913386E0,1.875354648E-1,5.240910649E-1,-7.250964046E-1,9.141147580E-1
3.565358386E0,1.844811440E-1,5.167607069E-1,-7.147117257E-1,9.010481516E-1
3.567802657E0,1.808159500E-1,5.039325356E-1,-7.049378753E-1,8.852004385E-1
3.570247657E0,1.747073084E-1,4.849957228E-1,-6.951640248E-1,8.654458482E-1
3.572693490E0,1.673769355E-1,4.605611563E-1,-6.890553832E-1,8.455347056E-1
3.575138542E0,1.624900103E-1,4.324613512E-1,-6.829467416E-1,8.245253638E-1
3.577582761E0,1.563813686E-1,3.982529342E-1,-6.780598164E-1,8.017640841E-1
3.580027761E0,1.496618539E-1,3.634336591E-1,-6.756163836E-1,7.816266326E-1
3.582473595E0,1.441640705E-1,3.267817795E-1,-6.719511747E-1,7.609783124E-1
3.584918647E0,1.350010931E-1,2.919624746E-1,-6.701185703E-1,7.433211150E-1
3.587362865E0,1.282815933E-1,2.595866621E-1,-6.695077419E-1,7.294395237E-1
3.589807865E0,1.197294891E-1,2.290434241E-1,-6.695077419E-1,7.176605445E-1
3.592253699E0,1.117882505E-1,2.046088278E-1,-6.695077419E-1,7.089442869E-1
3.594698751E0,1.050687358E-1,1.862828881E-1,-6.664534211E-1,6.999292222E-1
3.597142970E0,9.590576589E-2,1.734547168E-1,-6.670642495E-1,6.958873240E-1
3.599588022E0,8.857538551E-2,1.673460752E-1,-6.652316451E-1,6.916526942E-1
3.602033803E0,8.307760209E-2,1.630700231E-1,-6.633991003E-1,6.881802719E-1
3.604478855E0,7.574722916E-2,1.642917544E-1,-6.621773243E-1,6.864460883E-1
3.606923074E0,7.024944574E-2,1.636808813E-1,-6.615664959E-1,6.851252761E-1
3.609368126E0,6.658425927E-2,1.630700231E-1,-6.609556079E-1,6.840231075E-1
3.611813959E0,6.047561020E-2,1.636808813E-1,-6.615664959E-1,6.841921944E-1
3.614258959E0,5.619955808E-2,1.618482918E-1,-6.615664959E-1,6.833911679E-1
3.616703178E0,5.009090900E-2,1.587939709E-1,-6.621773243E-1,6.827909147E-1
3.619148230E0,4.581485689E-2,1.557396501E-1,-6.640099287E-1,6.835664014E-1
3.621594063E0,3.909534588E-2,1.514635980E-1,-6.658425331E-1,6.839707205E-1
3.624039063E0,3.237583116E-2,1.477984041E-1,-6.652316451E-1,6.822211550E-1
3.626483334E0,2.626718581E-2,1.447440833E-1,-6.658425331E-1,6.818996213E-1
3.628928334E0,2.199113369E-2,1.435223520E-1,-6.652316451E-1,6.808931026E-1
3.631374167E0,1.954767480E-2,1.410788894E-1,-6.615664959E-1,6.767241632E-1
3.633819220E0,1.832594350E-2,1.398571581E-1,-6.591230035E-1,6.740467332E-1
3.636263438E0,1.466075517E-2,1.404680312E-1,-6.554578543E-1,6.705007116E-1
3.638708438E0,1.099556684E-2,1.429114938E-1,-6.487383246E-1,6.643839337E-1
3.641154272E0,7.941242307E-3,1.441332102E-1,-6.438513994E-1,6.598348810E-1
3.643599324E0,5.497783888E-3,1.465766728E-1,-6.377427578E-1,6.543934380E-1
3.646043542E0,5.497783888E-3,1.477984041E-1,-6.310232282E-1,6.481241458E-1
3.648488542E0,3.665189724E-3,1.508527249E-1,-6.267471910E-1,6.446565129E-1
3.650934376E0,1.832595561E-3,1.520744562E-1,-6.218602657E-1,6.401876199E-1
3.653379428E0,-3.054322209E-3,1.545179188E-1,-6.188059449E-1,6.378133846E-1
3.655823647E0,-7.941240445E-3,1.551287770E-1,-6.157516241E-1,6.350417808E-1
3.658268699E0,-1.710421033E-2,1.526853293E-1,-6.133081913E-1,6.322596787E-1
3.660714480E0,-2.382372320E-2,1.514635980E-1,-6.120864153E-1,6.309980753E-1
3.663159532E0,-3.115409613E-2,1.502418667E-1,-6.090320945E-1,6.280631245E-1
3.665603751E0,-3.481928632E-2,1.514635980E-1,-6.041451693E-1,6.238148682E-1
3.668048803E0,-4.031706974E-2,1.551287770E-1,-5.980365276E-1,6.191430303E-1
3.670494636E0,-4.703658074E-2,1.594048291E-1,-5.919278860E-1,6.148178281E-1
3.672939636E0,-5.375609174E-2,1.636808813E-1,-5.876518488E-1,6.123853719E-1
3.675383855E0,-5.986474082E-2,1.697895378E-1,-5.809323192E-1,6.081896364E-1
3.677828907E0,-6.841684878E-2,1.765090525E-1,-5.748236775E-1,6.051930032E-1
3.680274740E0,-7.696895301E-2,1.820068359E-1,-5.699367523E-1,6.032235155E-1
3.682719740E0,-8.429932594E-2,1.862828881E-1,-5.638281107E-1,5.997581422E-1
3.685164011E0,-9.224057198E-2,1.923915297E-1,-5.589411855E-1,5.982792597E-1
3.687609011E0,-1.020144075E-1,1.997219026E-1,-5.546651483E-1,5.982885628E-1
3.690054845E0,-1.111773774E-1,2.027762234E-1,-5.522217155E-1,5.986880899E-1
3.692499845E0,-1.227838024E-1,2.076631486E-1,-5.509999394E-1,6.014987770E-1
3.694944115E0,-1.337793767E-1,2.125500590E-1,-5.509999394E-1,6.055372676E-1
3.697389115E0,-1.447749436E-1,2.149935216E-1,-5.522217155E-1,6.100252631E-1
3.699834949E0,-1.533270478E-1,2.192695737E-1,-5.546651483E-1,6.158260763E-1
3.702280001E0,-1.600465626E-1,2.223238945E-1,-5.558868647E-1,6.197201163E-1
3.704724220E0,-1.667660773E-1,2.272108197E-1,-5.583303571E-1,6.254346239E-1
3.707169220E0,-1.722638607E-1,2.302651405E-1,-5.626063943E-1,6.318408245E-1
3.709615053E0,-1.765399128E-1,2.369846404E-1,-5.638281107E-1,6.365769388E-1
3.712060105E0,-1.802050918E-1,2.400389910E-1,-5.674933195E-1,6.419822895E-1
3.714504324E0,-1.838702857E-1,2.467584908E-1,-5.699367523E-1,6.477082186E-1
3.716949376E0,-1.893680692E-1,2.479802072E-1,-5.711585283E-1,6.508275603E-1
3.719395157E0,-1.936441213E-1,2.492019534E-1,-5.717693567E-1,6.530848770E-1
3.721840209E0,-1.966984421E-1,2.528671324E-1,-5.705476403E-1,6.543368197E-1
3.724284428E0,-2.021962255E-1,2.528671324E-1,-5.699367523E-1,6.554792155E-1
3.726729480E0,-2.058614194E-1,2.534779906E-1,-5.668824315E-1,6.542061654E-1
3.729175313E0,-2.101374716E-1,2.540888786E-1,-5.626063943E-1,6.521080203E-1
3.731620313E0,-2.131917924E-1,2.559214532E-1,-5.571086407E-1,6.490890294E-1
3.734064532E0,-2.168569863E-1,2.565323114E-1,-5.516108274E-1,6.458407577E-1
3.736509584E0,-2.211330384E-1,2.583649158E-1,-5.424478650E-1,6.402358446E-1
3.738955417E0,-2.241873592E-1,2.601975203E-1,-5.338957310E-1,6.348286171E-1
3.741400417E0,-2.272416800E-1,2.650844455E-1,-5.259544849E-1,6.312976038E-1
3.743844688E0,-2.315177321E-1,2.736365497E-1,-5.161806941E-1,6.284265515E-1
3.746289688E0,-2.364046574E-1,2.846321166E-1,-5.076285601E-1,6.281634809E-1
3.748735522E0,-2.412915677E-1,2.950167954E-1,-4.984655976E-1,6.274746865E-1
3.751180522E0,-2.455676198E-1,3.035688996E-1,-4.880808890E-1,6.250443880E-1
3.753624792E0,-2.486219555E-1,3.121210039E-1,-4.783070683E-1,6.229045268E-1
3.756069792E0,-2.516762614E-1,3.163970709E-1,-4.685332179E-1,6.188468496E-1
3.758515626E0,-2.528979778E-1,3.176187873E-1,-4.581485391E-1,6.121594278E-1
3.760960626E0,-2.559523284E-1,3.157862127E-1,-4.508181512E-1,6.070169125E-1
3.763404897E0,-2.571740746E-1,3.108992875E-1,-4.434877634E-1,5.995650656E-1
3.765849897E0,-2.571740746E-1,3.035688996E-1,-4.373791218E-1,5.912639661E-1
3.768295730E0,-2.583957911E-1,2.950167954E-1,-4.306596220E-1,5.824697455E-1
3.770740782E0,-2.596175373E-1,2.852429748E-1,-4.257726967E-1,5.744973539E-1
3.773185001E0,-2.614501119E-1,2.736365497E-1,-4.208857715E-1,5.660193945E-1
3.775630053E0,-2.626718581E-1,2.632518411E-1,-4.159988761E-1,5.579902345E-1
3.778075834E0,-2.638935745E-1,2.540888786E-1,-4.117228091E-1,5.511049341E-1
3.780520886E0,-2.657261789E-1,2.443150282E-1,-4.068358839E-1,5.438893927E-1
3.782965105E0,-2.687804997E-1,2.345412076E-1,-4.007272422E-1,5.365024303E-1
3.785410157E0,-2.718348205E-1,2.290434241E-1,-3.946186006E-1,5.311110051E-1
3.787855938E0,-2.724456787E-1,2.217130363E-1,-3.909534216E-1,5.255738732E-1
3.790300990E0,-2.754999995E-1,2.168261111E-1,-3.854556382E-1,5.210468896E-1
3.792745209E0,-2.767217457E-1,2.113283426E-1,-3.836230338E-1,5.180745361E-1
3.795190261E0,-2.779434621E-1,2.039979547E-1,-3.799578547E-1,5.130650106E-1
3.797636095E0,-2.779434621E-1,2.015545070E-1,-3.781252503E-1,5.107401417E-1
3.800081095E0,-2.767217457E-1,1.997219026E-1,-3.744600713E-1,5.066400181E-1
3.802525365E0,-2.761108875E-1,1.997219026E-1,-3.756817877E-1,5.072108696E-1
3.804970365E0,-2.748891413E-1,2.009436339E-1,-3.732383251E-1,5.052219625E-1
3.807416199E0,-2.730565369E-1,2.052196860E-1,-3.707948625E-1,5.041466274E-1
3.809861199E0,-2.681696415E-1,2.119392008E-1,-3.707948625E-1,5.043034915E-1
3.812305470E0,-2.651153207E-1,2.198804319E-1,-3.677405417E-1,5.038518072E-1
3.814750470E0,-2.608392537E-1,2.320977449E-1,-3.646862209E-1,5.048787173E-1
3.817196303E0,-2.571740746E-1,2.443150282E-1,-3.622427583E-1,5.069991653E-1
3.819641355E0,-2.547306120E-1,2.583649158E-1,-3.567449749E-1,5.088291379E-1
3.822085574E0,-2.516762614E-1,2.681387663E-1,-3.530797958E-1,5.098084746E-1
3.824530574E0,-2.486219555E-1,2.736365497E-1,-3.481928706E-1,5.078662356E-1
3.826976407E0,-2.461784929E-1,2.815777659E-1,-3.426950872E-1,5.072768588E-1
3.829421459E0,-2.425132990E-1,2.870755494E-1,-3.365864456E-1,5.044952989E-1
3.831865678E0,-2.388481051E-1,2.882972956E-1,-3.310886621E-1,4.997834032E-1
3.834310730E0,-2.351829261E-1,2.889081538E-1,-3.255908787E-1,4.947609022E-1
3.836756511E0,-2.315177321E-1,2.895190120E-1,-3.182605207E-1,4.885810860E-1
3.839201563E0,-2.284634113E-1,2.895190120E-1,-3.121518493E-1,4.831723974E-1
3.841645782E0,-2.235764861E-1,2.907407582E-1,-3.066540658E-1,4.780725360E-1
3.844090834E0,-2.193004340E-1,2.925733328E-1,-2.999345660E-1,4.729192101E-1
3.846536615E0,-2.144135237E-1,2.974602580E-1,-2.913824618E-1,4.683583065E-1
3.848981667E0,-2.107483298E-1,3.035688996E-1,-2.834412158E-1,4.657336772E-1
3.851425886E0,-2.040288150E-1,3.133427501E-1,-2.754999697E-1,4.644477039E-1
3.853870938E0,-2.021962255E-1,3.237274587E-1,-2.663370073E-1,4.654225850E-1
3.856316772E0,-1.991419047E-1,3.335012794E-1,-2.571740448E-1,4.658530786E-1
3.858761772E0,-1.960875839E-1,3.444968462E-1,-2.486219555E-1,4.679116309E-1
3.861205990E0,-1.936441213E-1,3.524380922E-1,-2.406807095E-1,4.686553728E-1
3.863651042E0,-1.912006587E-1,3.591575921E-1,-2.327394634E-1,4.687424940E-1
3.866096876E0,-1.881463379E-1,3.634336591E-1,-2.260199487E-1,4.675126589E-1
3.868541876E0,-1.850920171E-1,3.652662337E-1,-2.217438966E-1,4.656703039E-1
3.870986147E0,-1.814268231E-1,3.652662337E-1,-2.168569714E-1,4.619113115E-1
3.873431147E0,-1.802050918E-1,3.628228009E-1,-2.138026506E-1,4.580674987E-1
3.875876980E0,-1.820376962E-1,3.622119129E-1,-2.101374716E-1,4.566102820E-1
3.878322032E0,-1.826485544E-1,3.628228009E-1,-2.076940089E-1,4.562210874E-1
3.880766251E0,-1.875354797E-1,3.664879799E-1,-2.064722776E-1,4.605581364E-1
3.883211251E0,-1.930332631E-1,3.689314425E-1,-2.040288150E-1,4.636809326E-1
3.885657084E0,-1.966984421E-1,3.744292259E-1,-2.021962255E-1,4.687972227E-1
3.888102136E0,-2.015853673E-1,3.811487257E-1,-2.028070837E-1,4.764889555E-1
3.890546355E0,-2.040288150E-1,3.860356510E-1,-2.040288150E-1,4.819533572E-1
3.892991407E0,-2.046396881E-1,3.921442926E-1,-2.058614194E-1,4.878867411E-1
3.895437188E0,-2.046396881E-1,3.958094716E-1,-2.095265985E-1,4.923859617E-1
3.897882240E0,-2.028070986E-1,3.970312178E-1,-2.125809193E-1,4.939181657E-1
3.900326459E0,-1.991419047E-1,3.964203596E-1,-2.193004340E-1,4.948729939E-1
3.902771511E0,-1.966984421E-1,3.933660090E-1,-2.266308069E-1,4.947611715E-1
3.905217345E0,-1.942549795E-1,3.854247928E-1,-2.321285903E-1,4.900723930E-1
3.907662345E0,-1.905898005E-1,3.780944049E-1,-2.394589782E-1,4.864364844E-1
3.910106563E0,-1.857028753E-1,3.701531589E-1,-2.449567765E-1,4.811473176E-1
3.912551615E0,-1.826485544E-1,3.597684503E-1,-2.510654032E-1,4.752132878E-1
3.914997449E0,-1.765399128E-1,3.499946296E-1,-2.522871196E-1,4.661666787E-1
3.917442449E0,-1.704312563E-1,3.377773464E-1,-2.522871196E-1,4.547407389E-1
3.919886667E0,-1.637117565E-1,3.267817795E-1,-2.516762614E-1,4.437666179E-1
3.922331720E0,-1.569922417E-1,3.145644665E-1,-2.474002093E-1,4.298886264E-1
3.924777553E0,-1.496618539E-1,2.986820042E-1,-2.443458885E-1,4.139015866E-1
3.927222553E0,-1.417206228E-1,2.815777659E-1,-2.382372469E-1,3.951300533E-1
3.929666824E0,-1.337793767E-1,2.644735575E-1,-2.302960008E-1,3.753390897E-1
3.932111824E0,-1.264490038E-1,2.443150282E-1,-2.247982174E-1,3.552652841E-1
3.934557657E0,-1.185077503E-1,2.235456407E-1,-2.168569714E-1,3.332321809E-1
3.937002657E0,-1.111773774E-1,2.009436339E-1,-2.107483298E-1,3.116947413E-1
3.939446928E0,-1.069013253E-1,1.746764481E-1,-2.034179568E-1,2.886496493E-1
3.941891928E0,-1.014035419E-1,1.471875459E-1,-1.979201734E-1,2.666819210E-1
3.944337761E0,-9.468402714E-2,1.184769049E-1,-1.942549795E-1,2.464484511E-1
3.946782813E0,-8.552105725E-2,9.282059222E-2,-1.899789274E-1,2.280822361E-1
3.949227032E0,-7.757981867E-2,7.021860033E-2,-1.850920171E-1,2.126225173E-1
3.951672084E0,-7.330376655E-2,5.494697765E-2,-1.814268231E-1,2.032444457E-1
3.954117865E0,-7.024943829E-2,4.517314211E-2,-1.771507710E-1,1.958519646E-1
3.956562917E0,-6.902771443E-2,4.028622434E-2,-1.722638458E-1,1.899016530E-1
3.959007136E0,-6.597338617E-2,4.089708999E-2,-1.661552042E-1,1.833919615E-1
3.961452188E0,-6.475165486E-2,4.822747037E-2,-1.624900252E-1,1.814433079E-1
3.963898022E0,-6.230819970E-2,5.616870895E-2,-1.588248312E-1,1.796178238E-1
3.966343022E0,-6.108646840E-2,6.838599592E-2,-1.545487791E-1,1.797039960E-1
3.968787240E0,-5.681041628E-2,8.243588358E-2,-1.508835852E-1,1.810772062E-1
3.971232292E0,-5.131263286E-2,9.648577124E-2,-1.484401226E-1,1.843284035E-1
3.973678126E0,-4.581484944E-2,1.111465320E-1,-1.472184062E-1,1.900679119E-1
3.976123126E0,-4.031706974E-2,1.245855466E-1,-1.472184062E-1,1.970286366E-1
3.978567345E0,-3.359755874E-2,1.355811059E-1,-1.459966749E-1,2.020545999E-1
3.981012397E0,-2.871064097E-2,1.435223520E-1,-1.453858018E-1,2.063007460E-1
3.983458230E0,-2.626718208E-2,1.526853293E-1,-1.472184062E-1,2.137195213E-1
3.985903230E0,-2.748890966E-2,1.594048291E-1,-1.472184062E-1,2.187208240E-1
3.988347501E0,-2.932150289E-2,1.673460752E-1,-1.496618539E-1,2.264136257E-1
3.990792501E0,-3.298669308E-2,1.765090525E-1,-1.490509957E-1,2.333661648E-1
3.993238334E0,-3.665187955E-2,1.832285523E-1,-1.472184062E-1,2.378851021E-1
3.995683386E0,-4.031706974E-2,1.887263358E-1,-1.490509957E-1,2.438427675E-1
3.998127605E0,-4.031706974E-2,1.917806715E-1,-1.508835852E-1,2.473280177E-1
4.000572605E0,-3.848447651E-2,1.911697984E-1,-1.533270478E-1,2.480647704E-1
4.003018438E0,-3.420842066E-2,1.899480671E-1,-1.539379060E-1,2.468751975E-1
