"Time (s)","Gyroscope x (rad/s)","Gyroscope y (rad/s)","Gyroscope z (rad/s)","Absolute (rad/s)"
1.075060420E-1,2.993237227E-2,-2.202197537E-2,-1.466075610E-2,3.994811733E-2
1.099510420E-1,2.932151034E-2,-2.324370667E-2,-1.466075610E-2,4.018654798E-2
1.123968750E-1,2.687805146E-2,-2.324370667E-2,-1.527161989E-2,3.867714990E-2
1.148418750E-1,2.626718581E-2,-2.324370667E-2,-1.466075610E-2,3.801542739E-2
1.172860940E-1,2.687805146E-2,-2.080024779E-2,-1.466075610E-2,3.701375052E-2
1.197310940E-1,2.626718581E-2,-1.957851648E-2,-1.588248461E-2,3.640792050E-2
1.221768750E-1,2.748891339E-2,-1.713505760E-2,-1.527161989E-2,3.581163124E-2
1.246218750E-1,2.565632015E-2,-1.591333002E-2,-1.404989045E-2,3.329985372E-2
1.270660940E-1,2.504545450E-2,-1.346987206E-2,-1.527161989E-2,3.227901205E-2
1.295110940E-1,2.504545450E-2,-1.224814076E-2,-1.527161989E-2,3.178858470E-2
1.319569270E-1,2.199113369E-2,-8.582954295E-3,-1.404989045E-2,2.747137578E-2
1.344019270E-1,2.260199562E-2,-7.972088642E-3,-1.404989045E-2,2.778135751E-2
1.368460940E-1,2.199113369E-2,-5.528629757E-3,-1.466075610E-2,2.700210135E-2
1.392911460E-1,2.199113369E-2,-4.917764105E-3,-1.404989045E-2,2.655548505E-2
1.417369270E-1,2.015853673E-2,-2.474304987E-3,-1.527161989E-2,2.541084734E-2
1.441819270E-1,2.015853673E-2,-3.696036292E-3,-1.588248461E-2,2.592837452E-2
1.466261460E-1,2.015853673E-2,-1.252577407E-3,-1.404989045E-2,2.460355615E-2
1.490711460E-1,2.015853673E-2,-2.474304987E-3,-1.404989045E-2,2.469591485E-2
1.515169270E-1,2.015853673E-2,-1.252577407E-3,-1.343902666E-2,2.425990501E-2
1.539619270E-1,1.954767480E-2,-3.084616037E-5,-1.404989045E-2,2.407305472E-2
1.564061460E-1,2.015853673E-2,1.190881478E-3,-1.466075610E-2,2.495440986E-2
1.588511460E-1,2.076940238E-2,-3.084616037E-5,-1.404989045E-2,2.507525570E-2
1.612969790E-1,2.076940238E-2,-1.252577407E-3,-1.527161989E-2,2.581006392E-2
1.637419790E-1,2.138026804E-2,-2.474304987E-3,-1.404989045E-2,2.570286887E-2
1.661861980E-1,2.260199562E-2,-3.085170640E-3,-1.404989045E-2,2.679119082E-2
1.686311980E-1,2.382372692E-2,-1.863441197E-3,-1.466075610E-2,2.803533747E-2
1.710769790E-1,2.321286127E-2,-4.917764105E-3,-1.404989045E-2,2.757572762E-2
1.735219790E-1,2.321286127E-2,-7.361222990E-3,-1.527161989E-2,2.874451089E-2
1.759661980E-1,2.443459257E-2,-9.804681875E-3,-1.466075610E-2,3.013501071E-2
1.784111980E-1,2.565632015E-2,-1.285900641E-2,-1.588248461E-2,3.280021535E-2
1.808570310E-1,2.504545450E-2,-1.285900641E-2,-1.710421592E-2,3.294211650E-2
1.833020310E-1,2.504545450E-2,-1.469159964E-2,-1.649335027E-2,3.339383917E-2
1.857461980E-1,2.443459257E-2,-1.713505760E-2,-1.893680915E-2,3.534490422E-2
1.881912500E-1,2.565632015E-2,-1.713505760E-2,-1.832594350E-2,3.588449760E-2
1.906370310E-1,2.626718581E-2,-2.141111158E-2,-1.771507785E-2,3.823904722E-2
1.930820310E-1,2.565632015E-2,-2.018938214E-2,-1.954767480E-2,3.805219449E-2
1.955262500E-1,2.687805146E-2,-2.202197537E-2,-1.893680915E-2,3.957271522E-2
1.979712500E-1,2.871064469E-2,-2.263284102E-2,-1.832594350E-2,4.089482628E-2
2.004170310E-1,2.871064469E-2,-2.324370667E-2,-1.832594350E-2,4.123604277E-2
2.028620840E-1,2.626718581E-2,-2.324370667E-2,-1.954767480E-2,4.015403517E-2
2.053062500E-1,3.054323792E-2,-2.263284102E-2,-1.832594350E-2,4.220160045E-2
2.077512500E-1,2.565632015E-2,-2.568716556E-2,-1.649335027E-2,3.987615630E-2
2.101970840E-1,2.993237227E-2,-2.385457046E-2,-1.649335027E-2,4.167754845E-2
2.126420840E-1,2.565632015E-2,-2.751975879E-2,-1.588248461E-2,4.083916264E-2
2.150863020E-1,2.748891339E-2,-2.568716556E-2,-1.588248461E-2,4.083777848E-2
2.175313020E-1,2.504545450E-2,-2.629802935E-2,-1.588248461E-2,3.963728619E-2
2.199770840E-1,2.565632015E-2,-2.507629991E-2,-1.649335027E-2,3.948541736E-2
2.224220840E-1,2.565632015E-2,-2.629802935E-2,-1.404989045E-2,3.933487680E-2
2.248663020E-1,2.199113369E-2,-2.385457046E-2,-1.343902666E-2,3.511777229E-2
2.273113020E-1,2.382372692E-2,-2.385457046E-2,-1.160643157E-2,3.565557110E-2
2.297571360E-1,2.015853673E-2,-2.324370667E-2,-1.282816101E-2,3.333463991E-2
2.322021360E-1,2.138026804E-2,-2.080024779E-2,-1.099556778E-2,3.179101571E-2
2.346463540E-1,1.404989138E-2,-2.018938214E-2,-9.773838334E-3,2.646768812E-2
2.370913540E-1,1.771507785E-2,-1.713505760E-2,-9.773838334E-3,2.651343240E-2
2.395371360E-1,1.466075517E-2,-1.774592325E-2,-8.552108891E-3,2.455593820E-2
2.419821360E-1,1.466075517E-2,-1.469159964E-2,-8.552108891E-3,2.244814934E-2
2.444263540E-1,1.588248461E-2,-1.346987206E-2,-7.330379449E-3,2.207770898E-2
2.468713540E-1,1.282816008E-2,-1.224814076E-2,-5.497784354E-3,1.856890616E-2
2.493171880E-1,1.404989138E-2,-9.804681875E-3,-3.665191121E-3,1.752041268E-2
2.517621880E-1,1.099556684E-2,-9.804681875E-3,-5.497784354E-3,1.572450030E-2
2.542064060E-1,1.343902573E-2,-5.528629757E-3,-4.276054911E-3,1.514786471E-2
2.566514060E-1,9.773837402E-3,-7.361222990E-3,-1.832596492E-3,1.237230421E-2
2.590971880E-1,1.282816008E-2,-1.863441197E-3,-1.221731771E-3,1.302024318E-2
2.615421880E-1,1.099556684E-2,-2.474304987E-3,-1.221731771E-3,1.133654727E-2
2.639864060E-1,9.162971750E-3,2.412612783E-3,-6.108670495E-4,9.494941300E-3
2.664314060E-1,7.941242307E-3,3.634340363E-3,1.221727114E-3,8.818411217E-3
2.688771880E-1,6.108648609E-3,3.023478435E-3,1.221727114E-3,6.924566905E-3
2.713222400E-1,7.941242307E-3,6.077799015E-3,6.108623929E-4,1.001878851E-2
2.737664060E-1,3.665189724E-3,7.299530320E-3,-6.108670495E-4,8.190843495E-3
2.762114590E-1,6.108648609E-3,8.521257900E-3,-6.108670495E-4,1.050240842E-2
2.786572400E-1,1.832595561E-3,7.299530320E-3,-6.108670495E-4,7.550808429E-3
2.811022400E-1,5.497783888E-3,1.096471678E-2,-6.108670495E-4,1.228103417E-2
2.835464590E-1,1.832595561E-3,9.132123552E-3,-2.443461679E-3,9.629360936E-3
2.859914590E-1,1.832595561E-3,1.035385113E-2,-4.276054911E-3,1.135100372E-2
2.884372400E-1,3.054325003E-3,7.910395972E-3,-5.497784354E-3,1.010588435E-2
2.908822400E-1,6.108661182E-4,5.466933362E-3,-6.719513796E-3,8.684030370E-3
2.933264590E-1,1.221730839E-3,6.077799015E-3,-6.719513796E-3,9.142435822E-3
2.957715110E-1,-4.886916373E-3,4.856071435E-3,-8.552108891E-3,1.098189182E-2
2.982172920E-1,6.108661182E-4,7.910395972E-3,-9.162972681E-3,1.212054414E-2
3.006622920E-1,-3.665186930E-3,7.299530320E-3,-1.160643157E-2,1.419246250E-2
3.031065110E-1,-6.108633243E-4,1.035385113E-2,-1.343902666E-2,1.697594842E-2
3.055515110E-1,-4.276051652E-3,9.742989205E-3,-1.466075610E-2,1.811486202E-2
3.079972920E-1,-3.665186930E-3,1.340817567E-2,-1.649335027E-2,2.156950099E-2
3.104423440E-1,-5.497781094E-3,1.462990697E-2,-1.893680915E-2,2.455325876E-2
3.128865110E-1,-8.552104235E-3,1.707336679E-2,-2.321286127E-2,3.005786534E-2
3.153315630E-1,-6.719510537E-3,2.073855326E-2,-2.504545450E-2,3.320412932E-2
3.177773440E-1,-1.160642877E-2,2.134941891E-2,-2.748891339E-2,3.668987920E-2
3.202223440E-1,-9.162969887E-3,2.623633668E-2,-2.993237227E-2,4.084424426E-2
3.226665630E-1,-1.282815821E-2,2.867979556E-2,-3.054323792E-2,4.381759578E-2
3.251115630E-1,-9.162969887E-3,3.478844091E-2,-3.176496923E-2,4.799175876E-2
3.275573440E-1,-1.282815821E-2,3.906449303E-2,-3.115410358E-2,5.158657217E-2
3.300023440E-1,-1.221729256E-2,4.578400776E-2,-2.871064469E-2,5.540522288E-2
3.324465630E-1,-1.282815821E-2,4.822747037E-2,-2.809977904E-2,5.727170439E-2
3.348915630E-1,-1.221729256E-2,5.372524634E-2,-2.748891339E-2,6.157357137E-2
3.373373960E-1,-8.552104235E-3,6.044476107E-2,-2.199113369E-2,6.488696008E-2
3.397823960E-1,-1.221729256E-2,6.166649610E-2,-1.832594350E-2,6.548174695E-2
3.422266150E-1,-6.719510537E-3,6.472081691E-2,-1.343902666E-2,6.644203038E-2
3.446716150E-1,-1.221729256E-2,6.227735430E-2,-1.099556778E-2,6.440988749E-2
3.471173960E-1,-8.552104235E-3,6.410994381E-2,-7.330379449E-3,6.509191843E-2
3.495624480E-1,-9.773833677E-3,6.044476107E-2,-1.832596492E-3,6.125728834E-2
3.520066150E-1,-7.941240445E-3,5.861216411E-2,-2.328306437E-9,5.914768872E-2
3.544516670E-1,-7.941240445E-3,5.372524634E-2,6.108623929E-4,5.431241614E-2
3.568974480E-1,-9.773833677E-3,5.006005988E-2,4.276050720E-3,5.118419707E-2
3.593424480E-1,-6.719510537E-3,4.761660472E-2,6.108644884E-3,4.847482242E-2
3.617866670E-1,-8.552104235E-3,4.150795564E-2,4.886915442E-3,4.266064710E-2
3.642316670E-1,-3.054322209E-3,3.906449303E-2,7.330374327E-3,3.986349066E-2
3.666774480E-1,-6.108645815E-3,3.295585141E-2,7.941238582E-3,3.444512978E-2
3.691225000E-1,-6.108633243E-4,3.356670961E-2,9.162968025E-3,3.480024613E-2
3.715667190E-1,-1.832592767E-3,2.745806798E-2,9.162968025E-3,2.900454924E-2
3.740117190E-1,1.396983862E-9,2.623633668E-2,7.941238582E-3,2.741183380E-2
3.764575000E-1,1.221730839E-3,2.318201214E-2,1.038469747E-2,2.543108835E-2
3.789025000E-1,1.221730839E-3,2.134941891E-2,9.773833677E-3,2.351208495E-2
3.813467190E-1,4.276054446E-3,2.073855326E-2,9.162968025E-3,2.307232576E-2
3.837917190E-1,1.396983862E-9,1.646250114E-2,7.941238582E-3,1.827777924E-2
3.862375000E-1,4.886919167E-3,1.585163549E-2,9.773833677E-3,1.925315951E-2
3.886825520E-1,2.443460282E-3,1.279731374E-2,7.941238582E-3,1.525794899E-2
3.911267190E-1,6.108648609E-3,1.157558244E-2,5.497780163E-3,1.419631231E-2
3.935717710E-1,2.443460282E-3,7.299530320E-3,3.665185999E-3,8.525680586E-3
3.960175520E-1,6.108648609E-3,4.856071435E-3,3.054321278E-3,8.380089265E-3
3.984625520E-1,6.719513331E-3,3.634340363E-3,1.221727114E-3,7.736466016E-3
4.009067710E-1,4.886919167E-3,5.800157669E-4,-1.221731771E-3,5.070604082E-3
4.033517710E-1,8.552107960E-3,-2.474304987E-3,-3.665191121E-3,9.627791111E-3
4.057976040E-1,5.497783888E-3,-6.139495410E-3,-5.497784354E-3,9.906798896E-3
4.082426040E-1,8.552107960E-3,-3.696036292E-3,-7.330379449E-3,1.185469096E-2
4.106868230E-1,4.886919167E-3,-6.750359200E-3,-9.162972681E-3,1.238585470E-2
4.131318230E-1,8.552107960E-3,-4.917764105E-3,-1.038470212E-2,1.432358169E-2
4.155776040E-1,7.330378052E-3,-6.750359200E-3,-1.282816101E-2,1.624387597E-2
4.180226040E-1,9.162971750E-3,-3.696036292E-3,-1.282816101E-2,1.619204899E-2
4.204668230E-1,7.330378052E-3,-3.696036292E-3,-1.343902666E-2,1.574809716E-2
4.229118230E-1,6.719513331E-3,-2.474304987E-3,-1.466075610E-2,1.631599872E-2
4.253576560E-1,8.552107960E-3,-1.252577407E-3,-1.282816101E-2,1.546832944E-2
4.278026560E-1,4.886919167E-3,5.800157669E-4,-1.404989045E-2,1.488683374E-2
4.302468750E-1,7.941242307E-3,3.023478435E-3,-1.466075610E-2,1.694528019E-2
4.326918750E-1,3.665189724E-3,3.023478435E-3,-1.404989045E-2,1.483153597E-2
4.351376560E-1,7.941242307E-3,5.466933362E-3,-1.099556778E-2,1.462372047E-2
4.375826560E-1,4.276054446E-3,6.077799015E-3,-9.773838334E-3,1.227811868E-2
4.400268750E-1,5.497783888E-3,7.910395972E-3,-9.162972681E-3,1.329511416E-2
4.424718750E-1,6.108648609E-3,6.077799015E-3,-6.108650006E-3,1.056270958E-2
4.449177090E-1,3.665189724E-3,7.299530320E-3,-4.886920564E-3,9.518337628E-3
4.473627090E-1,8.552107960E-3,7.299530320E-3,-4.276054911E-3,1.202939479E-2
4.498069270E-1,3.054325003E-3,6.077799015E-3,-2.443461679E-3,7.227658477E-3
4.522519270E-1,7.941242307E-3,7.910395972E-3,-1.832596492E-3,1.135764517E-2
4.546977090E-1,3.665189724E-3,6.077799015E-3,-6.108670495E-4,7.123651812E-3
4.571427090E-1,8.552107960E-3,6.688664667E-3,-6.108670495E-4,1.087427902E-2
4.595869270E-1,4.276054446E-3,6.688664667E-3,-2.328306437E-9,7.938694896E-3
4.620319790E-1,6.108648609E-3,6.077799015E-3,6.108623929E-4,8.638771994E-3
4.644777610E-1,6.719513331E-3,3.634340363E-3,1.832591835E-3,7.856123860E-3
4.669227610E-1,3.665189724E-3,3.634340363E-3,1.832591835E-3,5.477265597E-3
4.693669790E-1,6.719513331E-3,2.412612783E-3,2.443456557E-3,7.546061210E-3
4.718119790E-1,4.276054446E-3,2.412612783E-3,1.221727114E-3,5.059442578E-3
4.742577610E-1,7.330378052E-3,2.412612783E-3,3.054321278E-3,8.299639829E-3
4.767028130E-1,3.665189724E-3,1.801747130E-3,1.221727114E-3,4.262924534E-3
4.791469790E-1,8.552107960E-3,3.023478435E-3,1.832591835E-3,9.254099915E-3
4.815920310E-1,4.886919167E-3,-1.252577407E-3,1.832591835E-3,5.367431596E-3
4.840378130E-1,5.497783888E-3,1.190881478E-3,1.832591835E-3,5.916267338E-3
4.864828130E-1,4.886919167E-3,-3.084616037E-5,1.832591835E-3,5.219322108E-3
4.889270310E-1,4.886919167E-3,2.412612783E-3,1.832591835E-3,5.749875844E-3
4.913720310E-1,6.108648609E-3,1.801747130E-3,1.221727114E-3,6.484943924E-3
4.938178650E-1,3.054325003E-3,-1.252577407E-3,6.108623929E-4,3.357231635E-3
4.962628650E-1,7.330378052E-3,-3.084616037E-5,1.832591835E-3,7.556043059E-3
4.987070840E-1,1.832595561E-3,-3.085170640E-3,-6.108670495E-4,3.640033368E-3
5.011520840E-1,6.108648609E-3,-2.474304987E-3,6.108623929E-4,6.618982238E-3
5.035978650E-1,3.054325003E-3,-7.361222990E-3,-1.832596492E-3,8.177708422E-3
5.060428650E-1,4.276054446E-3,-6.750359200E-3,-1.832596492E-3,8.198194975E-3
5.084870840E-1,3.665189724E-3,-9.804681875E-3,-2.443461679E-3,1.074876306E-2
5.109320840E-1,1.221730839E-3,-1.041554753E-2,-3.054325469E-3,1.092269017E-2
5.133779170E-1,4.886919167E-3,-1.163727697E-2,-2.443461679E-3,1.285607635E-2
5.158229170E-1,2.443460282E-3,-1.285900641E-2,-5.497784354E-3,1.419683686E-2
5.182671360E-1,4.276054446E-3,-1.346987206E-2,-7.330379449E-3,1.592031903E-2
5.207121360E-1,-6.108633243E-4,-1.591333002E-2,-7.330379449E-3,1.753116337E-2
5.231579170E-1,1.832595561E-3,-1.469159964E-2,-7.941243239E-3,1.680073959E-2
5.256029690E-1,-1.221728045E-3,-1.652419381E-2,-7.941243239E-3,1.837402908E-2
5.280471880E-1,-1.221728045E-3,-1.530246530E-2,-9.773838334E-3,1.819851586E-2
5.304921880E-1,-1.221728045E-3,-1.530246530E-2,-9.773838334E-3,1.819851586E-2
5.329379690E-1,-2.443457488E-3,-1.591333002E-2,-1.160643157E-2,1.984726204E-2
5.353829690E-1,-1.221728045E-3,-1.591333002E-2,-1.221729722E-2,2.009947868E-2
5.378271880E-1,-4.276051652E-3,-1.591333002E-2,-1.282816101E-2,2.088253828E-2
5.402721880E-1,-3.665186930E-3,-1.652419381E-2,-1.282816101E-2,2.123780335E-2
5.427180210E-1,-8.552104235E-3,-1.713505760E-2,-1.527161989E-2,2.449430668E-2
5.451630210E-1,-4.886916373E-3,-1.713505760E-2,-1.527161989E-2,2.346730757E-2
5.476072400E-1,-7.330375258E-3,-1.896765269E-2,-1.588248461E-2,2.580231710E-2
5.500522400E-1,-5.497781094E-3,-1.713505760E-2,-1.649335027E-2,2.441037482E-2
5.524980210E-1,-5.497781094E-3,-1.896765269E-2,-1.710421592E-2,2.612568942E-2
5.549430210E-1,-8.552104235E-3,-1.896765269E-2,-1.710421592E-2,2.693444890E-2
5.573872400E-1,-6.108645815E-3,-2.018938214E-2,-1.527161989E-2,2.604129565E-2
5.598322920E-1,-1.038469933E-2,-2.080024779E-2,-1.649335027E-2,2.850478716E-2
5.622780730E-1,-6.108645815E-3,-1.896765269E-2,-1.588248461E-2,2.548216474E-2
5.647230730E-1,-9.773833677E-3,-2.080024779E-2,-1.771507785E-2,2.901727272E-2
5.671672920E-1,-7.941240445E-3,-1.774592325E-2,-1.466075610E-2,2.434992528E-2
5.696122920E-1,-1.099556312E-2,-1.774592325E-2,-1.466075610E-2,2.550995825E-2
5.720581250E-1,-8.552104235E-3,-1.408073585E-2,-1.282816101E-2,2.087983055E-2
5.745031250E-1,-1.099556312E-2,-1.346987206E-2,-1.221729722E-2,2.125093441E-2
5.769473440E-1,-1.160642877E-2,-1.041554753E-2,-1.099556778E-2,1.908128219E-2
5.793923440E-1,-1.099556312E-2,-7.361222990E-3,-1.038470212E-2,1.682058413E-2
5.818381250E-1,-1.527161710E-2,-4.917764105E-3,-1.038470212E-2,1.911148165E-2
5.842831250E-1,-9.162969887E-3,-1.863441197E-3,-7.330379449E-3,1.188136748E-2
5.867273440E-1,-1.466075145E-2,5.800157669E-4,-7.941243239E-3,1.668344675E-2
5.891723440E-1,-1.221729256E-2,4.856071435E-3,-6.108650006E-3,1.449687112E-2
5.916181770E-1,-1.527161710E-2,3.634340363E-3,-5.497784354E-3,1.663298985E-2
5.940631770E-1,-1.466075145E-2,7.299530320E-3,-6.108650006E-3,1.747959899E-2
5.965073960E-1,-1.466075145E-2,8.521257900E-3,-4.886920564E-3,1.764742083E-2
5.989523960E-1,-1.466075145E-2,1.096471678E-2,-5.497784354E-3,1.911513222E-2
6.013981770E-1,-1.343902200E-2,1.340817567E-2,-4.886920564E-3,1.960276715E-2
6.038432290E-1,-1.710421033E-2,1.218644809E-2,-3.665191121E-3,2.131893886E-2
6.062874480E-1,-1.282815821E-2,1.585163549E-2,-4.276054911E-3,2.083556182E-2
6.087324480E-1,-1.649334654E-2,1.585163549E-2,-3.665191121E-3,2.316761649E-2
6.111782290E-1,-1.282815821E-2,2.012768760E-2,-4.276054911E-3,2.424809471E-2
6.136232290E-1,-1.710421033E-2,2.012768760E-2,-5.497784354E-3,2.697968592E-2
6.160674480E-1,-1.404988766E-2,2.440374345E-2,-4.886920564E-3,2.858013348E-2
6.185124480E-1,-1.588248275E-2,2.562547103E-2,-6.108650006E-3,3.076091072E-2
6.209582810E-1,-1.710421033E-2,2.990152314E-2,-7.330379449E-3,3.521916467E-2
6.234032810E-1,-1.527161710E-2,3.173412010E-2,-7.330379449E-3,3.597236620E-2
6.258475000E-1,-1.710421033E-2,3.356670961E-2,-9.773838334E-3,3.892050771E-2
6.282925000E-1,-1.404988766E-2,3.539930657E-2,-1.038470212E-2,3.947597100E-2
6.307382810E-1,-1.832594164E-2,3.601017222E-2,-1.099556778E-2,4.187451672E-2
6.331833340E-1,-1.466075145E-2,3.967535868E-2,-1.221729722E-2,4.402651554E-2
6.356275000E-1,-1.771507598E-2,3.845363483E-2,-1.282816101E-2,4.423875748E-2
6.380725520E-1,-1.404988766E-2,4.272968695E-2,-1.282816101E-2,4.677378758E-2
6.405183340E-1,-1.404988766E-2,4.211882129E-2,-1.466075610E-2,4.675823157E-2
6.429633340E-1,-1.282815821E-2,4.334054515E-2,-1.404989045E-2,4.733248270E-2
6.454075520E-1,-1.160642877E-2,4.395141080E-2,-1.466075610E-2,4.776372546E-2
6.478525520E-1,-1.221729256E-2,4.272968695E-2,-1.588248461E-2,4.719472112E-2
6.502983860E-1,-9.773833677E-3,4.456227645E-2,-1.282816101E-2,4.739077993E-2
6.527433860E-1,-1.404988766E-2,4.211882129E-2,-1.221729722E-2,4.605058959E-2
6.551876040E-1,-8.552104235E-3,4.272968695E-2,-1.160643157E-2,4.509627354E-2
6.576326040E-1,-1.160642877E-2,3.967535868E-2,-1.099556778E-2,4.277552789E-2
6.600783860E-1,-8.552104235E-3,3.906449303E-2,-1.038470212E-2,4.131603975E-2
6.625233860E-1,-1.038469933E-2,3.601017222E-2,-8.552108891E-3,3.844103341E-2
6.649676040E-1,-9.773833677E-3,3.234498575E-2,-9.162972681E-3,3.500979858E-2
6.674126040E-1,-9.773833677E-3,2.990152314E-2,-9.773838334E-3,3.294171864E-2
6.698584380E-1,-1.099556312E-2,2.501460537E-2,-9.162972681E-3,2.882000969E-2
6.723034380E-1,-7.330375258E-3,2.257115021E-2,-9.162972681E-3,2.543916846E-2
6.747476560E-1,-1.282815821E-2,2.012768760E-2,-1.038470212E-2,2.602935823E-2
6.771926560E-1,-7.941240445E-3,1.768423244E-2,-1.160643157E-2,2.259434953E-2
6.796384900E-1,-1.038469933E-2,1.340817567E-2,-1.099556778E-2,2.021196838E-2
6.820834900E-1,-6.719510537E-3,1.218644809E-2,-1.160643157E-2,1.812099866E-2
6.845277090E-1,-8.552104235E-3,1.035385113E-2,-1.282816101E-2,1.857154907E-2
6.869727090E-1,-7.330375258E-3,7.910395972E-3,-1.527161989E-2,1.869575192E-2
6.894184900E-1,-4.886916373E-3,6.688664667E-3,-1.466075610E-2,1.683917920E-2
6.918635420E-1,-7.941240445E-3,6.077799015E-3,-1.527161989E-2,1.825446014E-2
6.943077090E-1,-4.276051652E-3,6.077799015E-3,-1.527161989E-2,1.698371669E-2
6.967527610E-1,-7.330375258E-3,4.856071435E-3,-1.466075610E-2,1.709542631E-2
6.991985420E-1,-3.054322209E-3,4.856071435E-3,-1.466075610E-2,1.574319165E-2
7.016435420E-1,-7.330375258E-3,2.412612783E-3,-1.343902666E-2,1.549717844E-2
7.040877610E-1,-2.443457488E-3,4.856071435E-3,-1.221729722E-2,1.337214514E-2
7.065327610E-1,-5.497781094E-3,3.634340363E-3,-1.221729722E-2,1.388151210E-2
7.089785940E-1,-4.886916373E-3,4.245205782E-3,-9.162972681E-3,1.121890334E-2
7.114235940E-1,-4.886916373E-3,4.856071435E-3,-8.552108891E-3,1.098189182E-2
7.138678130E-1,-4.276051652E-3,1.801747130E-3,-4.276054911E-3,6.309956898E-3
7.163128130E-1,-4.886916373E-3,1.801747130E-3,-4.276054911E-3,6.738908663E-3
7.187585940E-1,-5.497781094E-3,1.190881478E-3,-2.443461679E-3,6.133049864E-3
7.212036460E-1,-3.665186930E-3,1.801747130E-3,-1.221731771E-3,4.262923466E-3
7.236478130E-1,-3.054322209E-3,-3.084616037E-5,6.108623929E-4,3.114962039E-3
7.260928650E-1,-4.276051652E-3,-6.417118129E-4,1.221727114E-3,4.493220328E-3
7.285386460E-1,-3.665186930E-3,-3.696036292E-3,2.443456557E-3,5.750196471E-3
7.309836460E-1,-3.054322209E-3,-4.306900315E-3,3.665185999E-3,6.427430504E-3
7.334278650E-1,-4.276051652E-3,-3.085170640E-3,4.276050720E-3,6.788777899E-3
7.358728650E-1,-3.665186930E-3,-3.085170640E-3,4.276050720E-3,6.421563896E-3
7.383186980E-1,-3.054322209E-3,-3.696036292E-3,4.886915442E-3,6.846277161E-3
7.407636980E-1,-4.276051652E-3,-2.474304987E-3,4.276050720E-3,6.533866593E-3
7.432079170E-1,-2.443457488E-3,-1.252577407E-3,4.886915442E-3,5.605477427E-3
7.456529170E-1,-3.665186930E-3,-3.084616037E-5,4.276050720E-3,5.631976250E-3
7.480986980E-1,-3.054322209E-3,5.800157669E-4,4.886915442E-3,5.791998358E-3
7.505436980E-1,-3.054322209E-3,4.245205782E-3,3.054321278E-3,6.056363163E-3
7.529879170E-1,-3.665186930E-3,6.688664667E-3,3.665185999E-3,8.461998504E-3
7.554329690E-1,-3.054322209E-3,7.299530320E-3,3.665185999E-3,8.720413720E-3
7.578787500E-1,-4.886916373E-3,9.132123552E-3,3.665185999E-3,1.098686582E-2
7.603237500E-1,-3.665186930E-3,1.157558244E-2,3.665185999E-3,1.268311052E-2
7.627679690E-1,-4.276051652E-3,1.340817567E-2,4.276050720E-3,1.470878657E-2
7.652129690E-1,-3.665186930E-3,1.401904132E-2,3.054321278E-3,1.480864590E-2
7.676588020E-1,-5.497781094E-3,1.462990697E-2,2.443456557E-3,1.581866793E-2
7.701038020E-1,-4.276051652E-3,1.646250114E-2,3.054321278E-3,1.728084026E-2
7.725480210E-1,-3.665186930E-3,1.768423244E-2,3.665185999E-3,1.842821914E-2
7.749930210E-1,-3.665186930E-3,1.768423244E-2,2.443456557E-3,1.822460294E-2
7.774388020E-1,-4.276051652E-3,1.768423244E-2,1.832591835E-3,1.828592595E-2
7.798838540E-1,-3.665186930E-3,1.707336679E-2,6.108623929E-4,1.747302497E-2
7.823280730E-1,-3.054322209E-3,1.646250114E-2,-1.221731771E-3,1.678795569E-2
7.847730730E-1,-4.276051652E-3,1.829509437E-2,-1.221731771E-3,1.882784439E-2
7.872188540E-1,-3.054322209E-3,1.707336679E-2,-6.108670495E-4,1.735516915E-2
7.896638540E-1,-3.054322209E-3,1.707336679E-2,-6.108670495E-4,1.735516915E-2
7.921080730E-1,-5.497781094E-3,1.768423244E-2,-1.221731771E-3,1.855937237E-2
7.945531250E-1,-3.665186930E-3,1.768423244E-2,-1.221731771E-3,1.810133423E-2
7.969989060E-1,-4.886916373E-3,1.768423244E-2,-1.221731771E-3,1.838767678E-2
7.994439060E-1,-3.665186930E-3,1.890596002E-2,-1.221731771E-3,1.929667195E-2
8.018881250E-1,-4.886916373E-3,1.829509437E-2,-1.832596492E-3,1.902500564E-2
8.043331250E-1,-5.497781094E-3,1.951682568E-2,-6.108670495E-4,2.028559193E-2
8.067789590E-1,-4.886916373E-3,1.829509437E-2,-2.328306437E-9,1.893653690E-2
8.092239590E-1,-4.886916373E-3,1.829509437E-2,-6.108670495E-4,1.894638721E-2
8.116681770E-1,-5.497781094E-3,1.707336679E-2,-2.328306437E-9,1.793670679E-2
8.141131770E-1,-6.108645815E-3,1.462990697E-2,1.221727114E-3,1.590101723E-2
8.165589590E-1,-4.886916373E-3,1.279731374E-2,1.221727114E-3,1.375302904E-2
8.190039590E-1,-5.497781094E-3,9.132123552E-3,1.221727114E-3,1.072911435E-2
8.214481770E-1,-6.108645815E-3,7.910395972E-3,1.832591835E-3,1.016111760E-2
8.238932290E-1,-6.719510537E-3,4.245205782E-3,1.221727114E-3,8.041530397E-3
8.263390110E-1,-6.108645815E-3,5.800157669E-4,6.108623929E-4,6.166451561E-3
8.287840110E-1,-6.719510537E-3,-1.863441197E-3,6.108623929E-4,6.999813413E-3
8.312282290E-1,-6.719510537E-3,-3.085170640E-3,-1.221731771E-3,7.494179625E-3
8.336732290E-1,-6.719510537E-3,-5.528629757E-3,-1.832596492E-3,8.892467529E-3
8.361190630E-1,-5.497781094E-3,-8.582954295E-3,-1.832596492E-3,1.035621124E-2
8.385640630E-1,-6.108645815E-3,-9.193818085E-3,-2.443461679E-3,1.130541241E-2
8.410082810E-1,-7.330375258E-3,-7.361222990E-3,-3.054325469E-3,1.082824591E-2
8.434532810E-1,-6.719510537E-3,-5.528629757E-3,-4.276054911E-3,9.695473916E-3
8.458990630E-1,-7.330375258E-3,-3.085170640E-3,-5.497784354E-3,9.668418283E-3
8.483441150E-1,-7.330375258E-3,-1.252577407E-3,-6.108650006E-3,9.623874297E-3
8.507883340E-1,-8.552104235E-3,1.190881478E-3,-6.108650006E-3,1.057696981E-2
8.532333340E-1,-7.941240445E-3,2.412612783E-3,-7.941243239E-3,1.148683352E-2
8.556791150E-1,-7.941240445E-3,6.688664667E-3,-8.552108891E-3,1.345139775E-2
8.581241150E-1,-9.162969887E-3,9.742989205E-3,-8.552108891E-3,1.587527708E-2
8.605683340E-1,-9.162969887E-3,1.462990697E-2,-7.330379449E-3,1.875443036E-2
8.630133340E-1,-8.552104235E-3,1.951682568E-2,-7.330379449E-3,2.253396179E-2
8.654591670E-1,-8.552104235E-3,2.073855326E-2,-6.108650006E-3,2.324955232E-2
8.679041670E-1,-9.773833677E-3,2.501460537E-2,-6.719513796E-3,2.768411408E-2
8.703483860E-1,-1.038469933E-2,2.806892991E-2,-4.886920564E-3,3.032472257E-2
8.727933860E-1,-9.162969887E-3,3.173412010E-2,-3.054325469E-3,3.317142294E-2
8.752392190E-1,-8.552104235E-3,3.356670961E-2,-1.221731771E-3,3.466056995E-2
8.776842190E-1,-9.162969887E-3,3.601017222E-2,-6.108670495E-4,3.716269203E-2
8.801284380E-1,-8.552104235E-3,3.784276918E-2,1.832591835E-3,3.884034061E-2
8.825734380E-1,-9.773833677E-3,3.906449303E-2,5.497780163E-3,4.064219516E-2
8.850192190E-1,-9.773833677E-3,4.211882129E-2,7.941238582E-3,4.396118973E-2
8.874642710E-1,-8.552104235E-3,4.211882129E-2,9.162968025E-3,4.394420982E-2
8.899084380E-1,-1.099556312E-2,4.456227645E-2,1.160642691E-2,4.734351103E-2
8.923534900E-1,-9.162969887E-3,4.456227645E-2,1.282815635E-2,4.726857408E-2
8.947992710E-1,-8.552104235E-3,4.517314211E-2,1.466075052E-2,4.825649034E-2
8.972442710E-1,-9.773833677E-3,4.822747037E-2,1.710420847E-2,5.209578361E-2
8.996884900E-1,-9.773833677E-3,4.761660472E-2,1.771507412E-2,5.173676372E-2
9.021334900E-1,-9.773833677E-3,4.761660472E-2,1.771507412E-2,5.173676372E-2
9.045793230E-1,-9.162969887E-3,4.517314211E-2,1.832593977E-2,4.960254886E-2
9.070243230E-1,-1.038469933E-2,4.517314211E-2,1.771507412E-2,4.962135225E-2
9.094685420E-1,-9.773833677E-3,4.211882129E-2,1.710420847E-2,4.649813845E-2
9.119135420E-1,-1.038469933E-2,4.334054515E-2,1.710420847E-2,4.773676551E-2
9.143593750E-1,-1.038469933E-2,3.845363483E-2,1.710420847E-2,4.334833283E-2
9.168043750E-1,-1.038469933E-2,3.662103787E-2,1.466075052E-2,4.079068522E-2
9.192485940E-1,-1.038469933E-2,3.356670961E-2,1.466075052E-2,3.807234665E-2
9.216935940E-1,-1.099556312E-2,3.173412010E-2,1.282815635E-2,3.595161168E-2
9.241393750E-1,-1.099556312E-2,2.806892991E-2,1.099556312E-2,3.208846589E-2
9.265843750E-1,-9.773833677E-3,2.684720233E-2,9.162968025E-3,3.000433437E-2
9.290285940E-1,-8.552104235E-3,2.196028456E-2,9.162968025E-3,2.528542204E-2
9.314735940E-1,-7.941240445E-3,2.012768760E-2,7.941238582E-3,2.304886935E-2
9.339194270E-1,-8.552104235E-3,1.707336679E-2,7.941238582E-3,2.068094801E-2
9.363644270E-1,-8.552104235E-3,1.462990697E-2,6.719509605E-3,1.822976890E-2
9.388086460E-1,-7.941240445E-3,1.096471678E-2,6.719509605E-3,1.511423578E-2
9.412536460E-1,-7.941240445E-3,9.132123552E-3,6.108644884E-3,1.355634621E-2
9.436994790E-1,-6.719510537E-3,7.299530320E-3,5.497780163E-3,1.134286346E-2
9.461444790E-1,-6.108645815E-3,3.634340363E-3,3.054321278E-3,7.736463148E-3
9.485886980E-1,-7.941240445E-3,4.245205782E-3,2.443456557E-3,9.330356471E-3
9.510336980E-1,-7.941240445E-3,1.801747130E-3,3.665185999E-3,8.929903747E-3
9.534795310E-1,-6.719510537E-3,2.412612783E-3,4.276050720E-3,8.322087001E-3
9.559245310E-1,-6.719510537E-3,1.190881478E-3,4.886915442E-3,8.393566767E-3
9.583687500E-1,-7.330375258E-3,1.190881478E-3,3.054321278E-3,8.030036026E-3
9.608137500E-1,-8.552104235E-3,1.801747130E-3,3.665185999E-3,9.477255297E-3
9.632595310E-1,-7.330375258E-3,4.245205782E-3,4.276050720E-3,9.488982207E-3
9.657045310E-1,-8.552104235E-3,4.856071435E-3,4.276050720E-3,1.072401634E-2
9.681487500E-1,-7.941240445E-3,6.077799015E-3,3.665185999E-3,1.065065862E-2
9.705938020E-1,-7.330375258E-3,8.521257900E-3,3.665185999E-3,1.182285186E-2
9.730395840E-1,-8.552104235E-3,8.521257900E-3,4.886915442E-3,1.302429520E-2
9.754845840E-1,-8.552104235E-3,1.157558244E-2,4.886915442E-3,1.519916242E-2
9.779288020E-1,-8.552104235E-3,1.279731374E-2,4.276050720E-3,1.597480315E-2
9.803738020E-1,-9.773833677E-3,1.585163549E-2,3.665185999E-3,1.897987779E-2
9.828196360E-1,-1.221729256E-2,1.890596002E-2,5.497780163E-3,2.317160220E-2
9.852646360E-1,-1.160642877E-2,2.073855326E-2,6.108644884E-3,2.453797714E-2
9.877088540E-1,-1.282815821E-2,2.379287779E-2,6.719509605E-3,2.785344658E-2
9.901538540E-1,-1.404988766E-2,2.379287779E-2,4.886915442E-3,2.806033356E-2
9.925996880E-1,-1.404988766E-2,2.623633668E-2,3.665185999E-3,2.998630177E-2
9.950446880E-1,-1.343902200E-2,2.990152314E-2,4.886915442E-3,3.314498969E-2
9.974889060E-1,-1.466075145E-2,3.112325445E-2,6.108644884E-3,3.494152462E-2
9.999339060E-1,-1.649334654E-2,3.234498575E-2,4.886915442E-3,3.663482668E-2
1.002379688E0,-1.527161710E-2,3.356670961E-2,4.276050720E-3,3.712453222E-2
1.004824688E0,-1.527161710E-2,3.417757526E-2,3.665185999E-3,3.761332913E-2
1.007268906E0,-1.710421033E-2,3.662103787E-2,3.665185999E-3,4.058433213E-2
1.009713959E0,-1.710421033E-2,3.662103787E-2,5.497780163E-3,4.079068536E-2
1.012159740E0,-1.649334654E-2,3.478844091E-2,5.497780163E-3,3.889076610E-2
1.014604740E0,-1.832594164E-2,3.478844091E-2,4.276050720E-3,3.955199575E-2
1.017048959E0,-2.015853301E-2,3.173412010E-2,3.665185999E-3,3.777372658E-2
1.019493959E0,-2.015853301E-2,3.234498575E-2,4.276050720E-3,3.835165141E-2
1.021939792E0,-2.199112624E-2,3.112325445E-2,3.665185999E-3,3.828446407E-2
1.024384792E0,-2.321285754E-2,3.051238880E-2,4.886915442E-3,3.864873307E-2
1.026829011E0,-2.321285754E-2,3.112325445E-2,4.886915442E-3,3.913279527E-2
1.029274011E0,-2.321285754E-2,2.929066122E-2,3.665185999E-3,3.755280520E-2
1.031719844E0,-2.443458512E-2,2.684720233E-2,3.665185999E-3,3.648636474E-2
1.034164844E0,-2.748890966E-2,2.440374345E-2,1.832591835E-3,3.680409273E-2
1.036609063E0,-2.871064097E-2,2.318201214E-2,6.108623929E-4,3.690636455E-2
1.039054063E0,-2.748890966E-2,2.257115021E-2,1.832591835E-3,3.561538108E-2
1.041499844E0,-2.932150289E-2,2.196028456E-2,6.108623929E-4,3.663847408E-2
1.043944844E0,-2.871064097E-2,1.951682568E-2,-6.108670495E-4,3.472147099E-2
1.046389063E0,-2.993236855E-2,1.829509437E-2,-1.832596492E-3,3.512855782E-2
1.048834115E0,-3.054323420E-2,1.768423244E-2,-1.221731771E-3,3.531449930E-2
1.051279896E0,-3.054323420E-2,1.707336679E-2,-2.443461679E-3,3.507648092E-2
1.053724896E0,-3.054323420E-2,1.585163549E-2,-2.443461679E-3,3.449831891E-2
1.056169115E0,-3.237582743E-2,1.707336679E-2,-3.665191121E-3,3.678488387E-2
1.058614115E0,-3.176496178E-2,1.462990697E-2,-3.054325469E-3,3.510521156E-2
1.061059948E0,-3.115409613E-2,1.951682568E-2,-5.497784354E-3,3.717135756E-2
1.063504948E0,-3.176496178E-2,2.012768760E-2,-6.719513796E-3,3.820063443E-2
1.065949167E0,-3.176496178E-2,2.134941891E-2,-7.330379449E-3,3.896851226E-2
1.068394167E0,-3.176496178E-2,2.379287779E-2,-6.719513796E-3,4.025252410E-2
1.070840000E0,-3.237582743E-2,2.684720233E-2,-7.941243239E-3,4.280221745E-2
1.073285000E0,-3.481928632E-2,2.867979556E-2,-7.330379449E-3,4.570172684E-2
1.075729219E0,-3.543015197E-2,3.112325445E-2,-7.941243239E-3,4.782275588E-2
1.078174219E0,-3.604101390E-2,3.356670961E-2,-6.719513796E-3,4.970744956E-2
1.080620000E0,-3.665187955E-2,3.417757526E-2,-6.719513796E-3,5.056301802E-2
1.083065052E0,-3.543015197E-2,3.662103787E-2,-6.719513796E-3,5.139599156E-2
1.085509271E0,-3.543015197E-2,3.662103787E-2,-5.497784354E-3,5.125057771E-2
1.087954271E0,-3.604101390E-2,3.845363483E-2,-7.330379449E-3,5.321063030E-2
1.090400052E0,-3.543015197E-2,3.845363483E-2,-7.330379449E-3,5.279878941E-2
1.092845052E0,-3.420842066E-2,4.089708999E-2,-6.719513796E-3,5.373955600E-2
1.095289271E0,-3.665187955E-2,4.150795564E-2,-6.719513796E-3,5.578012658E-2
1.097734271E0,-3.604101390E-2,4.334054515E-2,-6.719513796E-3,5.676715073E-2
1.100180104E0,-3.543015197E-2,4.578400776E-2,-7.941243239E-3,5.843401731E-2
1.102625104E0,-3.420842066E-2,4.639487341E-2,-7.330379449E-3,5.810709755E-2
1.105069323E0,-3.420842066E-2,4.944919422E-2,-7.330379449E-3,6.057370153E-2
1.107514323E0,-3.481928632E-2,4.883832857E-2,-8.552108891E-3,6.058633182E-2
1.109960156E0,-3.543015197E-2,5.067092553E-2,-7.941243239E-3,6.233700110E-2
1.112405156E0,-3.543015197E-2,5.067092553E-2,-9.162972681E-3,6.250438729E-2
1.114849375E0,-3.481928632E-2,5.189265683E-2,-9.162972681E-3,6.316003959E-2
1.117294375E0,-3.420842066E-2,5.250352249E-2,-9.162972681E-3,6.333084546E-2
1.119740209E0,-3.481928632E-2,5.189265683E-2,-7.941243239E-3,6.299439560E-2
1.122185209E0,-3.420842066E-2,5.006005988E-2,-9.162972681E-3,6.132035313E-2
1.124629427E0,-3.543015197E-2,5.128179118E-2,-9.162972681E-3,6.300061780E-2
1.127074427E0,-3.543015197E-2,5.006005988E-2,-9.162972681E-3,6.201020345E-2
1.129520209E0,-3.420842066E-2,4.761660472E-2,-8.552108891E-3,5.925112366E-2
1.131965209E0,-3.359755874E-2,4.761660472E-2,-8.552108891E-3,5.890055657E-2
1.134409427E0,-3.481928632E-2,4.517314211E-2,-8.552108891E-3,5.767264545E-2
1.136854479E0,-3.298669308E-2,4.395141080E-2,-7.941243239E-3,5.552397479E-2
1.139300261E0,-3.420842066E-2,4.150795564E-2,-7.330379449E-3,5.428499690E-2
1.141745261E0,-3.298669308E-2,3.906449303E-2,-6.719513796E-3,5.156848264E-2
1.144189479E0,-3.237582743E-2,3.845363483E-2,-7.941243239E-3,5.089144896E-2
1.146634479E0,-3.237582743E-2,3.845363483E-2,-6.108650006E-3,5.063784986E-2
1.149080313E0,-3.237582743E-2,3.539930657E-2,-7.330379449E-3,4.852874993E-2
1.151525313E0,-3.237582743E-2,3.356670961E-2,-7.330379449E-3,4.720860789E-2
1.153969531E0,-3.298669308E-2,3.356670961E-2,-6.108650006E-3,4.745694385E-2
1.156414531E0,-3.359755874E-2,3.173412010E-2,-6.108650006E-3,4.661722789E-2
1.158860365E0,-3.298669308E-2,3.051238880E-2,-5.497784354E-3,4.526978488E-2
1.161305365E0,-3.359755874E-2,2.929066122E-2,-6.719513796E-3,4.507649779E-2
1.163749584E0,-3.543015197E-2,2.867979556E-2,-5.497784354E-3,4.591352715E-2
1.166194584E0,-3.481928632E-2,2.623633668E-2,-6.108650006E-3,4.402321736E-2
1.168640365E0,-3.420842066E-2,2.501460537E-2,-5.497784354E-3,4.273373561E-2
1.171085417E0,-3.481928632E-2,2.501460537E-2,-6.108650006E-3,4.330622111E-2
1.173529636E0,-3.481928632E-2,2.440374345E-2,-6.719513796E-3,4.304738389E-2
1.175974636E0,-3.481928632E-2,2.196028456E-2,-6.719513796E-3,4.171077395E-2
1.178420417E0,-3.481928632E-2,2.012768760E-2,-6.719513796E-3,4.077570813E-2
1.180865417E0,-3.543015197E-2,1.707336679E-2,-6.108650006E-3,3.980089355E-2
1.183309636E0,-3.481928632E-2,1.768423244E-2,-6.108650006E-3,3.952759013E-2
1.185754688E0,-3.237582743E-2,1.768423244E-2,-4.886920564E-3,3.721301213E-2
1.188200469E0,-3.604101390E-2,1.524076890E-2,-4.886920564E-3,3.943498082E-2
1.190645469E0,-3.420842066E-2,1.524076890E-2,-4.276054911E-3,3.769325837E-2
1.193089688E0,-3.359755874E-2,1.585163549E-2,-3.665191121E-3,3.732966550E-2
1.195534688E0,-3.604101390E-2,1.462990697E-2,-4.886920564E-3,3.920294445E-2
1.197980521E0,-3.359755874E-2,1.646250114E-2,-4.276054911E-3,3.765759608E-2
1.200425521E0,-3.604101390E-2,1.279731374E-2,-4.276054911E-3,3.848390011E-2
1.202869740E0,-3.359755874E-2,1.524076890E-2,-3.054325469E-3,3.701899369E-2
1.205314740E0,-3.848447651E-2,1.279731374E-2,-4.886920564E-3,4.084982452E-2
1.207760573E0,-3.420842066E-2,1.585163549E-2,-5.497784354E-3,3.810139137E-2
1.210205573E0,-3.420842066E-2,1.768423244E-2,-5.497784354E-3,3.889953411E-2
1.212649792E0,-2.993236855E-2,2.257115021E-2,-7.330379449E-3,3.819866453E-2
1.215094792E0,-2.443458512E-2,2.501460537E-2,-7.330379449E-3,3.572833462E-2
1.217540573E0,-2.321285754E-2,2.562547103E-2,-8.552108891E-3,3.561797421E-2
1.219985625E0,-1.649334654E-2,2.562547103E-2,-8.552108891E-3,3.165175843E-2
1.222429792E0,-1.832594164E-2,2.257115021E-2,-9.773838334E-3,3.067286871E-2
1.224874844E0,-1.404988766E-2,2.257115021E-2,-8.552108891E-3,2.792838577E-2
1.227320625E0,-1.710421033E-2,1.829509437E-2,-7.330379449E-3,2.609595662E-2
1.229765625E0,-1.404988766E-2,1.585163549E-2,-6.108650006E-3,2.204516490E-2
1.232209844E0,-1.527161710E-2,1.035385113E-2,-4.276054911E-3,1.893961900E-2
1.234654896E0,-1.466075145E-2,8.521257900E-3,-2.443461679E-3,1.713242464E-2
1.237100677E0,-1.343902200E-2,6.688664667E-3,6.108623929E-4,1.502393758E-2
1.239545677E0,-1.466075145E-2,1.801747130E-3,2.443456557E-3,1.497178699E-2
1.241989896E0,-1.160642877E-2,-1.252577407E-3,2.443456557E-3,1.192680255E-2
1.244434896E0,-1.466075145E-2,-6.139495410E-3,4.276050720E-3,1.645951538E-2
1.246880729E0,-9.162969887E-3,-6.750359200E-3,4.276050720E-3,1.215779488E-2
1.249325729E0,-1.160642877E-2,-1.041554753E-2,3.665185999E-3,1.601956328E-2
1.251769948E0,-6.108645815E-3,-1.224814076E-2,5.497780163E-3,1.474985059E-2
1.254214948E0,-7.330375258E-3,-1.591333002E-2,4.886915442E-3,1.818929400E-2
1.256660781E0,-4.886916373E-3,-1.774592325E-2,4.276050720E-3,1.889667572E-2
1.259105781E0,-2.443457488E-3,-1.896765269E-2,4.886915442E-3,1.973890260E-2
1.261550000E0,-3.665186930E-3,-2.202197537E-2,4.276050720E-3,2.273071939E-2
1.263995000E0,-1.221728045E-3,-2.446543425E-2,3.665185999E-3,2.476860273E-2
1.266440781E0,-3.054322209E-3,-2.446543425E-2,3.054321278E-3,2.484381685E-2
1.268885834E0,1.396983862E-9,-2.385457046E-2,3.665185999E-3,2.413450062E-2
1.271330000E0,-3.665186930E-3,-2.324370667E-2,1.832591835E-3,2.360215855E-2
1.273775052E0,1.396983862E-9,-1.835678890E-2,2.443456557E-3,1.851869809E-2
1.276220834E0,-2.443457488E-3,-1.530246530E-2,2.443456557E-3,1.568777896E-2
1.278665834E0,-3.665186930E-3,-9.804681875E-3,3.054321278E-3,1.090386447E-2
1.281110052E0,-4.276051652E-3,-3.696036292E-3,2.443456557E-3,6.157579228E-3
1.283555052E0,-4.886916373E-3,5.800157669E-4,1.832591835E-3,5.251358183E-3
1.286000886E0,-6.108645815E-3,6.688664667E-3,-2.328306437E-9,9.058354637E-3
1.288445886E0,-6.719510537E-3,1.035385113E-2,1.832591835E-3,1.247847939E-2
1.290890104E0,-7.330375258E-3,1.401904132E-2,1.221727114E-3,1.586696373E-2
1.293335104E0,-7.330375258E-3,1.524076890E-2,1.832591835E-3,1.701099148E-2
1.295780938E0,-7.941240445E-3,1.524076890E-2,1.832591835E-3,1.728301853E-2
1.298225938E0,-7.941240445E-3,1.585163549E-2,3.054321278E-3,1.799073444E-2
1.300670156E0,-7.941240445E-3,1.585163549E-2,3.665185999E-3,1.810445348E-2
1.303115156E0,-9.773833677E-3,1.646250114E-2,4.886915442E-3,1.975914247E-2
1.305560990E0,-9.162969887E-3,1.829509437E-2,5.497780163E-3,2.118716786E-2
1.308005990E0,-9.162969887E-3,1.768423244E-2,7.941238582E-3,2.144190674E-2
1.310450209E0,-9.773833677E-3,1.768423244E-2,9.773833677E-3,2.244521612E-2
1.312895209E0,-9.162969887E-3,1.829509437E-2,1.282815635E-2,2.415019856E-2
1.315340990E0,-9.162969887E-3,2.012768760E-2,1.404988673E-2,2.620082332E-2
1.317786042E0,-8.552104235E-3,2.073855326E-2,1.527161431E-2,2.713758061E-2
1.320230261E0,-1.038469933E-2,2.012768760E-2,1.710420847E-2,2.838167958E-2
1.322675261E0,-9.773833677E-3,1.951682568E-2,1.649334654E-2,2.735808453E-2
1.325121042E0,-9.773833677E-3,1.768423244E-2,1.832593977E-2,2.727819588E-2
1.327566042E0,-8.552104235E-3,1.646250114E-2,1.771507412E-2,2.565104836E-2
1.330010261E0,-5.497781094E-3,1.279731374E-2,1.893680543E-2,2.350743363E-2
1.332455313E0,-5.497781094E-3,1.096471678E-2,1.588248089E-2,2.006748141E-2
1.334901094E0,-5.497781094E-3,7.910395972E-3,1.588248089E-2,1.857560660E-2
1.337346094E0,-7.330375258E-3,3.634340363E-3,1.527161431E-2,1.732527156E-2
1.339790313E0,-7.941240445E-3,5.800157669E-4,1.466075052E-2,1.668344460E-2
1.342235313E0,-7.330375258E-3,-4.917764105E-3,1.221729256E-2,1.507252609E-2
1.344681146E0,-6.719510537E-3,-9.193818085E-3,9.773833677E-3,1.500686302E-2
1.347126146E0,-6.108645815E-3,-1.408073585E-2,7.330374327E-3,1.700932285E-2
1.349570365E0,-4.886916373E-3,-1.835678890E-2,5.497780163E-3,1.977572343E-2
1.352015365E0,-4.276051652E-3,-2.385457046E-2,4.886915442E-3,2.472260286E-2
1.354461198E0,-4.276051652E-3,-2.568716556E-2,1.832591835E-3,2.610504712E-2
1.356906198E0,-4.886916373E-3,-2.874148823E-2,-2.328306437E-9,2.915398939E-2
1.359350417E0,-6.108645815E-3,-3.179581091E-2,-1.832596492E-3,3.242911585E-2
1.361795417E0,-6.719510537E-3,-3.240667656E-2,-4.886920564E-3,3.345484270E-2
1.364241198E0,-8.552104235E-3,-3.179581091E-2,-6.108650006E-3,3.348772436E-2
1.366686250E0,-8.552104235E-3,-3.118494712E-2,-7.941243239E-3,3.329718844E-2
1.369130469E0,-9.162969887E-3,-2.751975879E-2,-1.038470212E-2,3.080810249E-2
1.371575469E0,-1.038469933E-2,-2.446543425E-2,-9.773838334E-3,2.831832215E-2
1.374021250E0,-1.282815821E-2,-2.018938214E-2,-9.773838334E-3,2.583990538E-2
1.376466250E0,-1.282815821E-2,-1.652419381E-2,-1.038470212E-2,2.335492801E-2
1.378910469E0,-1.466075145E-2,-1.346987206E-2,-9.773838334E-3,2.217888641E-2
1.381355521E0,-1.588248275E-2,-7.972088642E-3,-1.099556778E-2,2.089760672E-2
1.383801302E0,-1.649334654E-2,-2.474304987E-3,-1.099556778E-2,1.997636544E-2
1.386246302E0,-1.710421033E-2,2.412612783E-3,-1.038470212E-2,2.015481952E-2
1.388690521E0,-1.832594164E-2,6.077799015E-3,-9.162972681E-3,2.137147272E-2
1.391135521E0,-1.771507598E-2,1.035385113E-2,-9.162972681E-3,2.247189842E-2
1.393581354E0,-1.710421033E-2,1.585163549E-2,-7.330379449E-3,2.444509811E-2
1.396026354E0,-1.710421033E-2,1.890596002E-2,-6.108650006E-3,2.621650130E-2
1.398470573E0,-1.893680543E-2,2.440374345E-2,-6.108650006E-3,3.148747209E-2
1.400915573E0,-1.710421033E-2,2.806892991E-2,-3.054325469E-3,3.301132747E-2
1.403361406E0,-1.649334654E-2,3.234498575E-2,-1.832596492E-3,3.635363797E-2
1.405806406E0,-1.710421033E-2,3.601017222E-2,-1.221731771E-3,3.988457274E-2
1.408250625E0,-1.649334654E-2,3.906449303E-2,1.221727114E-3,4.242119415E-2
1.410695625E0,-1.710421033E-2,4.334054515E-2,3.054321278E-3,4.669352999E-2
1.413141459E0,-1.710421033E-2,4.456227645E-2,4.886915442E-3,4.798158435E-2
1.415586459E0,-1.771507598E-2,4.578400776E-2,6.108644884E-3,4.947034289E-2
1.418030677E0,-1.771507598E-2,4.517314211E-2,6.108644884E-3,4.890554393E-2
1.420475677E0,-1.649334654E-2,4.456227645E-2,6.719509605E-3,4.798936103E-2
1.422921459E0,-1.649334654E-2,4.089708999E-2,8.552104235E-3,4.491927133E-2
1.425366511E0,-1.710421033E-2,3.784276918E-2,7.330374327E-3,4.217064830E-2
1.427810677E0,-1.832594164E-2,3.539930657E-2,6.719509605E-3,4.042403804E-2
1.430255729E0,-1.649334654E-2,3.234498575E-2,4.886915442E-3,3.663482668E-2
1.432701511E0,-1.527161710E-2,2.806892991E-2,1.832591835E-3,3.200696031E-2
1.435146511E0,-1.466075145E-2,2.562547103E-2,-6.108670495E-4,2.952923224E-2
1.437590729E0,-1.404988766E-2,2.257115021E-2,-4.276054911E-3,2.692843870E-2
1.440035781E0,-1.404988766E-2,2.257115021E-2,-7.941243239E-3,2.774742347E-2
1.442481563E0,-1.466075145E-2,2.134941891E-2,-1.038470212E-2,2.790299910E-2
1.444926563E0,-1.466075145E-2,2.257115021E-2,-1.404989045E-2,3.036105856E-2
1.447370781E0,-1.466075145E-2,2.562547103E-2,-1.771507785E-2,3.443002151E-2
1.449815781E0,-1.710421033E-2,2.806892991E-2,-2.015853673E-2,3.855885684E-2
1.452261615E0,-1.893680543E-2,3.295585141E-2,-2.504545450E-2,4.551884811E-2
1.454706615E0,-1.893680543E-2,3.723190352E-2,-2.871064469E-2,5.068647116E-2
1.457150834E0,-2.076939866E-2,4.211882129E-2,-3.115410358E-2,5.635548951E-2
1.459595834E0,-2.199112624E-2,4.761660472E-2,-3.420842439E-2,6.261922211E-2
1.462041667E0,-2.138026431E-2,4.944919422E-2,-3.359756246E-2,6.349121762E-2
1.464486667E0,-2.199112624E-2,5.555784330E-2,-3.543015569E-2,6.946639128E-2
1.466930886E0,-2.260199189E-2,5.800130591E-2,-3.787361458E-2,7.286571351E-2
1.469375886E0,-2.260199189E-2,6.044476107E-2,-3.848448023E-2,7.513637200E-2
1.471821667E0,-2.199112624E-2,6.349908561E-2,-3.787361458E-2,7.713724254E-2
1.474266719E0,-2.138026431E-2,6.410994381E-2,-3.726274893E-2,7.717326645E-2
1.476710938E0,-2.260199189E-2,6.472081691E-2,-3.543015569E-2,7.716819365E-2
1.479155938E0,-2.015853301E-2,6.594254822E-2,-3.481929004E-2,7.724745353E-2
1.481601719E0,-1.954766735E-2,6.655340642E-2,-3.054323792E-2,7.579153375E-2
1.484046719E0,-1.771507598E-2,6.288821250E-2,-2.932151034E-2,7.161356127E-2
1.486490938E0,-1.832594164E-2,6.227735430E-2,-2.626718581E-2,7.003052224E-2
1.488935990E0,-1.771507598E-2,6.044476107E-2,-2.321286127E-2,6.712845884E-2
1.491381771E0,-1.649334654E-2,5.800130591E-2,-2.015853673E-2,6.358103939E-2
1.493826771E0,-1.588248275E-2,5.555784330E-2,-1.771507785E-2,6.043799462E-2
1.496270990E0,-1.343902200E-2,5.372524634E-2,-1.527161989E-2,5.744764382E-2
1.498716042E0,-1.343902200E-2,4.944919422E-2,-1.099556778E-2,5.240928002E-2
1.501161823E0,-1.221729256E-2,4.578400776E-2,-7.941243239E-3,4.804686200E-2
1.503606823E0,-1.038469933E-2,4.334054515E-2,-3.665191121E-3,4.471776448E-2
1.506051042E0,-7.941240445E-3,3.906449303E-2,-6.108670495E-4,3.986817119E-2
1.508496042E0,-6.108645815E-3,3.478844091E-2,-2.328306437E-9,3.532069046E-2
1.510941875E0,-4.276051652E-3,2.929066122E-2,2.443456557E-3,2.970181698E-2
1.513386875E0,-4.276051652E-3,2.562547103E-2,4.886915442E-3,2.643541801E-2
1.515831094E0,-3.054322209E-3,2.073855326E-2,6.108644884E-3,2.183419377E-2
1.518276094E0,-6.108633243E-4,1.646250114E-2,7.941238582E-3,1.828798425E-2
1.520721927E0,-6.108633243E-4,1.035385113E-2,7.941238582E-3,1.306287325E-2
1.523166927E0,2.443460282E-3,3.634340363E-3,7.330374327E-3,8.538929429E-3
1.525611146E0,4.276054446E-3,-2.474304987E-3,7.330374327E-3,8.839751951E-3
1.528056146E0,7.330378052E-3,-1.102641318E-2,7.330374327E-3,1.513441832E-2
1.530501979E0,9.162971750E-3,-1.896765269E-2,7.941238582E-3,2.251211163E-2
1.532946979E0,9.162971750E-3,-2.690889314E-2,6.719509605E-3,2.920959415E-2
1.535391198E0,9.162971750E-3,-3.485013545E-2,6.719509605E-3,3.665574718E-2
1.537836198E0,9.773837402E-3,-4.034791887E-2,4.886915442E-3,4.180148798E-2
1.540281979E0,8.552107960E-3,-4.767829552E-2,2.443456557E-3,4.850081334E-2
1.542726979E0,7.330378052E-3,-5.256521329E-2,6.108623929E-4,5.307738920E-2
1.545171198E0,7.941242307E-3,-5.745213106E-2,-6.108670495E-4,5.800158491E-2
1.547616250E0,8.552107960E-3,-5.928472430E-2,-6.108670495E-4,5.990150452E-2
1.550062031E0,7.330378052E-3,-6.172818318E-2,-3.054325469E-3,6.223690180E-2
1.552507031E0,5.497783888E-3,-6.356077641E-2,-4.886920564E-3,6.398499760E-2
1.554951250E0,3.665189724E-3,-6.478250772E-2,-7.941243239E-3,6.537025521E-2
1.557396250E0,3.054325003E-3,-6.478250772E-2,-1.038470212E-2,6.568062306E-2
1.559842084E0,1.832595561E-3,-6.661509722E-2,-1.221729722E-2,6.775095524E-2
1.562287084E0,-1.221728045E-3,-6.661509722E-2,-1.466075610E-2,6.822024309E-2
1.564731302E0,-1.832592767E-3,-6.905855983E-2,-1.649335027E-2,7.102445836E-2
1.567176302E0,-3.665186930E-3,-6.844769418E-2,-1.954767480E-2,7.127855235E-2
1.569622136E0,-5.497781094E-3,-6.844769418E-2,-2.076940238E-2,7.174036877E-2
1.572067136E0,-6.719510537E-3,-6.905855983E-2,-2.260199562E-2,7.297319175E-2
1.574511354E0,-8.552104235E-3,-6.783682853E-2,-2.504545450E-2,7.281654059E-2
1.576956354E0,-8.552104235E-3,-6.600423902E-2,-2.443459257E-2,7.089955832E-2
1.579402188E0,-9.162969887E-3,-6.478250772E-2,-2.504545450E-2,7.005717747E-2
1.581847188E0,-9.162969887E-3,-6.417164207E-2,-2.443459257E-2,6.927487984E-2
1.584291406E0,-9.162969887E-3,-6.050645560E-2,-2.321286127E-2,6.545095962E-2
1.586736406E0,-9.162969887E-3,-5.745213106E-2,-2.260199562E-2,6.241440208E-2
1.589182188E0,-1.038469933E-2,-5.195434764E-2,-2.076940238E-2,5.690750648E-2
1.591627240E0,-1.038469933E-2,-4.951088876E-2,-1.710421592E-2,5.340153825E-2
1.594071459E0,-1.038469933E-2,-4.462397099E-2,-1.588248461E-2,4.849117532E-2
1.596516459E0,-1.038469933E-2,-3.973705322E-2,-1.404989045E-2,4.340823424E-2
1.598962240E0,-9.773833677E-3,-3.668272868E-2,-1.160643157E-2,3.969709891E-2
1.601407240E0,-9.773833677E-3,-3.362840414E-2,-9.162972681E-3,3.619885990E-2
1.603851459E0,-9.773833677E-3,-3.057408333E-2,-7.330379449E-3,3.292471502E-2
1.606296511E0,-7.330375258E-3,-2.935235202E-2,-6.719513796E-3,3.099107672E-2
1.608742292E0,-8.552104235E-3,-2.813062444E-2,-4.276054911E-3,2.971119594E-2
1.611187292E0,-9.162969887E-3,-2.690889314E-2,-4.276054911E-3,2.874601177E-2
1.613631511E0,-9.162969887E-3,-2.568716556E-2,-3.054325469E-3,2.744302089E-2
1.616076511E0,-7.941240445E-3,-2.141111158E-2,-4.886920564E-3,2.335339357E-2
1.618522344E0,-5.497781094E-3,-1.896765269E-2,-5.497784354E-3,2.049934337E-2
1.620967344E0,-3.054322209E-3,-1.774592325E-2,-5.497784354E-3,1.882743501E-2
1.623411563E0,-3.054322209E-3,-1.652419381E-2,-7.330379449E-3,1.833336652E-2
1.625856563E0,-2.443457488E-3,-1.469159964E-2,-9.162972681E-3,1.748638479E-2
1.628302396E0,-3.665186930E-3,-1.530246530E-2,-1.160643157E-2,1.955270552E-2
1.630747396E0,-3.054322209E-3,-1.408073585E-2,-1.282816101E-2,1.929138982E-2
1.633191615E0,-3.665186930E-3,-1.041554753E-2,-1.404989045E-2,1.786943332E-2
1.635636615E0,-4.886916373E-3,-8.582954295E-3,-1.527161989E-2,1.818712265E-2
1.638082448E0,-1.832592767E-3,-6.139495410E-3,-1.649335027E-2,1.769413471E-2
1.640527448E0,6.108661182E-4,-6.417118129E-4,-1.527161989E-2,1.529729798E-2
1.642971667E0,1.221730839E-3,2.412612783E-3,-1.649335027E-2,1.671358518E-2
1.645416667E0,3.665189724E-3,4.856071435E-3,-1.527161989E-2,1.643889959E-2
1.647862448E0,5.497783888E-3,8.521257900E-3,-1.282816101E-2,1.635234475E-2
1.650307500E0,6.719513331E-3,1.035385113E-2,-1.099556778E-2,1.653047499E-2
1.652751719E0,8.552107960E-3,9.742989205E-3,-9.162972681E-3,1.587527819E-2
1.655196719E0,9.773837402E-3,9.132123552E-3,-7.330379449E-3,1.525313217E-2
1.657642500E0,1.099556684E-2,8.521257900E-3,-4.886920564E-3,1.474436567E-2
1.660087500E0,1.221729629E-2,4.856071435E-3,-1.221731771E-3,1.320365051E-2
1.662531719E0,1.404989138E-2,-6.417118129E-4,-1.221731771E-3,1.411750227E-2
1.664976771E0,1.527161896E-2,-6.139495410E-3,1.221727114E-3,1.650479830E-2
1.667422552E0,1.466075517E-2,-1.285900641E-2,3.054321278E-3,1.973881118E-2
1.669867552E0,1.710421406E-2,-1.896765269E-2,4.276050720E-3,2.589615023E-2
1.672311771E0,1.832594350E-2,-2.568716556E-2,4.276050720E-3,3.184266461E-2
1.674756823E0,2.138026804E-2,-3.118494712E-2,4.276050720E-3,3.805129956E-2
1.677202604E0,2.076940238E-2,-3.668272868E-2,4.886915442E-3,4.243668933E-2
1.679647604E0,2.443459257E-2,-4.156964645E-2,3.665185999E-3,4.835823000E-2
1.682091823E0,2.565632015E-2,-4.523483664E-2,3.665185999E-3,5.213320245E-2
1.684536823E0,2.626718581E-2,-4.828915745E-2,3.665185999E-3,5.509302466E-2
1.686982656E0,2.626718581E-2,-5.195434764E-2,3.665185999E-3,5.833226275E-2
1.689427656E0,2.932151034E-2,-5.134348199E-2,1.832591835E-3,5.915456453E-2
1.691871875E0,2.809977904E-2,-5.378694087E-2,1.832591835E-3,6.071236269E-2
1.694316875E0,3.054323792E-2,-5.561953783E-2,1.832591835E-3,6.348055422E-2
1.696762656E0,3.176496923E-2,-5.684126541E-2,1.832591835E-3,6.514062570E-2
1.699207709E0,3.298669681E-2,-5.806299299E-2,6.108623929E-4,6.678178250E-2
1.701651927E0,3.237583116E-2,-5.806299299E-2,-2.328306437E-9,6.647936220E-2
1.704096927E0,3.481929004E-2,-5.806299299E-2,-2.328306437E-9,6.770298453E-2
1.706542709E0,3.665188700E-2,-5.806299299E-2,-2.328306437E-9,6.866346900E-2
1.708987761E0,3.848448023E-2,-5.867385864E-2,6.108623929E-4,7.017157587E-2
1.711431979E0,4.031707346E-2,-5.745213106E-2,6.108623929E-4,7.018964973E-2
1.713876979E0,4.031707346E-2,-5.623039976E-2,2.443456557E-3,6.923362441E-2
1.716322761E0,4.214967042E-2,-5.561953783E-2,3.665185999E-3,6.988248202E-2
1.718767761E0,4.337139800E-2,-5.561953783E-2,4.276050720E-3,7.066042572E-2
1.721212031E0,4.520399123E-2,-5.623039976E-2,6.108644884E-3,7.240562287E-2
1.723657031E0,4.642572254E-2,-5.317607522E-2,8.552104235E-3,7.110682932E-2
1.726102813E0,4.764745012E-2,-5.378694087E-2,1.099556312E-2,7.269261943E-2
1.728547813E0,4.886918142E-2,-5.500867218E-2,1.282815635E-2,7.469077924E-2
1.730992031E0,5.009090900E-2,-5.378694087E-2,1.588248089E-2,7.519566060E-2
1.733437031E0,5.131264031E-2,-5.256521329E-2,1.771507412E-2,7.556396334E-2
1.735882865E0,5.192350596E-2,-5.195434764E-2,2.015853301E-2,7.616870199E-2
1.738327865E0,5.314523354E-2,-4.951088876E-2,2.321285754E-2,7.625339802E-2
1.740772084E0,5.375609919E-2,-4.584570229E-2,2.504545078E-2,7.495879684E-2
1.743217084E0,5.558869243E-2,-4.401310533E-2,2.932150289E-2,7.672683167E-2
1.745662917E0,5.742128566E-2,-4.340223968E-2,3.115409985E-2,7.843173078E-2
1.748107917E0,5.803215131E-2,-4.218051210E-2,3.359755874E-2,7.921945556E-2
1.750552136E0,5.864301696E-2,-3.912618756E-2,3.726274520E-2,7.973941417E-2
1.752997136E0,5.925387889E-2,-3.851532191E-2,4.031706974E-2,8.136288034E-2
1.755442969E0,5.925387889E-2,-3.607186675E-2,4.276052862E-2,8.149027269E-2
1.757887969E0,6.230819970E-2,-3.546100110E-2,4.703658074E-2,8.574517058E-2
1.760332188E0,6.414079666E-2,-3.607186675E-2,5.009090528E-2,8.901865062E-2
1.762777188E0,6.475166231E-2,-3.546100110E-2,5.375609547E-2,9.132348094E-2
1.765223021E0,6.658425927E-2,-3.607186675E-2,5.864301324E-2,9.577915303E-2
1.767668021E0,6.902771443E-2,-3.729359433E-2,6.169733405E-2,9.981081388E-2
1.770112240E0,6.902771443E-2,-4.095878452E-2,6.597338617E-2,1.038986769E-1
1.772557240E0,7.024944574E-2,-4.340223968E-2,6.719511747E-2,1.064608982E-1
1.775003021E0,7.024944574E-2,-4.706742987E-2,6.963858008E-2,1.095438698E-1
1.777448073E0,7.147117704E-2,-5.256521329E-2,7.086030394E-2,1.135447642E-1
1.779892240E0,7.024944574E-2,-5.928472430E-2,6.963858008E-2,1.153221358E-1
1.782337292E0,6.902771443E-2,-6.417164207E-2,6.780598313E-2,1.161054536E-1
1.784783073E0,6.841684878E-2,-7.150202245E-2,6.597338617E-2,1.189365045E-1
1.787228073E0,6.902771443E-2,-7.699980587E-2,6.352993101E-2,1.213665835E-1
1.789672292E0,6.841684878E-2,-8.005412668E-2,5.986474082E-2,1.211334619E-1
1.792117344E0,6.902771443E-2,-8.371931314E-2,5.619955063E-2,1.221971286E-1
1.794563125E0,7.147117704E-2,-8.494103700E-2,5.314522982E-2,1.230752793E-1
1.797008125E0,7.391463220E-2,-8.494103700E-2,4.886917770E-2,1.227458722E-1
1.799452344E0,7.696896046E-2,-8.310844749E-2,4.398225993E-2,1.215140902E-1
1.801897344E0,7.574722916E-2,-8.005412668E-2,4.031706974E-2,1.173531935E-1
1.804343177E0,7.574722916E-2,-7.516720146E-2,3.848447651E-2,1.134407591E-1
1.806788177E0,7.574722916E-2,-7.028029114E-2,3.665187955E-2,1.096372305E-1
1.809232396E0,7.513636351E-2,-6.783682853E-2,3.543015197E-2,1.072501939E-1
1.811677396E0,7.452549785E-2,-6.661509722E-2,3.298669308E-2,1.052603578E-1
1.814123229E0,7.330376655E-2,-6.783682853E-2,3.298669308E-2,1.051826954E-1
1.816568229E0,7.391463220E-2,-7.272375375E-2,3.481928632E-2,1.093823565E-1
1.819012448E0,7.208204269E-2,-7.699980587E-2,3.604101762E-2,1.114618587E-1
1.821457448E0,7.147117704E-2,-8.555191010E-2,3.726274520E-2,1.175405064E-1
1.823903281E0,6.902771443E-2,-9.349314868E-2,3.970620409E-2,1.228103288E-1
1.826348281E0,6.902771443E-2,-1.057104394E-1,4.031706974E-2,1.325329712E-1
1.828792500E0,6.780598313E-2,-1.136516854E-1,4.276052862E-2,1.390784662E-1
1.831237500E0,6.719512492E-2,-1.234255210E-1,4.337139428E-2,1.470718256E-1
1.833683281E0,6.597339362E-2,-1.325885057E-1,4.276052862E-2,1.541449426E-1
1.836128334E0,6.536252797E-2,-1.405297369E-1,4.153879732E-2,1.604566567E-1
1.838572552E0,6.475166231E-2,-1.423623413E-1,4.153879732E-2,1.618186815E-1
1.841017552E0,6.169734150E-2,-1.472492516E-1,4.092793539E-2,1.648150477E-1
1.843463334E0,6.230819970E-2,-1.496927142E-1,4.031706974E-2,1.670798808E-1
1.845908334E0,6.108647585E-2,-1.515253037E-1,3.726274520E-2,1.675708429E-1
1.848352552E0,5.925387889E-2,-1.490818411E-1,3.481928632E-2,1.641608973E-1
1.850797604E0,5.742128566E-2,-1.484709829E-1,3.359755874E-2,1.626949070E-1
1.853243386E0,5.497782677E-2,-1.454166621E-1,3.115409985E-2,1.585532875E-1
1.855688386E0,5.314523354E-2,-1.417514682E-1,2.871064097E-2,1.540850268E-1
1.858132604E0,5.131264031E-2,-1.374754161E-1,2.687804401E-2,1.491807840E-1
1.860577656E0,4.764745012E-2,-1.331993639E-1,2.382372320E-2,1.434570314E-1
1.863023438E0,4.459312558E-2,-1.270907223E-1,2.138026431E-2,1.363734368E-1
1.865468438E0,4.153880477E-2,-1.222037897E-1,1.771507412E-2,1.302807060E-1
1.867912656E0,3.848448023E-2,-1.154842749E-1,1.710420847E-2,1.229236630E-1
1.870357656E0,3.726275265E-2,-1.118190959E-1,1.282815635E-2,1.185604679E-1
1.872803490E0,3.543015569E-2,-1.075430438E-1,1.160642691E-2,1.138222797E-1
1.875248490E0,3.420842811E-2,-1.032669917E-1,9.773833677E-3,1.092236968E-1
1.877692709E0,3.115410358E-2,-9.960179776E-2,6.719509605E-3,1.045765179E-1
1.880137709E0,3.054323792E-2,-9.776920825E-2,4.886915442E-3,1.025455480E-1
1.882583542E0,2.932151034E-2,-9.715833515E-2,1.832591835E-3,1.015029628E-1
1.885028542E0,2.748891339E-2,-9.715833515E-2,6.108623929E-4,1.009740343E-1
1.887472761E0,2.748891339E-2,-9.776920825E-2,-2.328306437E-9,1.015601223E-1
1.889917761E0,2.748891339E-2,-9.838006645E-2,-2.443461679E-3,1.021775334E-1
1.892363594E0,2.809977904E-2,-9.532574564E-2,-3.665191121E-3,9.944862488E-2
1.894808594E0,2.626718581E-2,-9.593660384E-2,-5.497784354E-3,9.961938888E-2
1.897252813E0,2.626718581E-2,-1.002126560E-1,-6.108650006E-3,1.037779219E-1
1.899697813E0,2.626718581E-2,-9.960179776E-2,-6.108650006E-3,1.031881717E-1
1.902143594E0,2.687805146E-2,-9.899092466E-2,-7.941243239E-3,1.028819525E-1
1.904588646E0,2.687805146E-2,-9.838006645E-2,-9.162972681E-3,1.023964218E-1
1.907032813E0,2.687805146E-2,-9.838006645E-2,-9.773838334E-3,1.024528918E-1
1.909477865E0,2.687805146E-2,-9.532574564E-2,-9.162972681E-3,9.946550910E-2
1.911923646E0,2.626718581E-2,-9.532574564E-2,-9.162972681E-3,9.930217974E-2
1.914368646E0,2.748891339E-2,-9.532574564E-2,-7.941243239E-3,9.952739063E-2
1.916812865E0,2.871064469E-2,-9.166055173E-2,-7.330379449E-3,9.633115968E-2
1.919257917E0,2.993237227E-2,-9.166055173E-2,-7.330379449E-3,9.670231701E-2
1.921703698E0,3.054323792E-2,-8.921709657E-2,-7.330379449E-3,9.458495740E-2
1.924148698E0,3.054323792E-2,-8.921709657E-2,-5.497784354E-3,9.446060203E-2
1.926592917E0,3.237583116E-2,-8.799536526E-2,-2.443461679E-3,9.379418562E-2
1.929037969E0,3.298669681E-2,-8.677364141E-2,-1.832596492E-3,9.285012342E-2
1.931483750E0,3.481929004E-2,-8.494103700E-2,-6.108670495E-4,9.180270085E-2
1.933928750E0,3.481929004E-2,-8.494103700E-2,1.221727114E-3,9.180879774E-2
1.936372969E0,3.481929004E-2,-8.310844749E-2,3.054321278E-3,9.015944699E-2
1.938817969E0,3.604102135E-2,-8.249758929E-2,4.276050720E-3,9.012819796E-2
1.941263802E0,3.543015569E-2,-8.249758929E-2,7.330374327E-3,9.008264294E-2
1.943708802E0,3.543015569E-2,-8.249758929E-2,1.038469747E-2,9.038246574E-2
1.946153021E0,3.604102135E-2,-8.127585799E-2,1.282815635E-2,8.982918182E-2
1.948598021E0,3.848448023E-2,-8.005412668E-2,1.343902200E-2,8.983499168E-2
1.951043854E0,4.031707346E-2,-8.127585799E-2,1.588248089E-2,9.210583425E-2
1.953488854E0,4.153880477E-2,-8.066498488E-2,1.710420847E-2,9.233020110E-2
1.955933073E0,4.031707346E-2,-8.249758929E-2,2.015853301E-2,9.400896289E-2
1.958378073E0,4.092793912E-2,-8.249758929E-2,2.199112624E-2,9.468135018E-2
1.960823906E0,4.276053235E-2,-8.494103700E-2,2.443458512E-2,9.818600635E-2
1.963268906E0,4.398226365E-2,-8.555191010E-2,2.748890966E-2,1.000460344E-1
1.965713125E0,4.459312558E-2,-8.799536526E-2,2.748890966E-2,1.024078674E-1
1.968158125E0,4.520399123E-2,-9.104969352E-2,2.993236855E-2,1.059688360E-1
1.970603906E0,4.520399123E-2,-9.410401434E-2,3.298669308E-2,1.094855619E-1
1.973048959E0,4.703658819E-2,-9.715833515E-2,3.359755874E-2,1.130529905E-1
1.975493125E0,4.764745012E-2,-1.008235291E-1,3.604101762E-2,1.171947886E-1
1.977938177E0,4.825831577E-2,-1.026561186E-1,3.543015197E-2,1.188378702E-1
1.980383959E0,4.886918142E-2,-1.063213125E-1,3.604101762E-2,1.224392639E-1
1.982829011E0,5.009090900E-2,-1.093756333E-1,3.543015197E-2,1.254090268E-1
1.985273177E0,5.009090900E-2,-1.099864915E-1,3.604101762E-2,1.261153537E-1
1.987718229E0,5.131264031E-2,-1.124299541E-1,3.543015197E-2,1.285642925E-1
1.990164011E0,5.131264031E-2,-1.124299541E-1,3.543015197E-2,1.285642925E-1
1.992609011E0,5.131264031E-2,-1.124299541E-1,3.176496178E-2,1.276028778E-1
1.995053229E0,5.009090900E-2,-1.130408272E-1,2.809977531E-2,1.267948152E-1
1.997498229E0,5.131264031E-2,-1.099864915E-1,2.748890966E-2,1.244413738E-1
1.999944063E0,5.070177466E-2,-1.069321707E-1,2.382372320E-2,1.207175582E-1
2.002389063E0,5.131264031E-2,-1.044887081E-1,2.199112624E-2,1.184672394E-1
2.004833281E0,5.131264031E-2,-9.899092466E-2,2.015853301E-2,1.133073549E-1
2.007278281E0,5.192350596E-2,-9.593660384E-2,1.832593977E-2,1.106152001E-1
2.009724115E0,5.253436789E-2,-9.104969352E-2,1.588248089E-2,1.063116160E-1
2.012169115E0,5.192350596E-2,-8.433017880E-2,1.649334654E-2,1.003975100E-1
2.014613334E0,5.192350596E-2,-8.005412668E-2,1.466075052E-2,9.653834096E-2
2.017058334E0,5.314523354E-2,-7.638893276E-2,1.160642691E-2,9.377843058E-2
2.019504167E0,5.253436789E-2,-7.089114934E-2,1.221729256E-2,8.907680451E-2
2.021949167E0,5.314523354E-2,-6.783682853E-2,1.099556312E-2,8.687435503E-2
2.024393386E0,5.253436789E-2,-6.478250772E-2,1.038469747E-2,8.405043163E-2
2.026838386E0,5.192350596E-2,-6.050645560E-2,8.552104235E-3,8.018865336E-2
2.029284167E0,5.131264031E-2,-5.684126541E-2,9.162968025E-3,7.712247722E-2
2.031729219E0,5.192350596E-2,-5.561953783E-2,7.941238582E-3,7.650259296E-2
2.034173438E0,5.131264031E-2,-5.439780653E-2,9.162968025E-3,7.533968671E-2
2.036618438E0,5.009090900E-2,-5.073262006E-2,7.330374327E-3,7.167030271E-2
2.039064219E0,5.009090900E-2,-4.951088876E-2,6.108644884E-3,7.069471559E-2
2.041509271E0,5.009090900E-2,-4.706742987E-2,6.108644884E-3,6.900549008E-2
2.043953490E0,5.009090900E-2,-4.523483664E-2,5.497780163E-3,6.771643225E-2
2.046398490E0,4.948004335E-2,-4.340223968E-2,6.108644884E-3,6.610101846E-2
2.048844271E0,4.886918142E-2,-4.218051210E-2,3.054321278E-3,6.462755893E-2
2.051289323E0,4.825831577E-2,-3.851532191E-2,3.054321278E-3,6.181928454E-2
2.053733490E0,4.703658819E-2,-3.790445998E-2,3.054321278E-3,6.048568090E-2
2.056178542E0,4.581485689E-2,-3.607186675E-2,2.443456557E-3,5.836224090E-2
2.058624323E0,4.337139800E-2,-3.485013545E-2,6.108623929E-4,5.564156053E-2
2.061069323E0,4.276053235E-2,-3.240667656E-2,1.221727114E-3,5.366701435E-2
2.063513542E0,4.092793912E-2,-2.935235202E-2,6.108623929E-4,5.036893807E-2
2.065958542E0,3.970620781E-2,-2.690889314E-2,-2.328306437E-9,4.796531527E-2
2.068404375E0,3.726275265E-2,-2.629802935E-2,-2.328306437E-9,4.560810326E-2
2.070849375E0,3.543015569E-2,-2.446543425E-2,-2.328306437E-9,4.305639797E-2
2.073293594E0,3.237583116E-2,-2.385457046E-2,-2.328306437E-9,4.021486013E-2
2.075738594E0,3.359756246E-2,-2.263284102E-2,-1.221731771E-3,4.052819173E-2
2.078184427E0,2.993237227E-2,-2.018938214E-2,-6.108670495E-4,3.610998781E-2
2.080629427E0,3.054323792E-2,-2.080024779E-2,-2.443461679E-3,3.703390603E-2
2.083073646E0,2.932151034E-2,-1.957851648E-2,-2.443461679E-3,3.534175691E-2
2.085518646E0,2.687805146E-2,-1.835678890E-2,-1.221731771E-3,3.257136745E-2
2.087964479E0,2.565632015E-2,-1.896765269E-2,-1.221731771E-3,3.192978611E-2
2.090409479E0,2.382372692E-2,-1.957851648E-2,-1.832596492E-3,3.089088348E-2
2.092853698E0,2.321286127E-2,-2.018938214E-2,-1.221731771E-3,3.078864576E-2
2.095298698E0,2.138026804E-2,-2.018938214E-2,-1.221731771E-3,2.943160955E-2
2.097744531E0,2.138026804E-2,-2.018938214E-2,-2.328306437E-9,2.940624104E-2
2.100189531E0,1.893680915E-2,-1.835678890E-2,-2.328306437E-9,2.637374527E-2
2.102633750E0,1.832594350E-2,-1.896765269E-2,-1.221731771E-3,2.640274005E-2
2.105078750E0,1.710421406E-2,-1.896765269E-2,-1.221731771E-3,2.556987712E-2
2.107524584E0,1.466075517E-2,-1.835678890E-2,6.108623929E-4,2.350069348E-2
2.109969584E0,1.527161896E-2,-1.713505760E-2,-6.108670495E-4,2.296096042E-2
2.112413802E0,1.588248461E-2,-1.469159964E-2,-2.328306437E-9,2.163553599E-2
2.114858802E0,1.527161896E-2,-1.285900641E-2,-1.221731771E-3,2.000172543E-2
2.117304584E0,1.710421406E-2,-1.102641318E-2,-1.221731771E-3,2.038697022E-2
2.119749584E0,1.649335027E-2,-8.582954295E-3,-2.443461679E-3,1.875281879E-2
2.122193802E0,1.771507785E-2,-4.917764105E-3,-3.054325469E-3,1.863698718E-2
2.124638854E0,1.466075517E-2,-4.306900315E-3,-2.443461679E-3,1.547441881E-2
2.127084636E0,1.404989138E-2,-4.306900315E-3,-3.665191121E-3,1.514537765E-2
2.129529636E0,1.160643063E-2,-6.417118129E-4,-4.886920564E-3,1.260963991E-2
2.131973854E0,9.773837402E-3,-1.252577407E-3,-6.108650006E-3,1.159363846E-2
2.134418854E0,1.038470119E-2,1.801747130E-3,-6.108650006E-3,1.218211461E-2
2.136864688E0,9.162971750E-3,1.801747130E-3,-7.941243239E-3,1.225845374E-2
2.139309688E0,7.330378052E-3,3.023478435E-3,-7.941243239E-3,1.122226396E-2
2.141753906E0,6.719513331E-3,6.688664667E-3,-9.162972681E-3,1.318522517E-2
2.144198906E0,5.497783888E-3,8.521257900E-3,-9.773838334E-3,1.408422450E-2
2.146644740E0,3.665189724E-3,1.157558244E-2,-9.162972681E-3,1.521143625E-2
2.149089740E0,3.665189724E-3,1.401904132E-2,-9.162972681E-3,1.714430528E-2
2.151533959E0,6.108661182E-4,1.524076890E-2,-9.773838334E-3,1.811579725E-2
2.153978959E0,1.221730839E-3,1.890596002E-2,-9.773838334E-3,2.131797050E-2
2.156424792E0,-1.832592767E-3,2.073855326E-2,-1.038470212E-2,2.326559747E-2
2.158869792E0,-3.054322209E-3,2.196028456E-2,-1.038470212E-2,2.448315789E-2
2.161314011E0,-4.276051652E-3,2.440374345E-2,-1.038470212E-2,2.686390422E-2
2.163759011E0,-6.719510537E-3,2.623633668E-2,-1.160643157E-2,2.946534300E-2
2.166204844E0,-7.941240445E-3,2.806892991E-2,-1.343902666E-2,3.211752736E-2
2.168649844E0,-1.038469933E-2,2.929066122E-2,-1.282816101E-2,3.362062655E-2
2.171094063E0,-1.160642877E-2,2.929066122E-2,-1.282816101E-2,3.401784441E-2
2.173539063E0,-1.221729256E-2,3.234498575E-2,-1.527161989E-2,3.779791945E-2
2.175984844E0,-1.282815821E-2,3.356670961E-2,-1.527161989E-2,3.904494860E-2
2.178429896E0,-1.588248275E-2,3.662103787E-2,-1.588248461E-2,4.296052829E-2
2.180874115E0,-1.649334654E-2,3.723190352E-2,-1.588248461E-2,4.370924888E-2
2.183319115E0,-1.771507598E-2,3.906449303E-2,-1.649335027E-2,4.595529497E-2
2.185764896E0,-1.404988766E-2,4.028622434E-2,-1.710421592E-2,4.596665549E-2
2.188209948E0,-1.832594164E-2,4.150795564E-2,-1.771507785E-2,4.870908028E-2
2.190654115E0,-1.649334654E-2,4.456227645E-2,-1.893680915E-2,5.115104792E-2
2.193099167E0,-1.466075145E-2,4.395141080E-2,-1.649335027E-2,4.918022720E-2
2.195544948E0,-1.649334654E-2,4.456227645E-2,-1.832594350E-2,5.092805875E-2
2.197989948E0,-1.343902200E-2,4.639487341E-2,-1.893680915E-2,5.188154134E-2
2.200434167E0,-1.710421033E-2,4.578400776E-2,-1.832594350E-2,5.219740973E-2
2.202879219E0,-1.466075145E-2,4.822747037E-2,-1.710421592E-2,5.322950999E-2
2.205325000E0,-1.954766735E-2,4.639487341E-2,-1.588248461E-2,5.279061370E-2
2.207770000E0,-1.649334654E-2,4.761660472E-2,-1.527161989E-2,5.265542611E-2
2.210214219E0,-1.832594164E-2,4.517314211E-2,-1.466075610E-2,5.090570375E-2
2.212659271E0,-1.710421033E-2,4.639487341E-2,-1.343902666E-2,5.124105510E-2
2.215105052E0,-1.588248275E-2,4.395141080E-2,-1.343902666E-2,4.862702137E-2
2.217550052E0,-1.649334654E-2,4.150795564E-2,-1.160643157E-2,4.614813231E-2
2.219994271E0,-1.282815821E-2,4.272968695E-2,-1.038470212E-2,4.580643872E-2
2.222439271E0,-1.466075145E-2,3.906449303E-2,-1.038470212E-2,4.299784049E-2
2.224885104E0,-9.162969887E-3,3.662103787E-2,-8.552108891E-3,3.870657565E-2
2.227330104E0,-1.099556312E-2,3.295585141E-2,-9.162972681E-3,3.592980126E-2
2.229774323E0,-4.886916373E-3,3.112325445E-2,-7.330379449E-3,3.234614941E-2
2.232219323E0,-7.330375258E-3,2.929066122E-2,-6.719513796E-3,3.093265429E-2
2.234665156E0,-6.108645815E-3,2.745806798E-2,-5.497784354E-3,2.866158900E-2
2.237110156E0,-4.276051652E-3,2.562547103E-2,-4.886920564E-3,2.643541896E-2
2.239554375E0,-3.665186930E-3,2.440374345E-2,-3.665191121E-3,2.494814453E-2
2.241999375E0,-6.108633243E-4,2.440374345E-2,-3.054325469E-3,2.460172255E-2
2.244445209E0,-3.665186930E-3,2.257115021E-2,-1.221731771E-3,2.289941147E-2
2.246890209E0,1.221730839E-3,2.134941891E-2,-2.328306437E-9,2.138434741E-2
2.249334427E0,-2.443457488E-3,2.012768760E-2,6.108623929E-4,2.028466035E-2
2.251779427E0,3.054325003E-3,2.134941891E-2,1.221727114E-3,2.160137047E-2
2.254225209E0,1.221730839E-3,1.890596002E-2,2.443456557E-3,1.910231480E-2
2.256670261E0,3.665189724E-3,1.890596002E-2,2.443456557E-3,1.941235225E-2
2.259114479E0,4.276054446E-3,1.890596002E-2,2.443456557E-3,1.953689960E-2
2.261559479E0,3.665189724E-3,1.768423244E-2,2.443456557E-3,1.822460350E-2
2.264005261E0,7.941242307E-3,1.585163549E-2,3.665185999E-3,1.810445430E-2
2.266450313E0,4.276054446E-3,1.462990697E-2,3.665185999E-3,1.567649221E-2
2.268894479E0,9.162971750E-3,1.585163549E-2,4.276050720E-3,1.880210118E-2
2.271339531E0,6.108648609E-3,1.218644809E-2,3.054321278E-3,1.396975244E-2
2.273785313E0,1.221729629E-2,1.157558244E-2,3.665185999E-3,1.722469233E-2
2.276230313E0,9.773837402E-3,9.742989205E-3,4.886915442E-3,1.464020761E-2
2.278674531E0,1.038470119E-2,9.132123552E-3,1.832591835E-3,1.394977033E-2
2.281119584E0,1.099556684E-2,8.521257900E-3,1.221727114E-3,1.396448866E-2
2.283565365E0,9.773837402E-3,6.688664667E-3,1.221727114E-3,1.190624835E-2
2.286010365E0,9.162971750E-3,5.466933362E-3,1.221727114E-3,1.073964752E-2
2.288454584E0,1.038470119E-2,6.688664667E-3,-2.328306437E-9,1.235233799E-2
2.290899584E0,8.552107960E-3,6.077799015E-3,-2.443461679E-3,1.077259005E-2
2.293345417E0,8.552107960E-3,6.077799015E-3,-2.443461679E-3,1.077259005E-2
2.295790417E0,7.330378052E-3,6.077799015E-3,-4.276054911E-3,1.043832979E-2
2.298234636E0,6.719513331E-3,7.299530320E-3,-4.886920564E-3,1.105970139E-2
2.300679636E0,3.665189724E-3,8.521257900E-3,-6.108650006E-3,1.110680228E-2
2.303125469E0,2.443460282E-3,9.132123552E-3,-7.941243239E-3,1.234623517E-2
2.305570469E0,1.221730839E-3,1.218644809E-2,-9.162972681E-3,1.529582334E-2
2.308014688E0,-6.108633243E-4,1.401904132E-2,-1.038470212E-2,1.745705335E-2
2.310459688E0,-1.221728045E-3,1.646250114E-2,-1.221729722E-2,2.053701328E-2
2.312905521E0,-2.443457488E-3,1.951682568E-2,-1.343902666E-2,2.382193121E-2
2.315350521E0,-2.443457488E-3,2.134941891E-2,-1.404989045E-2,2.567425936E-2
2.317794740E0,-1.832592767E-3,2.501460537E-2,-1.527161989E-2,2.936513668E-2
2.320239740E0,-2.443457488E-3,2.806892991E-2,-1.771507785E-2,3.328151580E-2
2.322685521E0,-2.443457488E-3,3.112325445E-2,-1.893680915E-2,3.651342483E-2
2.325130573E0,-3.665186930E-3,3.356670961E-2,-2.138026804E-2,3.996590360E-2
2.327574792E0,-4.276051652E-3,3.784276918E-2,-2.138026804E-2,4.367465693E-2
2.330019792E0,-4.886916373E-3,4.211882129E-2,-2.321286127E-2,4.833956958E-2
2.332465573E0,-3.665186930E-3,4.578400776E-2,-2.443459257E-2,5.202555407E-2
2.334910625E0,-3.665186930E-3,5.128179118E-2,-2.626718581E-2,5.773405193E-2
2.337354844E0,-4.276051652E-3,5.616870895E-2,-2.748891339E-2,6.268053001E-2
2.339799844E0,-3.054322209E-3,5.983389542E-2,-2.871064469E-2,6.643587166E-2
2.342245625E0,-6.108633243E-4,6.410994381E-2,-2.871064469E-2,7.024784102E-2
2.344690625E0,6.108661182E-4,6.838599592E-2,-3.054323792E-2,7.489931227E-2
2.347134844E0,2.443460282E-3,7.205118984E-2,-2.932151034E-2,7.782734368E-2
2.349579896E0,3.665189724E-3,7.693811506E-2,-2.871064469E-2,8.220224014E-2
2.352025677E0,4.886919167E-3,7.938156277E-2,-2.748891339E-2,8.414840965E-2
2.354470677E0,6.108648609E-3,8.365761489E-2,-2.565632015E-2,8.771635469E-2
2.356914896E0,7.330378052E-3,8.671195060E-2,-2.504545450E-2,9.055369463E-2
2.359359948E0,9.773837402E-3,9.037712961E-2,-2.321286127E-2,9.382105512E-2
2.361805729E0,9.773837402E-3,9.037712961E-2,-2.199113369E-2,9.352627126E-2
2.364250729E0,1.160643063E-2,9.343145043E-2,-2.076940238E-2,9.641324202E-2
2.366694948E0,1.404989138E-2,9.526403993E-2,-1.893680915E-2,9.813887860E-2
2.369139948E0,1.466075517E-2,9.526403993E-2,-1.710421592E-2,9.789141560E-2
2.371585781E0,1.771507785E-2,9.587491304E-2,-1.588248461E-2,9.878297551E-2
2.374030781E0,1.832594350E-2,9.770750254E-2,-1.527161989E-2,1.005774261E-1
2.376475000E0,1.954767480E-2,9.831837565E-2,-1.343902666E-2,1.011396165E-1
2.378920000E0,2.076940238E-2,9.831837565E-2,-1.038470212E-2,1.010233295E-1
2.381365834E0,2.260199562E-2,1.001509652E-1,-9.162972681E-3,1.030777672E-1
2.383810834E0,2.321286127E-2,1.001509652E-1,-9.162972681E-3,1.032134333E-1
2.386255052E0,2.443459257E-2,1.013726965E-1,-7.941243239E-3,1.045778956E-1
2.388700052E0,2.687805146E-2,1.007618234E-1,-6.719513796E-3,1.045013233E-1
2.391145886E0,2.687805146E-2,1.001509652E-1,-6.108650006E-3,1.038747374E-1
2.393590886E0,2.809977904E-2,1.001509652E-1,-5.497784354E-3,1.041635207E-1
2.396035104E0,2.993237227E-2,1.001509652E-1,-4.886920564E-3,1.046424614E-1
2.398480104E0,2.932151034E-2,9.892923385E-2,-3.665191121E-3,1.032481375E-1
2.400925886E0,2.871064469E-2,9.709664434E-2,-3.665191121E-3,1.013187697E-1
2.403370938E0,2.871064469E-2,9.587491304E-2,-4.276054911E-3,1.001727743E-1
2.405815156E0,2.871064469E-2,9.587491304E-2,-3.665191121E-3,1.001485581E-1
2.408260156E0,2.871064469E-2,9.526403993E-2,-5.497784354E-3,9.964820147E-2
2.410705938E0,2.871064469E-2,9.465318173E-2,-6.719513796E-3,9.913968830E-2
2.413150938E0,2.871064469E-2,9.648577124E-2,-7.941243239E-3,1.009795450E-1
2.415595156E0,2.871064469E-2,1.007618234E-1,-7.941243239E-3,1.050728771E-1
2.418040209E0,2.748891339E-2,1.050378755E-1,-1.099556778E-2,1.091306472E-1
2.420485990E0,2.748891339E-2,1.105356589E-1,-1.404989045E-2,1.147657251E-1
2.422930990E0,2.626718581E-2,1.178660467E-1,-1.710421592E-2,1.219627985E-1
2.425375209E0,2.382372692E-2,1.245855466E-1,-2.138026804E-2,1.286322053E-1
2.427820261E0,2.199113369E-2,1.331376582E-1,-2.382372692E-2,1.370285225E-1
2.430266042E0,1.954767480E-2,1.380245686E-1,-2.932151034E-2,1.424522519E-1
2.432711042E0,1.954767480E-2,1.441332102E-1,-3.298669681E-2,1.491462907E-1
2.435155261E0,2.076940238E-2,1.502418667E-1,-3.665188700E-2,1.560363657E-1
2.437600261E0,2.260199562E-2,1.545179188E-1,-3.970620781E-2,1.611310659E-1
2.440046094E0,2.321286127E-2,1.587939709E-1,-4.092793912E-2,1.656184118E-1
2.442491094E0,2.382372692E-2,1.618482918E-1,-4.214966670E-2,1.689349991E-1
2.444935313E0,2.687805146E-2,1.655134857E-1,-4.276053235E-2,1.730479896E-1
2.447380313E0,2.932151034E-2,1.673460752E-1,-4.214966670E-2,1.750458633E-1
2.449826146E0,3.237583116E-2,1.691786647E-1,-4.092793912E-2,1.770443764E-1
2.452271146E0,3.359756246E-2,1.710112691E-1,-3.726274893E-2,1.782194232E-1
2.454715365E0,3.298669681E-2,1.722330004E-1,-3.481929004E-2,1.787867768E-1
2.457160365E0,3.359756246E-2,1.746764481E-1,-3.359756246E-2,1.810233519E-1
2.459606198E0,3.604102135E-2,1.758981794E-1,-2.993237227E-2,1.820304141E-1
2.462051198E0,3.665188700E-2,1.789525002E-1,-2.565632015E-2,1.844603072E-1
2.464495417E0,3.970620781E-2,1.813959628E-1,-2.076940238E-2,1.868487258E-1
2.466940417E0,3.970620781E-2,1.795633733E-1,-1.710421592E-2,1.846947270E-1
2.469386198E0,4.276053235E-2,1.771199107E-1,-1.099556778E-2,1.825399365E-1
2.471831250E0,4.276053235E-2,1.716221273E-1,-5.497784354E-3,1.769543538E-1
2.474275469E0,4.520399123E-2,1.673460752E-1,-6.108670495E-4,1.733449822E-1
2.476720469E0,4.703658819E-2,1.612374336E-1,4.886915442E-3,1.680292610E-1
2.479166250E0,5.009090900E-2,1.520744562E-1,9.162968025E-3,1.603736243E-1
2.481611302E0,5.375609919E-2,1.423006207E-1,1.343902200E-2,1.527081928E-1
2.484055469E0,5.803215131E-2,1.337485164E-1,1.771507412E-2,1.468680363E-1
2.486500521E0,6.230819970E-2,1.239746884E-1,2.076939866E-2,1.402975517E-1
2.488946302E0,6.536252797E-2,1.123682633E-1,2.260199189E-2,1.319459613E-1
2.491391302E0,7.086031139E-2,1.019835547E-1,2.321285754E-2,1.263355291E-1
2.493835521E0,7.513636351E-2,9.404232353E-2,2.260199189E-2,1.224756375E-1
2.496280573E0,8.002328128E-2,8.915539831E-2,2.199112624E-2,1.218032029E-1
2.498726354E0,8.491019905E-2,8.487934619E-2,2.015853301E-2,1.217399350E-1
2.501171354E0,8.796451986E-2,8.365761489E-2,1.649334654E-2,1.225087089E-1
2.503615573E0,8.674279600E-2,8.365761489E-2,1.343902200E-2,1.212580575E-1
2.506060625E0,8.674279600E-2,8.793366700E-2,7.941238582E-3,1.237727988E-1
2.508506406E0,8.674279600E-2,9.465318173E-2,1.832591835E-3,1.284013079E-1
2.510951406E0,8.674279600E-2,9.954009205E-2,-4.886920564E-3,1.321227633E-1
2.513395625E0,8.735365421E-2,1.050378755E-1,-1.282816101E-2,1.372158078E-1
2.515840625E0,8.735365421E-2,1.123682633E-1,-1.893680915E-2,1.435823466E-1
2.518286459E0,8.918625116E-2,1.184769049E-1,-2.382372692E-2,1.501949878E-1
2.520731459E0,8.918625116E-2,1.233638301E-1,-3.115410358E-2,1.553814666E-1
2.523175677E0,8.857538551E-2,1.313050538E-1,-3.665188700E-2,1.625729895E-1
2.525620677E0,8.918625116E-2,1.368028373E-1,-4.092793912E-2,1.683576546E-1
2.528066511E0,8.857538551E-2,1.447440833E-1,-4.398225993E-2,1.753022754E-1
2.530511511E0,8.613193035E-2,1.532961875E-1,-4.581485689E-2,1.817069939E-1
2.532955729E0,8.552106470E-2,1.594048291E-1,-4.398225993E-2,1.861671057E-1
2.535400729E0,8.368846774E-2,1.673460752E-1,-4.337139800E-2,1.920665163E-1
2.537846563E0,8.185587823E-2,1.752873212E-1,-4.214966670E-2,1.979965257E-1
2.540291563E0,7.880154997E-2,1.783416420E-1,-3.909534216E-2,1.988564088E-1
2.542735781E0,7.513636351E-2,1.801742315E-1,-3.359756246E-2,1.980833739E-1
2.545180781E0,6.902771443E-2,1.789525002E-1,-2.809977904E-2,1.938515419E-1
2.547626563E0,6.719512492E-2,1.746764481E-1,-2.260199562E-2,1.885149770E-1
2.550071615E0,6.475166231E-2,1.673460752E-1,-1.710421592E-2,1.802499399E-1
2.552515834E0,6.291906536E-2,1.606265604E-1,-8.552108891E-3,1.727218552E-1
2.554960834E0,6.169734150E-2,1.502418667E-1,-6.108670495E-4,1.624178365E-1
2.557406615E0,5.925387889E-2,1.380245686E-1,7.941238582E-3,1.504156473E-1
2.559851667E0,5.864301696E-2,1.294724643E-1,1.466075052E-2,1.428882783E-1
2.562295886E0,5.742128566E-2,1.221420988E-1,2.321285754E-2,1.369479212E-1
2.564740886E0,5.864301696E-2,1.178660467E-1,3.054323420E-2,1.351454682E-1
2.567186667E0,5.742128566E-2,1.160334423E-1,3.909534216E-2,1.352383435E-1
2.569631667E0,5.619955808E-2,1.166443154E-1,4.703658074E-2,1.377560401E-1
2.572075886E0,5.253436789E-2,1.209203675E-1,5.314522982E-2,1.421478475E-1
2.574520938E0,5.009090900E-2,1.245855466E-1,5.864301324E-2,1.465252899E-1
2.576966719E0,4.276053235E-2,1.300833225E-1,6.352993101E-2,1.509509392E-1
2.579411719E0,3.726275265E-2,1.355811059E-1,6.536252052E-2,1.550580798E-1
2.581855938E0,3.115410358E-2,1.416897625E-1,6.963858008E-2,1.609226485E-1
2.584300938E0,2.687805146E-2,1.459658146E-1,7.147116959E-2,1.647318329E-1
2.586746771E0,2.076940238E-2,1.477984041E-1,7.391463220E-2,1.665506205E-1
2.589191771E0,2.015853673E-2,1.490201354E-1,7.513635606E-2,1.681036566E-1
2.591635990E0,1.893680915E-2,1.520744562E-1,7.330376655E-2,1.698784423E-1
2.594080990E0,1.649335027E-2,1.502418667E-1,7.269290090E-2,1.677167462E-1
2.596526823E0,1.649335027E-2,1.508527249E-1,7.024943829E-2,1.672230809E-1
2.598971823E0,1.466075517E-2,1.459658146E-1,7.024943829E-2,1.626528215E-1
2.601416042E0,1.466075517E-2,1.416897625E-1,6.658425182E-2,1.572399094E-1
2.603861042E0,1.649335027E-2,1.355811059E-1,6.597338617E-2,1.516797764E-1
2.606306875E0,1.710421406E-2,1.288616061E-1,6.352993101E-2,1.446855895E-1
2.608751875E0,1.771507785E-2,1.215312257E-1,5.986474082E-2,1.366288769E-1
2.611196094E0,1.649335027E-2,1.148117110E-1,5.681041628E-2,1.291556541E-1
2.613641094E0,1.649335027E-2,1.099248007E-1,5.253436416E-2,1.229445071E-1
2.616086927E0,1.466075517E-2,1.032052860E-1,4.825831205E-2,1.148700721E-1
2.618531927E0,1.588248461E-2,9.954009205E-2,4.398225993E-2,1.099769177E-1
2.620976146E0,1.588248461E-2,9.526403993E-2,3.909534216E-2,1.041918250E-1
2.623421146E0,1.466075517E-2,9.159886092E-2,3.481928632E-2,9.908416505E-2
2.625866927E0,1.527161896E-2,9.037712961E-2,2.932150289E-2,9.623408146E-2
2.628311979E0,1.404989138E-2,9.098800272E-2,2.443458512E-2,9.525368778E-2
2.630756198E0,1.588248461E-2,9.098800272E-2,2.015853301E-2,9.453801568E-2
2.633201198E0,1.527161896E-2,9.343145043E-2,1.588248089E-2,9.599433043E-2
2.635646979E0,1.527161896E-2,9.648577124E-2,1.038469747E-2,9.823730625E-2
2.638092031E0,1.771507785E-2,9.954009205E-2,3.665185999E-3,1.011705861E-1
2.640536250E0,1.832594350E-2,1.019835547E-1,-6.108670495E-4,1.036188148E-1
2.642981250E0,2.015853673E-2,1.044270173E-1,-4.886920564E-3,1.064671336E-1
2.645427031E0,2.076940238E-2,1.044270173E-1,-9.773838334E-3,1.069200539E-1
2.647872031E0,2.076940238E-2,1.044270173E-1,-1.343902666E-2,1.073171815E-1
2.650316250E0,2.138026804E-2,1.050378755E-1,-1.710421592E-2,1.085478021E-1
2.652761302E0,2.199113369E-2,1.062596068E-1,-1.832594350E-2,1.100479632E-1
2.655207084E0,2.321286127E-2,1.074813381E-1,-2.015853673E-2,1.117919566E-1
2.657652084E0,2.199113369E-2,1.093139425E-1,-2.321286127E-2,1.138946220E-1
2.660096302E0,2.382372692E-2,1.105356589E-1,-2.443459257E-2,1.156838414E-1
2.662541302E0,2.565632015E-2,1.142008528E-1,-2.565632015E-2,1.198262422E-1
2.664987136E0,2.504545450E-2,1.160334423E-1,-2.443459257E-2,1.211944052E-1
2.667432136E0,2.565632015E-2,1.160334423E-1,-2.382372692E-2,1.212005630E-1
2.669876354E0,2.687805146E-2,1.160334423E-1,-2.382372692E-2,1.214650540E-1
2.672321354E0,2.993237227E-2,1.142008528E-1,-2.260199562E-2,1.202024621E-1
2.674767188E0,3.359756246E-2,1.117573902E-1,-2.321286127E-2,1.189846519E-1
2.677212188E0,3.665188700E-2,1.068704799E-1,-2.260199562E-2,1.152194016E-1
2.679656406E0,4.153880477E-2,1.038161591E-1,-2.199113369E-2,1.139599805E-1
2.682101406E0,4.642572254E-2,9.587491304E-2,-2.260199562E-2,1.088953482E-1
2.684547240E0,5.497782677E-2,8.671195060E-2,-2.138026804E-2,1.048743995E-1
2.686992240E0,6.169734150E-2,7.938156277E-2,-1.954767480E-2,1.024212187E-1
2.689436459E0,6.841684878E-2,6.960772723E-2,-1.954767480E-2,9.954000441E-2
2.691881459E0,7.574722916E-2,6.105562672E-2,-1.832594350E-2,9.900137618E-2
2.694327292E0,8.613193035E-2,5.250352249E-2,-1.466075610E-2,1.019326595E-1
2.696772292E0,9.590576589E-2,4.334054515E-2,-1.221729722E-2,1.059508430E-1
2.699216511E0,1.056796014E-1,3.601017222E-2,-8.552108891E-3,1.119734309E-1
2.701661511E0,1.154534370E-1,2.929066122E-2,-5.497784354E-3,1.192378488E-1
2.704107292E0,1.276707202E-1,2.562547103E-2,-3.054325469E-3,1.302528559E-1
2.706552344E0,1.368336976E-1,2.440374345E-2,-1.221731771E-3,1.389981874E-1
2.708996563E0,1.490509808E-1,2.318201214E-2,1.832591835E-3,1.508540983E-1
2.711441563E0,1.576030999E-1,2.440374345E-2,2.443456557E-3,1.595000009E-1
2.713887344E0,1.661552042E-1,2.440374345E-2,3.665185999E-3,1.679777609E-1
2.716332396E0,1.765398979E-1,2.440374345E-2,3.054321278E-3,1.782447955E-1
2.718776615E0,1.826485544E-1,2.257115021E-2,-2.328306437E-9,1.840379071E-1
2.721221615E0,1.912006587E-1,1.524076890E-2,-3.665191121E-3,1.918421396E-1
2.723667396E0,1.991418898E-1,7.910395972E-3,-6.719513796E-3,1.994121824E-1
2.726112396E0,2.076939940E-1,-3.085170640E-3,-1.282816101E-2,2.081126502E-1
2.728556615E0,2.186895609E-1,-1.652419381E-2,-1.893680915E-2,2.201289980E-1
2.731001667E0,2.302960008E-1,-3.118494712E-2,-2.626718581E-2,2.338775619E-1
2.733447448E0,2.412915677E-1,-4.828915745E-2,-3.237583116E-2,2.481968126E-1
2.735892448E0,2.510653734E-1,-6.661509722E-2,-3.787361458E-2,2.624991497E-1
2.738336667E0,2.608392239E-1,-8.127585799E-2,-4.276053235E-2,2.765344986E-1
2.740781667E0,2.681695819E-1,-9.349314868E-2,-4.764745012E-2,2.879690487E-1
2.743227500E0,2.767216861E-1,-1.038778499E-1,-4.948004335E-2,2.996894625E-1
2.745672500E0,2.883281410E-1,-1.130408272E-1,-5.375609547E-2,3.143263643E-1
2.748116719E0,2.987128198E-1,-1.197603270E-1,-5.558869243E-2,3.265914686E-1
2.750561719E0,3.084866703E-1,-1.240363792E-1,-5.558869243E-2,3.371040667E-1
2.753007552E0,3.213148117E-1,-1.283124387E-1,-5.558869243E-2,3.504245894E-1
2.755452552E0,3.329212666E-1,-1.325885057E-1,-5.558869243E-2,3.626380900E-1
2.757896771E0,3.451385498E-1,-1.380862743E-1,-5.558869243E-2,3.758703772E-1
2.760341771E0,3.561341166E-1,-1.466383934E-1,-5.436696112E-2,3.889602729E-1
2.762787604E0,3.677405417E-1,-1.600774080E-1,-5.192350224E-2,4.044180172E-1
2.765232604E0,3.799578249E-1,-1.759599000E-1,-5.314523354E-2,4.220832276E-1
2.767676823E0,3.927859962E-1,-1.985618919E-1,-5.253436789E-2,4.432465719E-1
2.770121823E0,4.068358839E-1,-2.254399359E-1,-5.314523354E-2,4.681484988E-1
2.772567656E0,4.227183759E-1,-2.578157485E-1,-5.314523354E-2,4.979801214E-1
2.775012656E0,4.404334426E-1,-2.926350534E-1,-5.375609547E-2,5.315135084E-1
2.777456875E0,4.581485093E-1,-3.341738582E-1,-5.619955808E-2,5.698513967E-1
2.779901875E0,4.734201431E-1,-3.769343793E-1,-6.047561392E-2,6.081640059E-1
2.782347709E0,4.886917472E-1,-4.258035719E-1,-6.291906536E-2,6.512197129E-1
2.784792709E0,5.027416945E-1,-4.740618765E-1,-6.658425927E-2,6.942026633E-1
2.787236927E0,5.137372613E-1,-5.235419273E-1,-7.147117704E-2,7.369737122E-1
2.789681927E0,5.277871490E-1,-5.724111199E-1,-7.452549785E-2,7.821558762E-1
2.792127709E0,5.387827158E-1,-6.212802529E-1,-7.819068432E-2,8.260688535E-1
2.794572761E0,5.540543199E-1,-6.658734083E-1,-8.368846774E-2,8.702685476E-1
2.797016927E0,5.662716031E-1,-7.098556757E-1,-8.979711682E-2,9.124813045E-1
2.799461979E0,5.797106028E-1,-7.489510179E-1,-9.407316893E-2,9.517572018E-1
2.801907761E0,5.919279456E-1,-7.837703228E-1,-1.014035493E-1,9.873992564E-1
2.804352813E0,6.041452289E-1,-8.155352473E-1,-1.093447879E-1,1.020806289E0
2.806796979E0,6.169734001E-1,-8.418024182E-1,-1.191186234E-1,1.050465009E0
2.809242031E0,6.285797954E-1,-8.637935519E-1,-1.288924515E-1,1.076041413E0
2.811687813E0,6.401862502E-1,-8.876172900E-1,-1.435532123E-1,1.103770997E0
2.814132813E0,6.511818171E-1,-9.096084237E-1,-1.557705104E-1,1.129464340E0
2.816577031E0,6.627882123E-1,-9.315995574E-1,-1.685986668E-1,1.155677922E0
2.819022031E0,6.750055552E-1,-9.542015791E-1,-1.820376962E-1,1.182907805E0
2.821467865E0,6.847793460E-1,-9.780252576E-1,-1.942549795E-1,1.209624386E0
2.823912865E0,6.963858008E-1,-1.002459764E0,-2.058614194E-1,1.237843967E0
2.826357084E0,7.079921961E-1,-1.024450898E0,-2.180787027E-1,1.264243218E0
2.828802084E0,7.195986509E-1,-1.043387651E0,-2.272416800E-1,1.287679615E0
2.831247917E0,7.336485386E-1,-1.060491920E0,-2.364046425E-1,1.311018857E0
2.833692917E0,7.501418591E-1,-1.069043994E0,-2.449567765E-1,1.328748167E0
2.836137136E0,7.672461271E-1,-1.071487427E0,-2.528979778E-1,1.341905106E0
2.838582136E0,7.880154848E-1,-1.062324524E0,-2.608392239E-1,1.348161303E0
2.841027969E0,8.100066185E-1,-1.042776823E0,-2.675587237E-1,1.347249752E0
2.843472969E0,8.326086402E-1,-1.006124973E0,-2.742782533E-1,1.334448639E0
2.845917188E0,8.515454531E-1,-9.535906911E-1,-2.803868949E-1,1.308847461E0
2.848362188E0,8.680387735E-1,-8.851738572E-1,-2.828303576E-1,1.271619865E0
2.850808021E0,8.833103776E-1,-8.088157773E-1,-2.834412158E-1,1.230755503E0
2.853253021E0,8.967494369E-1,-7.232946754E-1,-2.852738202E-1,1.186884953E0
2.855697240E0,9.114101529E-1,-6.359410286E-1,-2.834412158E-1,1.146921262E0
2.858142240E0,9.260709286E-1,-5.516417027E-1,-2.828303576E-1,1.114409684E0
2.860588073E0,9.425642490E-1,-4.691749513E-1,-2.816086113E-1,1.089888026E0
2.863033073E0,9.584467411E-1,-3.915951550E-1,-2.791651785E-1,1.072333958E0
2.865477292E0,9.743292332E-1,-3.170696497E-1,-2.748891115E-1,1.060855617E0
2.867922292E0,9.914334416E-1,-2.474310696E-1,-2.681696117E-1,1.056445618E0
2.870368073E0,1.009759426E0,-1.875663251E-1,-2.596175075E-1,1.059337753E0
2.872813125E0,1.025641918E0,-1.405297369E-1,-2.474002093E-1,1.064376256E0
2.875257292E0,1.043356895E0,-1.112082228E-1,-2.321285903E-1,1.074636945E0
2.877702344E0,1.061071992E0,-9.899092466E-2,-2.138026506E-1,1.086915152E0
2.880148125E0,1.080008864E0,-1.032669917E-1,-1.930332482E-1,1.101973255E0
2.882593125E0,1.098334789E0,-1.197603270E-1,-1.679877937E-1,1.117542726E0
2.885037344E0,1.116049886E0,-1.466383934E-1,-1.417206228E-1,1.134528493E0
2.887482396E0,1.135597587E0,-1.784033626E-1,-1.148425713E-1,1.155248222E0
2.889928177E0,1.154534340E0,-2.126117796E-1,-8.674278855E-2,1.177148088E0
2.892373177E0,1.172860265E0,-2.468202114E-1,-5.925388262E-2,1.200013517E0
2.894817396E0,1.191797137E0,-2.810286283E-1,-3.237583116E-2,1.224910487E0
2.897262448E0,1.211344719E0,-3.115718663E-1,-9.162972681E-3,1.250806546E0
2.899708229E0,1.228448987E0,-3.384499252E-1,1.343902200E-2,1.274290341E0
2.902153229E0,1.247385740E0,-3.622736335E-1,3.115409985E-2,1.299301331E0
2.904597448E0,1.262657404E0,-3.867082298E-1,4.581485316E-2,1.321342490E0
2.907042448E0,1.280983329E0,-4.105319381E-1,5.436695740E-2,1.346257972E0
2.909488281E0,1.295644045E0,-4.361882806E-1,6.047560647E-2,1.368433778E0
2.911933281E0,1.309693933E0,-4.648989141E-1,5.986474082E-2,1.391047441E0
2.914377500E0,1.324965596E0,-4.954421520E-1,5.192349851E-2,1.415518565E0
2.916822500E0,1.335961103E0,-5.247636437E-1,4.153879732E-2,1.435929811E0
2.919268334E0,1.347567558E0,-5.583612323E-1,2.687804401E-2,1.458913301E0
2.921713334E0,1.358563185E0,-5.870718360E-1,5.497780163E-3,1.479992396E0
2.924157552E0,1.369558692E0,-6.127281785E-1,-1.832594350E-2,1.500487478E0
2.926602552E0,1.380554318E0,-6.377736330E-1,-4.520399123E-2,1.521423292E0
2.929048386E0,1.393993258E0,-6.554887295E-1,-7.513636351E-2,1.542247760E0
2.931493386E0,1.405599713E0,-6.683168411E-1,-1.056796014E-1,1.559976324E0
2.933937604E0,1.417816997E0,-6.744254827E-1,-1.374445707E-1,1.576053863E0
2.936382604E0,1.429423451E0,-6.750363708E-1,-1.679877937E-1,1.589699784E0
2.938828438E0,1.440419078E0,-6.707603335E-1,-1.985310316E-1,1.601293576E0
2.941273438E0,1.450192809E0,-6.591538787E-1,-2.302960008E-1,1.609527653E0
2.943717656E0,1.456912398E0,-6.426605582E-1,-2.596175075E-1,1.613383891E0
2.946162656E0,1.464242697E0,-6.206694245E-1,-2.864955366E-1,1.615956962E0
2.948608438E0,1.467907906E0,-5.956239700E-1,-3.127627373E-1,1.614726622E0
2.951053490E0,1.472183943E0,-5.675241947E-1,-3.347538412E-1,1.612907129E0
2.953497709E0,1.477070928E0,-5.382027030E-1,-3.549124002E-1,1.611633794E0
2.955942709E0,1.480736136E0,-5.094920397E-1,-3.732383251E-1,1.609803867E0
2.958388490E0,1.486844778E0,-4.820031226E-1,-3.891208172E-1,1.610729467E0
2.960833542E0,1.492953420E0,-4.569576681E-1,-4.019489884E-1,1.612229268E0
2.963277709E0,1.502116323E0,-4.343556762E-1,-4.105010927E-1,1.616641409E0
2.965722761E0,1.514944553E0,-4.160297215E-1,-4.166097343E-1,1.625331166E0
2.968168542E0,1.527772665E0,-4.001472592E-1,-4.208857715E-1,1.634427110E0
2.970613542E0,1.541211724E0,-3.903734088E-1,-4.214966297E-1,1.644805273E0
2.973057761E0,1.553429008E0,-3.854864836E-1,-4.214966297E-1,1.655113567E0
2.975502813E0,1.563202858E0,-3.897625506E-1,-4.166097343E-1,1.664055796E0
2.977948594E0,1.572365761E0,-3.952603340E-1,-4.105010927E-1,1.672446102E0
2.980393594E0,1.577252746E0,-4.062559009E-1,-4.025598466E-1,1.677743875E0
2.982837813E0,1.583361387E0,-4.160297215E-1,-3.915642798E-1,1.683281497E0
2.985282813E0,1.585804820E0,-4.276361763E-1,-3.781252503E-1,1.685416367E0
2.987728646E0,1.590691686E0,-4.386317134E-1,-3.634645045E-1,1.689616603E0
2.990173646E0,1.596800447E0,-4.459621012E-1,-3.488037288E-1,1.694201258E0
2.992617865E0,1.604741693E0,-4.508490264E-1,-3.335321248E-1,1.699913063E0
2.995062865E0,1.610239387E0,-4.532924891E-1,-3.164279163E-1,1.702489820E0
2.997508698E0,1.619402409E0,-4.557359517E-1,-3.011562824E-1,1.709050767E0
2.999953698E0,1.626121879E0,-4.551250637E-1,-2.877172828E-1,1.712948459E0
3.002397917E0,1.634063125E0,-4.539033473E-1,-2.742782533E-1,1.717969471E0
3.004842917E0,1.640171766E0,-4.514598846E-1,-2.608392239E-1,1.721051002E0
3.007288750E0,1.643836975E0,-4.477947056E-1,-2.504545152E-1,1.722047492E0
3.009733750E0,1.649334788E0,-4.447403848E-1,-2.412915677E-1,1.725201691E0
3.012177969E0,1.653610826E0,-4.386317134E-1,-2.351829261E-1,1.726886664E0
3.014622969E0,1.654832482E0,-4.319122136E-1,-2.296851426E-1,1.725622777E0
3.017068802E0,1.656054258E0,-4.258035719E-1,-2.260199487E-1,1.724792569E0
3.019513802E0,1.654221654E0,-4.178623259E-1,-2.229656279E-1,1.720689360E0
3.021958021E0,1.654832482E0,-4.086993635E-1,-2.235764861E-1,1.719154490E0
3.024403021E0,1.653610826E0,-3.995363712E-1,-2.229656279E-1,1.715742331E0
3.026848854E0,1.654221654E0,-3.867082298E-1,-2.247982174E-1,1.713629707E0
3.029293854E0,1.655443430E0,-3.751018047E-1,-2.241873592E-1,1.712149026E0
3.031738073E0,1.656054258E0,-3.598301709E-1,-2.260199487E-1,1.709701283E0
3.034183073E0,1.657276034E0,-3.415042460E-1,-2.296851426E-1,1.707613618E0
3.036628854E0,1.657886863E0,-3.213456869E-1,-2.309068590E-1,1.704455889E0
3.039073906E0,1.659108639E0,-2.987436950E-1,-2.309068590E-1,1.701530854E0
3.041518125E0,1.660330296E0,-2.730873823E-1,-2.327394634E-1,1.698658608E0
3.043963125E0,1.659719467E0,-2.474310696E-1,-2.333503217E-1,1.694208729E0
3.046408906E0,1.659108639E0,-2.217747569E-1,-2.333503217E-1,1.690052630E0
3.048853906E0,1.656665087E0,-1.918423772E-1,-2.345720530E-1,1.684151643E0
3.051298125E0,1.654832482E0,-1.631317437E-1,-2.364046425E-1,1.679574251E0
3.053743177E0,1.655443430E0,-1.350319535E-1,-2.376263738E-1,1.677853650E0
3.056188959E0,1.654221654E0,-1.087647602E-1,-2.388481051E-1,1.674911183E0
3.058633959E0,1.654832482E0,-8.616276830E-2,-2.431241572E-1,1.674814594E0
3.061078177E0,1.655443430E0,-6.661509722E-2,-2.449567765E-1,1.674793821E0
3.063523229E0,1.654832482E0,-5.317607522E-2,-2.474002093E-1,1.674068428E0
3.065969011E0,1.654832482E0,-4.218051210E-2,-2.467893511E-1,1.673665057E0
3.068414011E0,1.654221654E0,-3.790445998E-2,-2.467893511E-1,1.672958760E0
3.070858229E0,1.653610826E0,-3.790445998E-2,-2.455676347E-1,1.672174923E0
3.073303229E0,1.654221654E0,-4.462397099E-2,-2.437350303E-1,1.672676700E0
3.075749063E0,1.655443430E0,-5.317607522E-2,-2.388481051E-1,1.673430328E0
3.078194063E0,1.656054258E0,-6.966942549E-2,-2.345720530E-1,1.674035120E0
3.080638281E0,1.658497691E0,-8.677364141E-2,-2.284634113E-1,1.676406808E0
3.083083281E0,1.663384676E0,-1.130408272E-1,-2.223547548E-1,1.681983486E0
3.085529115E0,1.668271542E0,-1.423623413E-1,-2.138026506E-1,1.687930255E0
3.087974115E0,1.674380183E0,-1.765707582E-1,-2.058614194E-1,1.696203158E0
3.090418334E0,1.680488825E0,-2.162769735E-1,-1.979201734E-1,1.705869519E0
3.092863334E0,1.682321429E0,-2.590374947E-1,-1.918115169E-1,1.712920743E0
3.095309167E0,1.684154034E0,-3.030197620E-1,-1.826485544E-1,1.720917279E0
3.097754167E0,1.685375810E0,-3.439477086E-1,-1.747073084E-1,1.728963357E0
3.100198386E0,1.685375810E0,-3.805995882E-1,-1.679877937E-1,1.735963008E0
3.102643386E0,1.685375810E0,-4.068667591E-1,-1.624900252E-1,1.741388867E0
3.105089167E0,1.685375810E0,-4.276361763E-1,-1.600465626E-1,1.746132647E0
3.107534219E0,1.689651847E0,-4.398534596E-1,-1.576030999E-1,1.753063937E0
3.109978438E0,1.693317056E0,-4.459621012E-1,-1.594356894E-1,1.758301620E0
3.112423438E0,1.696982265E0,-4.453512430E-1,-1.606574208E-1,1.761788109E0
3.114869219E0,1.699425697E0,-4.410751760E-1,-1.661552042E-1,1.763576640E0
3.117314271E0,1.701869130E0,-4.343556762E-1,-1.722638458E-1,1.764850765E0
3.119758490E0,1.703701735E0,-4.264144301E-1,-1.783725023E-1,1.765289103E0
3.122203490E0,1.705534339E0,-4.154188633E-1,-1.881463379E-1,1.765451573E0
3.124649271E0,1.705534339E0,-4.056450427E-1,-1.973093003E-1,1.764178631E0
3.127094271E0,1.704923391E0,-3.952603340E-1,-2.052505463E-1,1.762135718E0
3.129538490E0,1.703701735E0,-3.879299462E-1,-2.131917924E-1,1.760267021E0
3.131983542E0,1.700647354E0,-3.812104464E-1,-2.205221653E-1,1.756744960E0
3.134429323E0,1.697593093E0,-3.775452673E-1,-2.272416800E-1,1.753853335E0
3.136874323E0,1.693927884E0,-3.738800585E-1,-2.321285903E-1,1.750160466E0
3.139318542E0,1.689651847E0,-3.708257377E-1,-2.357937843E-1,1.745861908E0
3.141763542E0,1.687208414E0,-3.671605587E-1,-2.382372469E-1,1.743053669E0
3.144209375E0,1.688430071E0,-3.641062379E-1,-2.370155156E-1,1.743429325E0
3.146654375E0,1.687819242E0,-3.634953797E-1,-2.345720530E-1,1.742379618E0
3.149098594E0,1.690262675E0,-3.604410291E-1,-2.321285903E-1,1.743785918E0
3.151543594E0,1.689651847E0,-3.561649919E-1,-2.296851426E-1,1.741990852E0
3.153989427E0,1.690262675E0,-3.518889248E-1,-2.266308069E-1,1.741314231E0
3.156434427E0,1.690262675E0,-3.494454920E-1,-2.247982174E-1,1.740584471E0
3.158878646E0,1.688430071E0,-3.500563502E-1,-2.223547548E-1,1.738613583E0
3.161323646E0,1.684764862E0,-3.500563502E-1,-2.193004340E-1,1.734665607E0
3.163769479E0,1.680488825E0,-3.506672084E-1,-2.193004340E-1,1.730636548E0
3.166214479E0,1.674380183E0,-3.537215292E-1,-2.186895758E-1,1.725251590E0
3.168658698E0,1.667660713E0,-3.592193127E-1,-2.211330384E-1,1.720183301E0
3.171103698E0,1.661552072E0,-3.653279543E-1,-2.235764861E-1,1.715868948E0
3.173549531E0,1.655443430E0,-3.744909167E-1,-2.260199487E-1,1.712256235E0
3.175994531E0,1.650556445E0,-3.836539090E-1,-2.302960008E-1,1.710135418E0
3.178438750E0,1.645669580E0,-3.903734088E-1,-2.327394634E-1,1.707274852E0
3.180883750E0,1.643836975E0,-3.946494758E-1,-2.357937843E-1,1.706911514E0
3.183329584E0,1.640782595E0,-3.970929384E-1,-2.406807095E-1,1.705220669E0
3.185774584E0,1.641393542E0,-3.928168714E-1,-2.431241572E-1,1.705164863E0
3.188218802E0,1.633452296E0,-3.915951550E-1,-2.455676347E-1,1.697591421E0
3.190663802E0,1.630397916E0,-3.854864836E-1,-2.492328137E-1,1.693786937E0
3.193109584E0,1.629176259E0,-3.818213046E-1,-2.504545152E-1,1.691960477E0
3.195554636E0,1.622456670E0,-3.757126629E-1,-2.516762614E-1,1.684300030E0
3.197998854E0,1.620013237E0,-3.689931631E-1,-2.528979778E-1,1.680641612E0
3.200443854E0,1.613293767E0,-3.634953797E-1,-2.553414404E-1,1.673333476E0
3.202889636E0,1.610850334E0,-3.586084545E-1,-2.565631568E-1,1.670108822E0
3.205334636E0,1.599854708E0,-3.610519171E-1,-2.596175075E-1,1.660510410E0
3.207778906E0,1.595578671E0,-3.634953797E-1,-2.632826865E-1,1.657503532E0
3.210223906E0,1.586415648E0,-3.696040213E-1,-2.681696117E-1,1.650829090E0
3.212669688E0,1.580307007E0,-3.793778419E-1,-2.724456489E-1,1.647884830E0
3.215114688E0,1.573587537E0,-3.897625506E-1,-2.791651785E-1,1.645000237E0
3.217558906E0,1.566257119E0,-4.025907218E-1,-2.858846784E-1,1.642245628E0
3.220003959E0,1.564424515E0,-4.148080051E-1,-2.919933200E-1,1.644612368E0
3.222449740E0,1.554650784E0,-4.227492511E-1,-2.999345660E-1,1.638785139E0
3.224894740E0,1.554650784E0,-4.245818257E-1,-3.078758121E-1,1.640730417E0
3.227338959E0,1.547320366E0,-4.264144301E-1,-3.145953119E-1,1.635542660E0
3.229783959E0,1.549152970E0,-4.209166467E-1,-3.219256997E-1,1.637278811E0
3.232229792E0,1.544265985E0,-4.154188633E-1,-3.286451995E-1,1.632586271E0
3.234674792E0,1.541822553E0,-4.050341547E-1,-3.353647292E-1,1.629030065E0
3.237119011E0,1.537546515E0,-3.958711922E-1,-3.408625126E-1,1.623869004E0
3.239564011E0,1.530216098E0,-3.873190880E-1,-3.481928706E-1,1.616420631E0
3.242009844E0,1.527772665E0,-3.799887002E-1,-3.524689376E-1,1.613293241E0
3.244454844E0,1.516777158E0,-3.763235211E-1,-3.561341166E-1,1.602829950E0
3.246899063E0,1.514944553E0,-3.751018047E-1,-3.597992957E-1,1.601628514E0
3.249344063E0,1.502116323E0,-3.787669837E-1,-3.622427583E-1,1.590923534E0
3.251789896E0,1.497840285E0,-3.842647672E-1,-3.665188253E-1,1.589188781E0
3.254234896E0,1.489899039E0,-3.934277296E-1,-3.689622879E-1,1.584524438E0
3.256679115E0,1.486233830E0,-4.013689756E-1,-3.707948625E-1,1.583501463E0
3.259124115E0,1.480125189E0,-4.117536843E-1,-3.744600713E-1,1.581307059E0
3.261569948E0,1.473405719E0,-4.233601093E-1,-3.775143921E-1,1.578820861E0
3.264014948E0,1.472183943E0,-4.337448180E-1,-3.805687129E-1,1.581231379E0
3.266459167E0,1.466686249E0,-4.447403848E-1,-3.824012876E-1,1.579618089E0
3.268904167E0,1.469129682E0,-4.532924891E-1,-3.860664964E-1,1.585201388E0
3.271349948E0,1.461799264E0,-4.636771679E-1,-3.909534216E-1,1.582623828E0
3.273795000E0,1.462410212E0,-4.746727347E-1,-3.940077424E-1,1.587198769E0
3.276239219E0,1.457523227E0,-4.887226224E-1,-3.995055258E-1,1.588341406E0
3.278684219E0,1.456912398E0,-5.052159429E-1,-4.025598466E-1,1.593703647E0
3.281130000E0,1.457523227E0,-5.296505690E-1,-4.062250257E-1,1.603097768E0
3.283575052E0,1.458745003E0,-5.608046651E-1,-4.105010927E-1,1.615843434E0
3.286019271E0,1.458134055E0,-6.023434997E-1,-4.092793465E-1,1.629871835E0
3.288464271E0,1.459355831E0,-6.506018043E-1,-4.068358839E-1,1.648792766E0
3.290910052E0,1.457523227E0,-6.994709373E-1,-4.019489884E-1,1.665892115E0
3.293355104E0,1.455690622E0,-7.446749806E-1,-3.946186006E-1,1.682052275E0
3.295799271E0,1.450803757E0,-7.801051140E-1,-3.842338920E-1,1.691458310E0
3.298244323E0,1.443473339E0,-8.082048893E-1,-3.732383251E-1,1.695911929E0
3.300690104E0,1.438586473E0,-8.234764934E-1,-3.622427583E-1,1.696721660E0
3.303135104E0,1.433699489E0,-8.320286274E-1,-3.512471914E-1,1.694443994E0
3.305579323E0,1.430645227E0,-8.320286274E-1,-3.420842290E-1,1.689981959E0
3.308024375E0,1.431866884E0,-8.283634186E-1,-3.316995203E-1,1.687143532E0
3.310470156E0,1.434921265E0,-8.234764934E-1,-3.255908787E-1,1.686155981E0
3.312915156E0,1.436753869E0,-8.185895681E-1,-3.207039535E-1,1.684399474E0
3.315359375E0,1.438586473E0,-8.155352473E-1,-3.170387745E-1,1.683788100E0
3.317804375E0,1.439197302E0,-8.192004561E-1,-3.158170581E-1,1.685858439E0
3.320250209E0,1.441029906E0,-8.295851350E-1,-3.182605207E-1,1.692946675E0
3.322695209E0,1.436753869E0,-8.436350226E-1,-3.243691623E-1,1.697408933E0
3.325139427E0,1.434921265E0,-8.637935519E-1,-3.329212666E-1,1.707622589E0
3.327584427E0,1.429423451E0,-8.876172900E-1,-3.445276916E-1,1.717502602E0
3.330030261E0,1.423925638E0,-9.120519161E-1,-3.585775793E-1,1.728577682E0
3.332475261E0,1.420260429E0,-9.377081990E-1,-3.756817877E-1,1.742863494E0
3.334919479E0,1.414762735E0,-9.603102207E-1,-3.946186006E-1,1.754842773E0
3.337364479E0,1.410486698E0,-9.835230708E-1,-4.135554135E-1,1.768563948E0
3.339810313E0,1.404378057E0,-1.001848936E0,-4.331030846E-1,1.778639170E0
3.342255313E0,1.399491072E0,-1.015287876E0,-4.514290094E-1,1.786945126E0
3.344699531E0,1.392160654E0,-1.022618294E0,-4.679223597E-1,1.789639851E0
3.347144531E0,1.388495564E0,-1.027505279E0,-4.838048518E-1,1.793809958E0
3.349590313E0,1.384219527E0,-1.023840070E0,-4.990764856E-1,1.792592962E0
3.352035365E0,1.381165147E0,-1.018953085E0,-5.106828809E-1,1.790720402E0
3.354479584E0,1.376889110E0,-1.011011839E0,-5.198458433E-1,1.785555448E0
3.356924584E0,1.373834729E0,-1.003681540E0,-5.265653729E-1,1.781030485E0
3.359370417E0,1.369558692E0,-1.000016332E0,-5.320631862E-1,1.777305519E0
3.361815417E0,1.366504431E0,-9.981837869E-1,-5.351175070E-1,1.774839705E0
3.364259636E0,1.362839222E0,-1.000016332E0,-5.357283354E-1,1.773236662E0
3.366704636E0,1.359174013E0,-1.005514145E0,-5.357283354E-1,1.773532504E0
3.369150417E0,1.354897976E0,-1.014677048E0,-5.357283354E-1,1.775478213E0
3.371595469E0,1.350010991E0,-1.028726935E0,-5.357283354E-1,1.779835283E0
3.374039688E0,1.345124125E0,-1.043998599E0,-5.332849026E-1,1.784288311E0
3.376484688E0,1.339626312E0,-1.064767957E0,-5.314522982E-1,1.791862440E0
3.378930469E0,1.333517671E0,-1.088591695E0,-5.296196938E-1,1.801054768E0
3.381375521E0,1.326187372E0,-1.113026261E0,-5.265653729E-1,1.809660603E0
3.383819688E0,1.320078731E0,-1.136849999E0,-5.247327685E-1,1.819445040E0
3.386264740E0,1.312748313E0,-1.160062790E0,-5.216784477E-1,1.827895569E0
3.388710521E0,1.306028843E0,-1.180221438E0,-5.204567313E-1,1.835622290E0
3.391155521E0,1.297476649E0,-1.198547363E0,-5.180132985E-1,1.840733336E0
3.393599740E0,1.287091970E0,-1.208321214E0,-5.180132985E-1,1.839832512E0
3.396044792E0,1.277928948E0,-1.218094945E0,-5.167915225E-1,1.839546458E0
3.398490573E0,1.265711665E0,-1.224203587E0,-5.192350149E-1,1.835839165E0
3.400935573E0,1.254105330E0,-1.222981930E0,-5.204567313E-1,1.827386163E0
3.403379792E0,1.242498875E0,-1.217484117E0,-5.235110521E-1,1.816627328E0
3.405824792E0,1.231503248E0,-1.208321214E0,-5.265653729E-1,1.803860166E0
3.408270625E0,1.219896913E0,-1.193660378E0,-5.308414102E-1,1.787390886E0
3.410715625E0,1.210123062E0,-1.178388834E0,-5.351175070E-1,1.771820763E0
3.413159844E0,1.200960040E0,-1.162506342E0,-5.424478650E-1,1.757263697E0
3.415604844E0,1.191797137E0,-1.145402074E0,-5.479456186E-1,1.741427784E0
3.418050677E0,1.181412339E0,-1.127076149E0,-5.564977527E-1,1.725029133E0
3.420495677E0,1.171638489E0,-1.108139396E0,-5.674933195E-1,1.709607656E0
3.422939896E0,1.161864758E0,-1.089202523E0,-5.790997148E-1,1.694593854E0
3.425384896E0,1.151479959E0,-1.069654822E0,-5.888735652E-1,1.678344307E0
3.427830729E0,1.141095281E0,-1.049496293E0,-6.029234529E-1,1.663447504E0
3.430275729E0,1.130099773E0,-1.026894331E0,-6.175842285E-1,1.647133190E0
3.432719948E0,1.120325923E0,-1.004903197E0,-6.316341162E-1,1.632152648E0
3.435164948E0,1.111773849E0,-9.829121828E-1,-6.438513994E-1,1.617622352E0
3.437610781E0,1.101389050E0,-9.578667283E-1,-6.579012871E-1,1.601062339E0
3.440055781E0,1.091004372E0,-9.322104454E-1,-6.713402867E-1,1.584299414E0
3.442500000E0,1.079397917E0,-9.071649909E-1,-6.823358536E-1,1.566406844E0
3.444945000E0,1.065348029E0,-8.802869320E-1,-6.927205920E-1,1.545876232E0
3.447390834E0,1.053130746E0,-8.546305895E-1,-7.031052709E-1,1.527689378E0
3.449835834E0,1.039691806E0,-8.283634186E-1,-7.092139125E-1,1.506694852E0
3.452280052E0,1.029307008E0,-7.990419269E-1,-7.153225541E-1,1.486481508E0
3.454725052E0,1.019533277E0,-7.739964724E-1,-7.171551585E-1,1.467252590E0
3.457170834E0,1.011592031E0,-7.446749806E-1,-7.189877629E-1,1.447343313E0
3.459615886E0,1.004261613E0,-7.165751457E-1,-7.159334421E-1,1.426387752E0
3.462060104E0,9.975420833E-1,-6.884753704E-1,-7.134900093E-1,1.406469529E0
3.464505104E0,9.926551580E-1,-6.615973711E-1,-7.098248005E-1,1.388137814E0
3.466950886E0,9.877682924E-1,-6.383844614E-1,-7.043269873E-1,1.370874693E0
3.469395886E0,9.834921956E-1,-6.127281785E-1,-6.982183456E-1,1.352849429E0
3.471840104E0,9.798270464E-1,-5.876827240E-1,-6.896662712E-1,1.334567942E0
3.474285156E0,9.755509496E-1,-5.638589859E-1,-6.817250252E-1,1.316960752E0
3.476730938E0,9.700531960E-1,-5.406461358E-1,-6.756163836E-1,1.299907283E0
3.479175938E0,9.633336663E-1,-5.180441141E-1,-6.670642495E-1,1.281154233E0
3.481620156E0,9.553924203E-1,-4.978856146E-1,-6.615664959E-1,1.264252740E0
3.484065209E0,9.480620623E-1,-4.771161973E-1,-6.566795707E-1,1.248074356E0
3.486510990E0,9.382882118E-1,-4.587902725E-1,-6.548469663E-1,1.232760249E0
3.488955990E0,9.297361374E-1,-4.435186386E-1,-6.542360783E-1,1.220304435E0
3.491400209E0,9.211840034E-1,-4.288578928E-1,-6.548469663E-1,1.208852187E0
3.493845209E0,9.107993245E-1,-4.172514677E-1,-6.560686827E-1,1.197530924E0
3.496291042E0,9.022471905E-1,-4.056450427E-1,-6.603447795E-1,1.189391912E0
3.498736042E0,8.949168324E-1,-3.958711922E-1,-6.652316451E-1,1.183268051E0
3.501180261E0,8.875864744E-1,-3.903734088E-1,-6.713402867E-1,1.179363781E0
3.503625261E0,8.826995492E-1,-3.836539090E-1,-6.780598164E-1,1.177333398E0
3.506071094E0,8.759800196E-1,-3.775452673E-1,-6.847793460E-1,1.174224926E0
3.508516094E0,8.710930943E-1,-3.720474839E-1,-6.939423084E-1,1.174213965E0
3.510960313E0,8.680387735E-1,-3.671605587E-1,-7.037161589E-1,1.176228983E0
3.513405313E0,8.637627363E-1,-3.610519171E-1,-7.104356289E-1,1.175229056E0
3.515851146E0,8.594866991E-1,-3.549432755E-1,-7.189877629E-1,1.175434183E0
3.518296146E0,8.558214903E-1,-3.488346040E-1,-7.275398970E-1,1.176193141E0
3.520740365E0,8.533779979E-1,-3.457802832E-1,-7.367028594E-1,1.179215466E0
3.523185365E0,8.484911323E-1,-3.402824998E-1,-7.458658218E-1,1.179849654E0
3.525631198E0,8.436042070E-1,-3.421151042E-1,-7.556396723E-1,1.183090071E0
3.528076198E0,8.399389982E-1,-3.427259624E-1,-7.641917467E-1,1.186148233E0
3.530520417E0,8.356629610E-1,-3.451694250E-1,-7.727438807E-1,1.189372785E0
3.532965417E0,8.326086402E-1,-3.500563502E-1,-7.806851268E-1,1.193836615E0
3.535411250E0,8.289434314E-1,-3.579975963E-1,-7.886263132E-1,1.198849846E0
3.537856250E0,8.258891106E-1,-3.647170961E-1,-7.947350144E-1,1.202794715E0
3.540300469E0,8.228347898E-1,-3.732692003E-1,-8.008436561E-1,1.207368025E0
3.542745469E0,8.216130733E-1,-3.824321628E-1,-8.057305813E-1,1.212643464E0
3.545191250E0,8.197804689E-1,-3.952603340E-1,-8.124500513E-1,1.219977801E0
3.547636302E0,8.179478645E-1,-4.086993635E-1,-8.161152601E-1,1.225609235E0
3.550080469E0,8.155044317E-1,-4.203057885E-1,-8.191695809E-1,1.229936273E0
3.552525521E0,8.081740141E-1,-4.337448180E-1,-8.240565062E-1,1.233024302E0
3.554971302E0,8.026762605E-1,-4.441294968E-1,-8.277216554E-1,1.235582182E0
3.557416302E0,7.941241264E-1,-4.551250637E-1,-8.326085806E-1,1.237339485E0
3.559860573E0,7.849611640E-1,-4.636771679E-1,-8.362737894E-1,1.237139602E0
3.562305573E0,7.739655972E-1,-4.703966975E-1,-8.399389982E-1,1.235230067E0
3.564751354E0,7.623592019E-1,-4.777270555E-1,-8.436041474E-1,1.233321795E0
3.567196354E0,7.507527471E-1,-4.832248390E-1,-8.478802443E-1,1.231274478E0
3.569640573E0,7.409788966E-1,-4.887226224E-1,-8.515453935E-1,1.230052472E0
3.572085625E0,7.312051058E-1,-4.923878312E-1,-8.533779979E-1,1.226931412E0
3.574531406E0,7.250964642E-1,-4.984964728E-1,-8.564323187E-1,1.227900620E0
3.576976406E0,7.189877629E-1,-5.052159429E-1,-8.582649231E-1,1.228334332E0
3.579420625E0,7.147117257E-1,-5.119354725E-1,-8.588758111E-1,1.229047777E0
3.581865625E0,7.098248005E-1,-5.180441141E-1,-8.600975275E-1,1.229629500E0
3.584311459E0,7.061596513E-1,-5.278179646E-1,-8.625409603E-1,1.233381597E0
3.586756459E0,7.043270469E-1,-5.375918150E-1,-8.619301319E-1,1.236125034E0
3.589200677E0,7.000510097E-1,-5.461438894E-1,-8.600975275E-1,1.236168403E0
3.591645677E0,6.963858008E-1,-5.571394563E-1,-8.588758111E-1,1.238153955E0
3.594091511E0,6.921097636E-1,-5.705785155E-1,-8.564323187E-1,1.240182278E0
3.596536511E0,6.878336668E-1,-5.840175152E-1,-8.545997143E-1,1.242792132E0
3.598980729E0,6.823359132E-1,-5.980674028E-1,-8.527671099E-1,1.245182180E0
3.601425729E0,6.768381000E-1,-6.121172905E-1,-8.503236771E-1,1.247336260E0
3.603871563E0,6.695077419E-1,-6.249454618E-1,-8.491019607E-1,1.248908158E0
3.606316563E0,6.627882123E-1,-6.414388418E-1,-8.466584682E-1,1.252023388E0
3.608760781E0,6.542361379E-1,-6.573212743E-1,-8.448259234E-1,1.254522627E0
3.611205781E0,6.481274962E-1,-6.738146544E-1,-8.423824310E-1,1.258452860E0
3.613651615E0,6.414079666E-1,-6.933622956E-1,-8.399389982E-1,1.263982980E0
3.616096615E0,6.352993250E-1,-7.122991085E-1,-8.368846774E-1,1.269390096E0
3.618540834E0,6.304123998E-1,-7.336794138E-1,-8.338303566E-1,1.277097623E0
3.620985834E0,6.261363626E-1,-7.550596595E-1,-8.307760358E-1,1.285437924E0
3.623431615E0,6.243037581E-1,-7.764399052E-1,-8.277216554E-1,1.295274970E0
3.625876667E0,6.224711537E-1,-7.984310389E-1,-8.240565062E-1,1.305385608E0
3.628320886E0,6.224711537E-1,-8.204221725E-1,-8.228347898E-1,1.318188139E0
3.630765886E0,6.206385493E-1,-8.381372690E-1,-8.210021853E-1,1.327294571E0
3.633211667E0,6.169734001E-1,-8.576849103E-1,-8.179478645E-1,1.336158034E0
3.635656719E0,6.145299077E-1,-8.735674024E-1,-8.167261481E-1,1.344547736E0
3.638100938E0,6.090321541E-1,-8.882281780E-1,-8.148935437E-1,1.350526175E0
3.640545938E0,6.047560573E-1,-8.980019689E-1,-8.142826557E-1,1.354693201E0
3.642991719E0,5.998691916E-1,-9.096084237E-1,-8.136717677E-1,1.359886862E0
3.645436719E0,5.937604904E-1,-9.187713861E-1,-8.155043721E-1,1.364455848E0
3.647880938E0,5.888736248E-1,-9.273235202E-1,-8.173369765E-1,1.369211740E0
3.650325990E0,5.815432072E-1,-9.358755946E-1,-8.167261481E-1,1.371530981E0
3.652771771E0,5.711585283E-1,-9.432060122E-1,-8.179478645E-1,1.372916004E0
3.655216771E0,5.601629615E-1,-9.480928779E-1,-8.167261481E-1,1.371023067E0
3.657660990E0,5.461130738E-1,-9.523689747E-1,-8.161152601E-1,1.367951122E0
3.660105990E0,5.338957906E-1,-9.566450119E-1,-8.142826557E-1,1.365016717E0
3.662551823E0,5.216785073E-1,-9.590884447E-1,-8.100066185E-1,1.359452034E0
3.664996823E0,5.125154853E-1,-9.645862579E-1,-8.063414097E-1,1.357676412E0
3.667441042E0,5.045742989E-1,-9.719166160E-1,-8.002327681E-1,1.356314718E0
3.669886042E0,5.002982020E-1,-9.816904664E-1,-7.941241264E-1,1.358178041E0
3.672331875E0,4.978547394E-1,-9.939077497E-1,-7.861828804E-1,1.361541581E0
3.674776875E0,4.972438514E-1,-1.004903197E0,-7.788525224E-1,1.365171467E0
3.677221094E0,4.948004186E-1,-1.014677048E0,-7.715221047E-1,1.367349013E0
3.679666094E0,4.960221350E-1,-1.025672674E0,-7.617483139E-1,1.370511907E0
3.682111927E0,4.941895306E-1,-1.031781316E0,-7.544178963E-1,1.370380363E0
3.684556927E0,4.917460680E-1,-1.036057353E0,-7.483092546E-1,1.369377879E0
3.687001146E0,4.886917472E-1,-1.037279010E0,-7.422006130E-1,1.365880345E0
3.689446146E0,4.831939638E-1,-1.034224749E0,-7.367028594E-1,1.358612653E0
3.691891979E0,4.795287848E-1,-1.029948711E0,-7.336485386E-1,1.352398751E0
3.694336979E0,4.746418595E-1,-1.020785689E0,-7.312050462E-1,1.342366991E0
3.696781198E0,4.691440761E-1,-1.010401011E0,-7.324267626E-1,1.333212409E0
3.699226198E0,4.612028301E-1,-9.963512421E-1,-7.324267626E-1,1.319800292E0
3.701672031E0,4.557050765E-1,-9.823013544E-1,-7.342593670E-1,1.308327132E0
3.704117031E0,4.520398676E-1,-9.676405787E-1,-7.367028594E-1,1.297458837E0
3.706561250E0,4.471529424E-1,-9.505363703E-1,-7.397571802E-1,1.284797973E0
3.709006250E0,4.447095096E-1,-9.352647662E-1,-7.440332174E-1,1.275175345E0
3.711452031E0,4.428769052E-1,-9.224365950E-1,-7.495309711E-1,1.268395010E0
3.713897084E0,4.410443008E-1,-9.120519161E-1,-7.544178963E-1,1.263133063E0
3.716341302E0,4.398225844E-1,-9.034997821E-1,-7.593048215E-1,1.259483852E0
3.718786302E0,4.392117262E-1,-8.949476480E-1,-7.635808587E-1,1.255744385E0
3.721232084E0,4.373791218E-1,-8.900607824E-1,-7.666352391E-1,1.253490440E0
3.723677084E0,4.349356592E-1,-8.845629692E-1,-7.715221047E-1,1.251745594E0
3.726121302E0,4.288270175E-1,-8.796760440E-1,-7.721329927E-1,1.246560031E0
3.728566354E0,4.227183759E-1,-8.747891188E-1,-7.751873136E-1,1.242924856E0
3.731012136E0,4.147771299E-1,-8.705130816E-1,-7.757982016E-1,1.237617042E0
3.733457188E0,4.074467421E-1,-8.656261563E-1,-7.764090300E-1,1.232125185E0
3.735901354E0,3.995054960E-1,-8.601284027E-1,-7.764090300E-1,1.225657575E0
3.738346406E0,3.903425336E-1,-8.540197611E-1,-7.751873136E-1,1.217633942E0
3.740792188E0,3.811795712E-1,-8.460785151E-1,-7.727438807E-1,1.207592574E0
3.743237188E0,3.720166087E-1,-8.369155526E-1,-7.709112763E-1,1.197133324E0
3.745681406E0,3.659079373E-1,-8.289743066E-1,-7.684677839E-1,1.188120261E0
3.748126459E0,3.610210419E-1,-8.216438890E-1,-7.629700303E-1,1.177946578E0
3.750572240E0,3.573558331E-1,-8.130918145E-1,-7.580831051E-1,1.167694945E0
3.753017240E0,3.543015122E-1,-8.057613969E-1,-7.531961799E-1,1.158484128E0
3.755461459E0,3.518580496E-1,-7.953767180E-1,-7.489201427E-1,1.147741082E0
3.757906459E0,3.512471914E-1,-7.856028676E-1,-7.434223294E-1,1.137199725E0
3.760352292E0,3.488037288E-1,-7.746073008E-1,-7.397571802E-1,1.126464024E0
3.762797292E0,3.439168036E-1,-7.630009055E-1,-7.367028594E-1,1.114979934E0
3.765241511E0,3.390299082E-1,-7.495618463E-1,-7.354810834E-1,1.103502000E0
3.767686511E0,3.347538412E-1,-7.373445630E-1,-7.324267626E-1,1.091872750E0
3.770132344E0,3.286451995E-1,-7.251272798E-1,-7.312050462E-1,1.080961636E0
3.772577344E0,3.237582743E-1,-7.135208249E-1,-7.287616134E-1,1.070058352E0
3.775021563E0,3.188713789E-1,-7.013035417E-1,-7.275398970E-1,1.059631972E0
3.777466563E0,3.139844537E-1,-6.903079748E-1,-7.257072926E-1,1.049648709E0
3.779912396E0,3.121518493E-1,-6.793124080E-1,-7.250964046E-1,1.041474397E0
3.782357396E0,3.103192449E-1,-6.701494455E-1,-7.257072926E-1,1.035398178E0
3.784801615E0,3.084866703E-1,-6.603755951E-1,-7.250964046E-1,1.028117089E0
3.787246615E0,3.060432076E-1,-6.487691998E-1,-7.263181210E-1,1.020833940E0
3.789692448E0,3.029888868E-1,-6.371627450E-1,-7.293724418E-1,1.014772284E0
3.792137448E0,3.011562824E-1,-6.237237453E-1,-7.299833298E-1,1.006281312E0
3.794581667E0,3.005454242E-1,-6.096738577E-1,-7.318159342E-1,9.987914328E-1
3.797026667E0,2.981019616E-1,-5.944022536E-1,-7.348702550E-1,9.910666528E-1
3.799472448E0,2.956584990E-1,-5.772980452E-1,-7.354810834E-1,9.806219481E-1
3.801917500E0,2.919933200E-1,-5.577503443E-1,-7.385354638E-1,9.704535933E-1
3.804361719E0,2.889389992E-1,-5.351483822E-1,-7.428115010E-1,9.600200322E-1
3.806806719E0,2.846629322E-1,-5.119354725E-1,-7.458658218E-1,9.483811139E-1
3.809252500E0,2.809977531E-1,-4.868900478E-1,-7.483092546E-1,9.359425177E-1
3.811697500E0,2.773325741E-1,-4.600119889E-1,-7.525853515E-1,9.246129449E-1
3.814141771E0,2.730565071E-1,-4.294687510E-1,-7.550287843E-1,9.105337606E-1
3.816586771E0,2.693913281E-1,-3.983146548E-1,-7.574722171E-1,8.972125788E-1
3.819032552E0,2.663370073E-1,-3.677714169E-1,-7.605265379E-1,8.857718845E-1
3.821477552E0,2.626717985E-1,-3.360064626E-1,-7.641917467E-1,8.751490401E-1
3.823921823E0,2.602283657E-1,-3.036306202E-1,-7.672460675E-1,8.652033772E-1
3.826366823E0,2.571740150E-1,-2.730873823E-1,-7.715221047E-1,8.578820143E-1
3.828812604E0,2.528979778E-1,-2.437658757E-1,-7.733547091E-1,8.493860698E-1
3.831257604E0,2.474001944E-1,-2.174987048E-1,-7.745764256E-1,8.417132420E-1
3.833701823E0,2.412915677E-1,-1.912315190E-1,-7.770199180E-1,8.357936751E-1
3.836146875E0,2.345720530E-1,-1.710729748E-1,-7.764090300E-1,8.289155521E-1
3.838592656E0,2.284633964E-1,-1.533578932E-1,-7.745764256E-1,8.219992737E-1
3.841037656E0,2.211330235E-1,-1.380862743E-1,-7.709112763E-1,8.138008535E-1
3.843481875E0,2.150243819E-1,-1.234255210E-1,-7.660243511E-1,8.051475955E-1
3.845926875E0,2.089157254E-1,-1.118190959E-1,-7.599157095E-1,7.960032513E-1
3.848372709E0,2.034179419E-1,-1.050995812E-1,-7.538070679E-1,7.878133514E-1
3.850817709E0,1.985310316E-1,-9.776920825E-2,-7.470875382E-1,7.791746777E-1
3.853261927E0,1.942549795E-1,-9.166055173E-2,-7.379245758E-1,7.685501502E-1
3.855706927E0,1.893680543E-1,-9.104969352E-2,-7.281507254E-1,7.578613234E-1
3.858152761E0,1.844811440E-1,-9.043882042E-2,-7.189877629E-1,7.477672606E-1
3.860597761E0,1.789833605E-1,-9.166055173E-2,-7.104356289E-1,7.383464518E-1
3.863041979E0,1.740964353E-1,-9.288228303E-2,-7.012726665E-1,7.285053466E-1
3.865486979E0,1.679877937E-1,-9.654747695E-2,-6.939423084E-1,7.204840328E-1
3.867932813E0,1.631008834E-1,-1.014343873E-1,-6.872227788E-1,7.135586737E-1
3.870377813E0,1.576030999E-1,-1.063213125E-1,-6.817250252E-1,7.077372172E-1
3.872822031E0,1.521053165E-1,-1.105973646E-1,-6.774489880E-1,7.030682297E-1
3.875267031E0,1.466075331E-1,-1.154842749E-1,-6.737837791E-1,6.991530359E-1
3.877712865E0,1.411097497E-1,-1.197603270E-1,-6.725620627E-1,6.975630621E-1
3.880157865E0,1.356119663E-1,-1.234255210E-1,-6.725620627E-1,6.971113203E-1
3.882602084E0,1.288924515E-1,-1.252581179E-1,-6.750054955E-1,6.985236425E-1
3.885047084E0,1.227838024E-1,-1.270907223E-1,-6.786707044E-1,7.013001061E-1
3.887492917E0,1.148425713E-1,-1.307559013E-1,-6.835576296E-1,7.053629951E-1
3.889937917E0,1.069013253E-1,-1.331993639E-1,-6.896662712E-1,7.104994930E-1
3.892382136E0,9.896008670E-2,-1.344210953E-1,-6.982183456E-1,7.178934376E-1
3.894827136E0,8.979711682E-2,-1.386971474E-1,-7.055487633E-1,7.246374806E-1
3.897272917E0,8.246674389E-2,-1.405297369E-1,-7.128791213E-1,7.312632989E-1
3.899717969E0,7.635809481E-2,-1.405297369E-1,-7.220420837E-1,7.395430591E-1
3.902162188E0,7.024944574E-2,-1.399188787E-1,-7.299833298E-1,7.465841808E-1
3.904607188E0,6.780598313E-2,-1.399188787E-1,-7.379245758E-1,7.541270606E-1
3.907052969E0,6.291906536E-2,-1.380862743E-1,-7.440332174E-1,7.593497590E-1
3.909497969E0,5.986474454E-2,-1.368645579E-1,-7.495309711E-1,7.642724458E-1
3.911942188E0,5.681042373E-2,-1.338102221E-1,-7.538070679E-1,7.676963562E-1
3.914387240E0,5.436696112E-2,-1.289233118E-1,-7.574722171E-1,7.702864055E-1
3.916833021E0,5.009090900E-2,-1.240363792E-1,-7.593048215E-1,7.709980120E-1
3.919278021E0,4.948004335E-2,-1.167060062E-1,-7.605265379E-1,7.710182757E-1
3.921722240E0,4.764745012E-2,-1.081539020E-1,-7.599157095E-1,7.690509941E-1
3.924167292E0,4.520399123E-2,-9.593660384E-2,-7.580831051E-1,7.654653663E-1
3.926613073E0,4.459312558E-2,-8.616276830E-2,-7.568613887E-1,7.630542125E-1
3.929058073E0,4.459312558E-2,-7.455634326E-2,-7.519744635E-1,7.569760821E-1
3.931502292E0,4.459312558E-2,-6.233904883E-2,-7.452549338E-1,7.491859717E-1
3.933947292E0,4.581485689E-2,-4.890002310E-2,-7.391462922E-1,7.421775089E-1
3.936393125E0,4.459312558E-2,-3.729359433E-2,-7.324267626E-1,7.347301012E-1
3.938838125E0,4.398226365E-2,-2.690889314E-2,-7.232638001E-1,7.250993398E-1
3.941282344E0,4.214967042E-2,-1.530246530E-2,-7.147117257E-1,7.161170372E-1
3.943727344E0,4.092793912E-2,-1.863441197E-3,-7.043269873E-1,7.055175927E-1
3.946173177E0,3.848448023E-2,7.910395972E-3,-6.945531964E-1,6.956635482E-1
3.948618177E0,3.543015569E-2,1.707336679E-2,-6.847793460E-1,6.859078280E-1
3.951062396E0,3.298669681E-2,2.623633668E-2,-6.737837791E-1,6.751007692E-1
3.953507396E0,2.993237227E-2,3.173412010E-2,-6.646208167E-1,6.660509224E-1
3.955953229E0,2.748891339E-2,3.478844091E-2,-6.554578543E-1,6.569557631E-1
3.958398229E0,2.748891339E-2,3.723190352E-2,-6.475166082E-1,6.491684011E-1
3.960842448E0,2.809977904E-2,3.601017222E-2,-6.401861906E-1,6.418135934E-1
3.963287448E0,2.993237227E-2,3.539930657E-2,-6.346884370E-1,6.363791872E-1
3.965733281E0,3.115410358E-2,3.295585141E-2,-6.291906238E-1,6.308228811E-1
3.968178281E0,3.115410358E-2,2.929066122E-2,-6.255254745E-1,6.269853589E-1
3.970622500E0,3.176496923E-2,2.562547103E-2,-6.243037581E-1,6.256363644E-1
3.973067500E0,3.176496923E-2,2.257115021E-2,-6.224711537E-1,6.236896723E-1
3.975513334E0,3.115410358E-2,1.829509437E-2,-6.218602657E-1,6.229088848E-1
3.977958334E0,2.993237227E-2,1.585163549E-2,-6.243037581E-1,6.252218836E-1
3.980402552E0,2.748891339E-2,1.218644809E-2,-6.261363029E-1,6.268578944E-1
3.982847552E0,2.565632015E-2,8.521257900E-3,-6.279689074E-1,6.285505606E-1
3.985293334E0,2.504545450E-2,3.634340363E-3,-6.298015118E-1,6.303097869E-1
3.987738386E0,2.443459257E-2,-6.417118129E-4,-6.340775490E-1,6.345485003E-1
3.990182604E0,2.565632015E-2,-6.139495410E-3,-6.371318698E-1,6.376777867E-1
