"Time (s)","Gyroscope x (rad/s)","Gyroscope y (rad/s)","Gyroscope z (rad/s)","Absolute (rad/s)"
1.036375060E-1,5.497783888E-3,5.466933362E-3,4.581485316E-2,4.646626473E-2
1.060833400E-1,8.552107960E-3,5.800157669E-4,4.642571509E-2,4.721040129E-2
1.085283920E-1,9.162971750E-3,-3.696036292E-3,4.520398751E-2,4.627117053E-2
1.109726630E-1,8.552107960E-3,-7.972088642E-3,4.398225993E-2,4.550969058E-2
1.134177150E-1,9.773837402E-3,-1.408073585E-2,4.337139428E-2,4.663553218E-2
1.158635480E-1,1.221729629E-2,-2.018938214E-2,4.459312186E-2,5.045215552E-2
1.183086000E-1,1.282816008E-2,-2.629802935E-2,4.214966297E-2,5.131025363E-2
1.207528190E-1,1.466075517E-2,-3.179581091E-2,4.214966297E-2,5.479512225E-2
1.231978710E-1,1.404989138E-2,-3.790445998E-2,4.092793539E-2,5.752602394E-2
1.256437560E-1,1.404989138E-2,-4.340223968E-2,4.092793539E-2,6.128825134E-2
1.280888080E-1,1.649335027E-2,-5.012175441E-2,3.970620409E-2,6.603638021E-2
1.305330270E-1,1.771507785E-2,-5.561953783E-2,3.787361085E-2,6.958280945E-2
1.329780790E-1,1.893680915E-2,-5.989558995E-2,3.848447651E-2,7.366912086E-2
1.354239650E-1,1.893680915E-2,-6.417164207E-2,3.604101762E-2,7.599708769E-2
1.378690170E-1,1.954767480E-2,-6.783682853E-2,3.604101762E-2,7.926475791E-2
1.403132360E-1,2.260199562E-2,-7.028029114E-2,3.481928632E-2,8.162445852E-2
1.427582880E-1,1.893680915E-2,-7.211288065E-2,3.481928632E-2,8.228762359E-2
1.452041730E-1,2.565632015E-2,-7.211288065E-2,3.543015197E-2,8.434340512E-2
1.476491730E-1,2.199113369E-2,-7.516720146E-2,3.543015197E-2,8.595937299E-2
1.500934440E-1,2.687805146E-2,-7.455634326E-2,3.359755874E-2,8.608062455E-2
1.525384960E-1,2.504545450E-2,-7.761066407E-2,3.359755874E-2,8.820139410E-2
1.549843290E-1,2.687805146E-2,-7.699980587E-2,3.298669308E-2,8.797455129E-2
1.574293810E-1,2.871064469E-2,-7.822152972E-2,3.420842439E-2,9.007288787E-2
1.598736520E-1,2.626718581E-2,-7.761066407E-2,3.420842439E-2,8.878961948E-2
1.623187040E-1,2.871064469E-2,-7.638893276E-2,3.543015197E-2,8.896553173E-2
1.647645380E-1,2.443459257E-2,-7.822152972E-2,3.543015197E-2,8.928019206E-2
1.672095900E-1,2.932151034E-2,-7.638893276E-2,3.604101762E-2,8.940903181E-2
1.696538610E-1,2.443459257E-2,-7.822152972E-2,3.665187955E-2,8.977202961E-2
1.720989130E-1,2.809977904E-2,-7.516720146E-2,3.604101762E-2,8.796965789E-2
1.745447460E-1,2.565632015E-2,-7.638893276E-2,3.726274520E-2,8.878078617E-2
1.769897980E-1,2.626718581E-2,-7.577807456E-2,3.665187955E-2,8.817960030E-2
1.794340690E-1,2.687805146E-2,-7.638893276E-2,3.787361085E-2,8.939859674E-2
1.818791210E-1,2.504545450E-2,-7.577807456E-2,3.787361085E-2,8.834026135E-2
1.843249540E-1,2.932151034E-2,-7.577807456E-2,3.970620409E-2,9.043588998E-2
1.867700060E-1,2.565632015E-2,-7.761066407E-2,4.092793539E-2,9.141530417E-2
1.892142770E-1,2.993237227E-2,-7.333461195E-2,4.153879732E-2,8.943927495E-2
1.916593290E-1,2.504545450E-2,-7.394547760E-2,4.092793539E-2,8.814932980E-2
1.941051630E-1,2.687805146E-2,-7.394547760E-2,4.214966297E-2,8.925781421E-2
1.965502150E-1,2.382372692E-2,-7.516720146E-2,4.153879732E-2,8.912435033E-2
1.989944860E-1,2.443459257E-2,-7.394547760E-2,4.092793539E-2,8.797771802E-2
2.014395380E-1,2.443459257E-2,-7.455634326E-2,4.153879732E-2,8.877595010E-2
2.038853710E-1,2.138026804E-2,-7.516720146E-2,4.031706974E-2,8.793571600E-2
2.063304230E-1,2.504545450E-2,-7.577807456E-2,3.909534216E-2,8.887090162E-2
2.087746940E-1,2.015853673E-2,-7.822152972E-2,3.726274520E-2,8.895777928E-2
2.112197460E-1,2.260199562E-2,-7.699980587E-2,3.543015197E-2,8.772181016E-2
2.136655790E-1,1.893680915E-2,-8.127585799E-2,3.420842439E-2,9.019192941E-2
2.161106310E-1,1.954767480E-2,-8.249758929E-2,3.176496178E-2,9.053715605E-2
2.185549020E-1,1.832594350E-2,-8.494103700E-2,2.871064097E-2,9.151568650E-2
2.209999020E-1,1.710421406E-2,-8.433017880E-2,2.565631643E-2,8.979075547E-2
2.234457880E-1,1.832594350E-2,-8.555191010E-2,2.443458512E-2,9.084062130E-2
2.258908400E-1,1.588248461E-2,-8.494103700E-2,2.138026431E-2,8.901881142E-2
2.283350580E-1,1.710421406E-2,-8.371931314E-2,1.893680543E-2,8.752188373E-2
2.307801110E-1,1.221729629E-2,-8.188671619E-2,1.832593977E-2,8.479703229E-2
2.332259960E-1,1.588248461E-2,-7.822152972E-2,1.771507412E-2,8.175992222E-2
2.356710480E-1,9.162971750E-3,-8.005412668E-2,1.404988673E-2,8.179255814E-2
2.381152670E-1,1.160643063E-2,-7.394547760E-2,1.343902200E-2,7.604768374E-2
2.405603190E-1,7.941242307E-3,-7.150202245E-2,1.282815635E-2,7.307642670E-2
2.430061520E-1,7.941242307E-3,-6.600423902E-2,1.038469747E-2,6.728643875E-2
2.454512560E-1,7.941242307E-3,-6.294991076E-2,9.773833677E-3,6.419721504E-2
2.478954750E-1,6.108648609E-3,-5.989558995E-2,1.038469747E-2,6.109532899E-2
2.503405270E-1,7.941242307E-3,-5.684126541E-2,1.038469747E-2,5.832524946E-2
2.527863610E-1,4.886919167E-3,-5.623039976E-2,9.773833677E-3,5.728235034E-2
2.552314130E-1,8.552107960E-3,-5.378694087E-2,1.099556312E-2,5.556146117E-2
2.576756830E-1,3.665189724E-3,-5.439780653E-2,1.160642691E-2,5.574283915E-2
2.601207360E-1,6.108648609E-3,-5.378694087E-2,1.099556312E-2,5.523814809E-2
2.625665690E-1,4.276054446E-3,-5.500867218E-2,1.282815635E-2,5.664627306E-2
2.650116210E-1,6.108648609E-3,-5.256521329E-2,1.404988673E-2,5.475232007E-2
2.674558920E-1,7.330378052E-3,-5.439780653E-2,1.588248089E-2,5.714113226E-2
2.699009440E-1,6.719513331E-3,-5.317607522E-2,1.771507412E-2,5.645060395E-2
2.723467770E-1,9.773837402E-3,-5.073262006E-2,1.954766735E-2,5.523982200E-2
2.747918290E-1,6.108648609E-3,-5.012175441E-2,2.138026431E-2,5.483266868E-2
2.772361000E-1,1.099556684E-2,-4.645656422E-2,2.260199189E-2,5.282011820E-2
2.796811520E-1,6.108648609E-3,-4.584570229E-2,2.443458512E-2,5.230863176E-2
2.821269860E-1,1.038470119E-2,-4.156964645E-2,2.626718208E-2,5.025775939E-2
2.845720380E-1,7.941242307E-3,-4.156964645E-2,2.748890966E-2,5.046522555E-2
2.870163080E-1,9.162971750E-3,-3.851532191E-2,2.809977531E-2,4.854881508E-2
2.894613610E-1,1.099556684E-2,-3.668272868E-2,2.932150289E-2,4.823147940E-2
2.919071940E-1,9.162971750E-3,-3.485013545E-2,2.871064097E-2,4.607377667E-2
2.943522460E-1,1.160643063E-2,-3.240667656E-2,2.932150289E-2,4.521783332E-2
2.967965170E-1,9.773837402E-3,-3.057408333E-2,2.687804401E-2,4.186563888E-2
2.992415690E-1,1.343902573E-2,-2.507629991E-2,2.626718208E-2,3.872199742E-2
3.016874020E-1,7.941242307E-3,-2.568716556E-2,2.504545078E-2,3.674463782E-2
3.041324540E-1,1.038470119E-2,-1.957851648E-2,2.321285754E-2,3.209356761E-2
3.065767250E-1,7.941242307E-3,-2.018938214E-2,2.076939866E-2,3.003402073E-2
3.090217770E-1,8.552107960E-3,-1.591333002E-2,1.771507412E-2,2.530210414E-2
3.114676110E-1,6.719513331E-3,-1.346987206E-2,1.527161431E-2,2.144321609E-2
3.139126630E-1,4.276054446E-3,-1.163727697E-2,1.404988673E-2,1.873793409E-2
3.163568810E-1,6.108648609E-3,-9.804681875E-3,1.282815635E-2,1.726293631E-2
3.188019860E-1,1.221730839E-3,-9.804681875E-3,9.162968025E-3,1.347532545E-2
3.212478190E-1,3.665189724E-3,-6.139495410E-3,9.162968025E-3,1.162269343E-2
3.236928710E-1,-1.832592767E-3,-7.972088642E-3,7.330374327E-3,1.098394198E-2
3.261371420E-1,1.221730839E-3,-4.917764105E-3,6.108644884E-3,7.936786022E-3
3.285821420E-1,-3.054322209E-3,-7.361222990E-3,5.497780163E-3,9.682049100E-3
3.310280270E-1,-1.832592767E-3,-6.750359200E-3,4.276050720E-3,8.198192200E-3
3.334730790E-1,-3.054322209E-3,-8.582954295E-3,4.886915442E-3,1.033817833E-2
3.359172980E-1,-6.108645815E-3,-8.582954295E-3,4.886915442E-3,1.161312192E-2
3.383623500E-1,-3.665186930E-3,-9.193818085E-3,6.108644884E-3,1.163079656E-2
3.408082360E-1,-7.941240445E-3,-1.285900641E-2,4.886915442E-3,1.588393176E-2
3.432532880E-1,-6.719510537E-3,-1.102641318E-2,5.497780163E-3,1.403421520E-2
3.456975060E-1,-1.099556312E-2,-1.530246530E-2,5.497780163E-3,1.962889297E-2
3.481425580E-1,-7.941240445E-3,-1.346987206E-2,5.497780163E-3,1.657487074E-2
3.505884440E-1,-1.221729256E-2,-1.408073585E-2,6.719509605E-3,1.981618452E-2
3.530334960E-1,-1.282815821E-2,-1.285900641E-2,6.719509605E-3,1.936665945E-2
3.554777150E-1,-1.282815821E-2,-1.530246530E-2,7.941238582E-3,2.148930798E-2
3.579227670E-1,-1.588248275E-2,-1.469159964E-2,7.941238582E-3,2.304690063E-2
3.603686000E-1,-1.343902200E-2,-1.469159964E-2,7.330374327E-3,2.121755877E-2
3.628137040E-1,-1.771507598E-2,-1.591333002E-2,5.497780163E-3,2.443938576E-2
3.652579230E-1,-1.343902200E-2,-1.469159964E-2,5.497780163E-3,2.065613709E-2
3.677029750E-1,-1.832594164E-2,-1.591333002E-2,4.276050720E-3,2.464465092E-2
3.701488080E-1,-1.527161710E-2,-1.408073585E-2,3.665185999E-3,2.109319794E-2
3.725938610E-1,-1.893680543E-2,-1.591333002E-2,3.054321278E-3,2.492319302E-2
3.750381310E-1,-1.710421033E-2,-1.408073585E-2,2.443456557E-3,2.228882261E-2
3.774831830E-1,-1.893680543E-2,-1.285900641E-2,2.443456557E-3,2.302014608E-2
3.799290170E-1,-2.076939866E-2,-1.102641318E-2,6.108623929E-4,2.352281576E-2
3.823740690E-1,-1.771507598E-2,-9.193818085E-3,1.832591835E-3,2.004266951E-2
3.848183400E-1,-2.199112624E-2,-7.361222990E-3,-2.328306437E-9,2.319045573E-2
3.872633920E-1,-1.832594164E-2,-1.863441197E-3,-2.328306437E-9,1.842043838E-2
3.897092250E-1,-2.321285754E-2,-3.084616037E-5,-6.108670495E-4,2.322091440E-2
3.921542770E-1,-2.015853301E-2,6.688664667E-3,1.221727114E-3,2.127433442E-2
3.945985480E-1,-2.504545078E-2,9.132123552E-3,6.108623929E-4,2.666539777E-2
3.970436000E-1,-2.382372320E-2,1.401904132E-2,1.832591835E-3,2.770309909E-2
3.994894330E-1,-2.443458512E-2,1.585163549E-2,1.832591835E-3,2.918358598E-2
4.019344860E-1,-2.626718208E-2,2.012768760E-2,1.221727114E-3,3.311466865E-2
4.043787560E-1,-2.382372320E-2,2.318201214E-2,3.665185999E-3,3.344262344E-2
4.068238080E-1,-2.871064097E-2,2.684720233E-2,1.832591835E-3,3.935011525E-2
4.092696420E-1,-2.321285754E-2,2.929066122E-2,4.276050720E-3,3.761733908E-2
4.117146940E-1,-2.809977531E-2,2.806892991E-2,5.497780163E-3,4.009598216E-2
4.141589650E-1,-2.443458512E-2,3.356670961E-2,5.497780163E-3,4.188076564E-2
4.166040170E-1,-2.565631643E-2,3.112325445E-2,6.108644884E-3,4.079484137E-2
4.190498500E-1,-2.443458512E-2,3.356670961E-2,7.330374327E-3,4.216049492E-2
4.214949020E-1,-2.504545078E-2,3.051238880E-2,8.552104235E-3,4.039082769E-2
4.239391730E-1,-2.626718208E-2,2.929066122E-2,9.162968025E-3,4.039638192E-2
4.263842250E-1,-2.382372320E-2,2.929066122E-2,9.162968025E-3,3.885193180E-2
4.288300580E-1,-2.809977531E-2,2.745806798E-2,1.038469747E-2,4.063723430E-2
4.312751110E-1,-2.504545078E-2,2.623633668E-2,1.099556312E-2,3.790148249E-2
4.337193810E-1,-2.871064097E-2,2.501460537E-2,9.773833677E-3,3.931360085E-2
4.361644330E-1,-2.382372320E-2,2.562547103E-2,1.160642691E-2,3.686385354E-2
4.386102670E-1,-2.626718208E-2,2.440374345E-2,1.160642691E-2,3.768576249E-2
4.410553190E-1,-2.504545078E-2,2.623633668E-2,1.099556312E-2,3.790148249E-2
4.434995900E-1,-2.382372320E-2,2.318201214E-2,1.099556312E-2,3.501253893E-2
4.459446420E-1,-2.565631643E-2,2.257115021E-2,1.038469747E-2,3.571477756E-2
4.483904750E-1,-2.382372320E-2,2.134941891E-2,9.162968025E-3,3.327653013E-2
4.508355270E-1,-2.565631643E-2,1.768423244E-2,7.941238582E-3,3.215652220E-2
4.532797980E-1,-2.199112624E-2,1.890596002E-2,8.552104235E-3,3.023546667E-2
4.557247980E-1,-2.504545078E-2,1.462990697E-2,6.108644884E-3,2.964159788E-2
4.581706830E-1,-2.260199189E-2,1.462990697E-2,6.108644884E-3,2.760796548E-2
4.606157360E-1,-2.626718208E-2,9.132123552E-3,4.276050720E-3,2.813618924E-2
4.630599540E-1,-2.504545078E-2,7.910395972E-3,1.221727114E-3,2.629337533E-2
4.655050060E-1,-2.565631643E-2,3.023478435E-3,-6.108670495E-4,2.584107492E-2
4.679508920E-1,-2.687804401E-2,-6.417118129E-4,-1.832596492E-3,2.694808813E-2
4.703959440E-1,-2.504545078E-2,-3.696036292E-3,-2.443461679E-3,2.543434280E-2
4.728401630E-1,-2.809977531E-2,-6.750359200E-3,-3.665191121E-3,2.913071142E-2
4.752852150E-1,-2.382372320E-2,-8.582954295E-3,-3.054325469E-3,2.550619132E-2
4.777311000E-1,-2.993236855E-2,-1.408073585E-2,-6.108650006E-3,3.363821360E-2
4.801761520E-1,-2.565631643E-2,-1.652419381E-2,-8.552108891E-3,3.169280865E-2
4.826203710E-1,-2.932150289E-2,-2.202197537E-2,-7.941243239E-3,3.752041145E-2
4.850654230E-1,-2.809977531E-2,-2.202197537E-2,-8.552108891E-3,3.671107923E-2
4.875113080E-1,-2.565631643E-2,-2.751975879E-2,-7.941243239E-3,3.845317985E-2
4.899563610E-1,-2.932150289E-2,-2.874148823E-2,-8.552108891E-3,4.193998384E-2
4.924005790E-1,-2.871064097E-2,-2.996321768E-2,-8.552108891E-3,4.237020043E-2
4.948456310E-1,-2.993236855E-2,-3.423926979E-2,-8.552108891E-3,4.627540221E-2
4.972914650E-1,-2.626718208E-2,-3.301754221E-2,-6.719513796E-3,4.272323506E-2
4.997365690E-1,-3.176496178E-2,-3.362840414E-2,-7.330379449E-3,4.683606329E-2
5.021807880E-1,-2.809977531E-2,-3.057408333E-2,-6.108650006E-3,4.197246179E-2
5.046258400E-1,-3.237582743E-2,-3.362840414E-2,-5.497784354E-3,4.700307862E-2
5.070716730E-1,-3.054323420E-2,-2.996321768E-2,-5.497784354E-3,4.313825682E-2
5.095167250E-1,-3.115409613E-2,-3.240667656E-2,-3.665191121E-3,4.510215091E-2
5.119609960E-1,-3.298669308E-2,-2.935235202E-2,-3.054325469E-3,4.426072067E-2
5.144060480E-1,-2.993236855E-2,-2.751975879E-2,-4.276054911E-3,4.088481939E-2
5.168518810E-1,-3.359755874E-2,-2.690889314E-2,-4.276054911E-3,4.325701248E-2
5.192969330E-1,-2.993236855E-2,-2.385457046E-2,-4.276054911E-3,3.851326868E-2
5.217412040E-1,-3.359755874E-2,-2.446543425E-2,-3.665191121E-3,4.172274023E-2
5.241862560E-1,-3.054323420E-2,-1.896765269E-2,-3.665191121E-3,3.613993124E-2
5.266320900E-1,-3.237582743E-2,-2.018938214E-2,-2.443461679E-3,3.823317745E-2
5.290771420E-1,-3.176496178E-2,-1.591333002E-2,-1.221731771E-3,3.554911388E-2
5.315214130E-1,-3.176496178E-2,-1.530246530E-2,-2.443461679E-3,3.534329846E-2
5.339664650E-1,-3.481928632E-2,-1.102641318E-2,-1.221731771E-3,3.654390668E-2
5.364122980E-1,-3.176496178E-2,-1.102641318E-2,6.108623929E-4,3.362986377E-2
5.388573500E-1,-3.604101390E-2,-7.972088642E-3,-2.328306437E-9,3.691217794E-2
5.413016210E-1,-3.115409613E-2,-4.917764105E-3,6.108623929E-4,3.154576457E-2
5.437466730E-1,-3.481928632E-2,-5.528629757E-3,6.108623929E-4,3.526076572E-2
5.461925060E-1,-2.993236855E-2,-3.085170640E-3,6.108623929E-4,3.009714467E-2
5.486375580E-1,-3.298669308E-2,-4.306900315E-3,-2.328306437E-9,3.326666967E-2
5.510818290E-1,-2.932150289E-2,-2.474304987E-3,-2.328306437E-9,2.942571524E-2
5.535268810E-1,-2.993236855E-2,-2.474304987E-3,6.108623929E-4,3.004067284E-2
5.559727150E-1,-2.932150289E-2,-4.917764105E-3,6.108623929E-4,2.973731811E-2
5.584177670E-1,-2.687804401E-2,-6.750359200E-3,6.108623929E-4,2.771948326E-2
5.608620380E-1,-2.993236855E-2,-9.804681875E-3,-6.108670495E-4,3.150320035E-2
5.633070900E-1,-2.687804401E-2,-8.582954295E-3,-6.108670495E-4,2.822179145E-2
5.657529230E-1,-2.993236855E-2,-1.163727697E-2,-1.832596492E-3,3.216723973E-2
5.681979750E-1,-2.504545078E-2,-9.804681875E-3,-6.108670495E-4,2.690315130E-2
5.706422460E-1,-2.687804401E-2,-1.102641318E-2,-2.328306437E-9,2.905186805E-2
5.730872980E-1,-2.443458512E-2,-7.972088642E-3,-6.108670495E-4,2.570945947E-2
5.755331310E-1,-2.565631643E-2,-9.193818085E-3,-1.832596492E-3,2.731540360E-2
5.779781830E-1,-2.687804401E-2,-9.193818085E-3,-1.832596492E-3,2.846601396E-2
5.804224540E-1,-2.443458512E-2,-8.582954295E-3,-6.108670495E-4,2.590538965E-2
5.828675060E-1,-2.871064097E-2,-9.193818085E-3,-6.108670495E-4,3.015294935E-2
5.853133400E-1,-2.321285754E-2,-1.041554753E-2,-6.108670495E-4,2.544982405E-2
5.877583920E-1,-2.687804401E-2,-1.408073585E-2,-3.054325469E-3,3.049631578E-2
5.902026630E-1,-2.260199189E-2,-1.408073585E-2,-3.665191121E-3,2.688030479E-2
5.926477150E-1,-2.626718208E-2,-1.835678890E-2,-4.886920564E-3,3.241633147E-2
5.950935480E-1,-2.076939866E-2,-1.774592325E-2,-6.108650006E-3,2.799287977E-2
5.975386000E-1,-2.382372320E-2,-1.957851648E-2,-5.497784354E-3,3.132273499E-2
5.999828710E-1,-2.138026431E-2,-1.713505760E-2,-7.330379449E-3,2.836301049E-2
6.024279230E-1,-1.893680543E-2,-1.408073585E-2,-7.330379449E-3,2.471040641E-2
6.048737560E-1,-2.015853301E-2,-1.591333002E-2,-8.552108891E-3,2.706915388E-2
6.073188080E-1,-1.466075145E-2,-1.591333002E-2,-7.941243239E-3,2.304853682E-2
6.097630270E-1,-1.710421033E-2,-1.713505760E-2,-7.941243239E-3,2.547994416E-2
6.122081310E-1,-1.160642877E-2,-1.591333002E-2,-6.108650006E-3,2.062180560E-2
6.146539650E-1,-1.282815821E-2,-2.018938214E-2,-5.497784354E-3,2.454380629E-2
6.170990170E-1,-9.162969887E-3,-1.957851648E-2,-4.886920564E-3,2.216213702E-2
6.195432360E-1,-1.160642877E-2,-2.629802935E-2,-4.276054911E-3,2.906166172E-2
6.219882880E-1,-1.221729256E-2,-3.179581091E-2,-4.276054911E-3,3.432958599E-2
6.244341730E-1,-1.099556312E-2,-3.973705322E-2,-2.443461679E-3,4.130261870E-2
6.268792250E-1,-1.282815821E-2,-4.462397099E-2,-1.832596492E-3,4.646739545E-2
6.293234440E-1,-1.160642877E-2,-5.012175441E-2,-3.054325469E-3,5.153861036E-2
6.317684960E-1,-1.404988766E-2,-5.989558995E-2,-4.886920564E-3,6.171517667E-2
6.342143810E-1,-8.552104235E-3,-6.417164207E-2,-3.054325469E-3,6.481101015E-2
6.366594330E-1,-1.160642877E-2,-7.333461195E-2,-3.054325469E-3,7.431018371E-2
6.391036520E-1,-7.941240445E-3,-7.516720146E-2,-3.054325469E-3,7.564720999E-2
6.415487040E-1,-9.162969887E-3,-8.127585799E-2,-3.665191121E-3,8.187282049E-2
6.439945900E-1,-8.552104235E-3,-8.249758929E-2,-1.832596492E-3,8.295992488E-2
6.464396420E-1,-9.162969887E-3,-8.555191010E-2,-3.054325469E-3,8.609540199E-2
6.488838610E-1,-7.941240445E-3,-8.677364141E-2,-2.443461679E-3,8.717051479E-2
6.513289130E-1,-7.941240445E-3,-8.860623091E-2,-1.221731771E-3,8.896977063E-2
6.537747460E-1,-9.162969887E-3,-8.982796222E-2,-6.108670495E-4,9.029615702E-2
6.562197980E-1,-9.773833677E-3,-8.982796222E-2,-2.328306437E-9,9.035812427E-2
6.586640690E-1,-9.773833677E-3,-9.104969352E-2,-2.328306437E-9,9.157278261E-2
6.611091210E-1,-1.099556312E-2,-9.043882042E-2,6.108623929E-4,9.110683729E-2
6.635550060E-1,-1.221729256E-2,-8.921709657E-2,6.108623929E-4,9.005179460E-2
6.660000060E-1,-1.282815821E-2,-8.982796222E-2,-6.108670495E-4,9.074137754E-2
6.684442770E-1,-1.343902200E-2,-8.677364141E-2,-2.328306437E-9,8.780815540E-2
6.708893290E-1,-1.588248275E-2,-8.371931314E-2,-1.832596492E-3,8.523224191E-2
6.733351630E-1,-1.832594164E-2,-8.066498488E-2,-3.665191121E-3,8.280165185E-2
6.757802670E-1,-2.138026431E-2,-7.333461195E-2,-6.108650006E-3,7.663156410E-2
6.782244860E-1,-2.443458512E-2,-6.722597033E-2,-8.552108891E-3,7.203831344E-2
6.806695380E-1,-2.809977531E-2,-5.867385864E-2,-1.160643157E-2,6.608273840E-2
6.831153710E-1,-3.054323420E-2,-4.951088876E-2,-1.466075610E-2,5.999295817E-2
6.855604230E-1,-3.115409613E-2,-4.034791887E-2,-1.832594350E-2,5.416984833E-2
6.880046940E-1,-3.176496178E-2,-2.813062444E-2,-2.138026804E-2,4.751274239E-2
6.904497460E-1,-3.298669308E-2,-1.774592325E-2,-2.443459257E-2,4.472235489E-2
6.928955790E-1,-3.481928632E-2,-6.139495410E-3,-2.687805146E-2,4.441290076E-2
6.953406310E-1,-3.543015197E-2,5.466933362E-3,-2.871064469E-2,4.592912091E-2
6.977849020E-1,-3.787361085E-2,1.951682568E-2,-2.993237227E-2,5.206979732E-2
7.002299540E-1,-4.031706974E-2,3.356670961E-2,-3.115410358E-2,6.101449234E-2
7.026757880E-1,-4.276052862E-2,4.456227645E-2,-3.054323792E-2,6.889955496E-2
7.051208400E-1,-4.276052862E-2,5.739044026E-2,-3.054323792E-2,7.781397576E-2
7.075651110E-1,-4.398225620E-2,6.899686903E-2,-3.054323792E-2,8.733782788E-2
7.100101630E-1,-4.581484944E-2,7.754897326E-2,-2.993237227E-2,9.491464899E-2
7.124559960E-1,-4.642571509E-2,8.793366700E-2,-2.748891339E-2,1.031664537E-1
7.149010480E-1,-4.703658074E-2,9.343145043E-2,-2.504545450E-2,1.075599863E-1
7.173453190E-1,-4.825831205E-2,9.709664434E-2,-2.382372692E-2,1.110143819E-1
7.197903710E-1,-4.886917397E-2,9.954009205E-2,-2.138026804E-2,1.129315808E-1
7.222362040E-1,-4.825831205E-2,1.001509652E-1,-1.954767480E-2,1.128768891E-1
7.246812560E-1,-4.703658074E-2,9.892923385E-2,-1.710421592E-2,1.108692358E-1
7.271255270E-1,-4.398225620E-2,9.892923385E-2,-1.649335027E-2,1.095146692E-1
7.295705790E-1,-4.276052862E-2,9.709664434E-2,-1.404989045E-2,1.070215893E-1
7.320164130E-1,-3.970620409E-2,9.404232353E-2,-1.221729722E-2,1.028095502E-1
7.344614650E-1,-3.848447651E-2,9.159886092E-2,-9.162972681E-3,9.977658203E-2
7.369057360E-1,-3.481928632E-2,8.793366700E-2,-6.719513796E-3,9.481489523E-2
7.393507880E-1,-3.237582743E-2,8.610107750E-2,-4.276054911E-3,9.208623346E-2
7.417966210E-1,-3.115409613E-2,8.243588358E-2,-6.108670495E-4,8.812846172E-2
7.442416730E-1,-2.809977531E-2,7.877070457E-2,3.054321278E-3,8.368841108E-2
7.466859440E-1,-2.809977531E-2,7.510551065E-2,5.497780163E-3,8.037823517E-2
7.491309960E-1,-2.809977531E-2,7.082945853E-2,7.941238582E-3,7.661248488E-2
7.515768290E-1,-2.687804401E-2,6.410994381E-2,9.162968025E-3,7.011757360E-2
7.540218810E-1,-2.809977531E-2,5.861216411E-2,9.773833677E-3,6.573059394E-2
7.564661520E-1,-2.809977531E-2,5.250352249E-2,1.038469747E-2,6.044881461E-2
7.589112040E-1,-2.748890966E-2,4.578400776E-2,1.099556312E-2,5.452263685E-2
7.613570380E-1,-2.687804401E-2,3.967535868E-2,9.162968025E-3,4.879060688E-2
7.638020900E-1,-2.626718208E-2,3.295585141E-2,7.941238582E-3,4.288491887E-2
7.662463610E-1,-2.565631643E-2,2.684720233E-2,6.108644884E-3,3.763421831E-2
7.686914130E-1,-2.565631643E-2,2.073855326E-2,2.443456557E-3,3.308027575E-2
7.711372460E-1,-2.565631643E-2,1.524076890E-2,1.221727114E-3,2.986670766E-2
7.735822980E-1,-2.565631643E-2,9.742989205E-3,-1.832596492E-3,2.750510537E-2
7.760265690E-1,-2.687804401E-2,4.245205782E-3,-6.108650006E-3,2.788846763E-2
7.784716210E-1,-2.626718208E-2,-1.252577407E-3,-7.330379449E-3,2.729960197E-2
7.809174540E-1,-2.809977531E-2,-7.361222990E-3,-8.552108891E-3,3.028074542E-2
7.833625060E-1,-2.748890966E-2,-1.224814076E-2,-1.099556778E-2,3.203996906E-2
7.858067770E-1,-2.809977531E-2,-1.469159964E-2,-1.099556778E-2,3.356103371E-2
7.882518290E-1,-2.932150289E-2,-1.835678890E-2,-1.160643157E-2,3.648878574E-2
7.906976630E-1,-2.809977531E-2,-2.080024779E-2,-1.160643157E-2,3.683689637E-2
7.931427150E-1,-2.809977531E-2,-2.263284102E-2,-1.038470212E-2,3.754577078E-2
7.955869860E-1,-2.748890966E-2,-2.263284102E-2,-7.941243239E-3,3.648217361E-2
7.980320380E-1,-2.809977531E-2,-2.324370667E-2,-7.330379449E-3,3.719679738E-2
8.004778710E-1,-2.687804401E-2,-2.141111158E-2,-7.330379449E-3,3.513686684E-2
8.029229230E-1,-2.809977531E-2,-2.202197537E-2,-5.497784354E-3,3.612188263E-2
8.053671940E-1,-2.809977531E-2,-1.957851648E-2,-3.665191121E-3,3.444342182E-2
8.078122460E-1,-2.748890966E-2,-2.018938214E-2,-3.054325469E-3,3.424295854E-2
8.102580790E-1,-2.748890966E-2,-1.896765269E-2,-3.054325469E-3,3.353715711E-2
8.127031310E-1,-2.871064097E-2,-1.957851648E-2,-2.443461679E-3,3.483661461E-2
8.151474020E-1,-2.993236855E-2,-1.774592325E-2,-6.108670495E-4,3.480283950E-2
8.175924540E-1,-2.932150289E-2,-1.835678890E-2,-2.443461679E-3,3.467986067E-2
8.200382880E-1,-2.932150289E-2,-1.713505760E-2,-2.443461679E-3,3.404895352E-2
8.224833400E-1,-2.809977531E-2,-1.713505760E-2,-1.221731771E-3,3.293478708E-2
8.249275580E-1,-2.748890966E-2,-1.591333002E-2,6.108623929E-4,3.176865404E-2
8.273726630E-1,-2.932150289E-2,-1.469159964E-2,1.832591835E-3,3.284740515E-2
8.298184960E-1,-2.748890966E-2,-1.408073585E-2,1.832591835E-3,3.093971024E-2
8.322635480E-1,-2.871064097E-2,-1.408073585E-2,3.665185999E-3,3.218697897E-2
8.347078190E-1,-2.809977531E-2,-1.713505760E-2,5.497780163E-3,3.336814586E-2
8.371528710E-1,-3.054323420E-2,-1.530246530E-2,6.719509605E-3,3.481675471E-2
8.395987040E-1,-3.115409613E-2,-1.591333002E-2,7.941238582E-3,3.587304068E-2
8.420437560E-1,-3.054323420E-2,-1.652419381E-2,8.552104235E-3,3.576418073E-2
8.444879750E-1,-2.993236855E-2,-1.713505760E-2,9.162968025E-3,3.568636811E-2
8.469330270E-1,-3.054323420E-2,-1.591333002E-2,8.552104235E-3,3.548607776E-2
8.493789130E-1,-3.115409613E-2,-1.530246530E-2,7.941238582E-3,3.560626939E-2
8.518239650E-1,-3.115409613E-2,-1.469159964E-2,8.552104235E-3,3.549027039E-2
8.542681830E-1,-3.237582743E-2,-1.591333002E-2,7.330374327E-3,3.681253403E-2
8.567132360E-1,-3.420842066E-2,-1.652419381E-2,6.719509605E-3,3.858000563E-2
8.591591210E-1,-3.420842066E-2,-1.591333002E-2,3.665185999E-3,3.790624889E-2
8.616041730E-1,-3.420842066E-2,-1.591333002E-2,1.832591835E-3,3.777311887E-2
8.640483920E-1,-3.481928632E-2,-1.774592325E-2,-6.108670495E-4,3.908546597E-2
8.664934440E-1,-3.665187955E-2,-1.469159964E-2,-3.054325469E-3,3.960470021E-2
8.689393290E-1,-3.604101390E-2,-1.469159964E-2,-4.886920564E-3,3.922600892E-2
8.713843810E-1,-3.848447651E-2,-1.591333002E-2,-7.330379449E-3,4.228502651E-2
8.738286000E-1,-3.909533843E-2,-1.591333002E-2,-1.160643157E-2,4.377657836E-2
8.762736520E-1,-3.909533843E-2,-1.591333002E-2,-1.404989045E-2,4.448684054E-2
8.787195380E-1,-4.092793167E-2,-1.591333002E-2,-1.588248461E-2,4.669671274E-2
8.811645900E-1,-4.276052862E-2,-1.530246530E-2,-1.710421592E-2,4.853022207E-2
8.836088080E-1,-4.398225620E-2,-1.713505760E-2,-1.954767480E-2,5.108973136E-2
8.860538610E-1,-4.398225620E-2,-1.530246530E-2,-2.199113369E-2,5.149965307E-2
8.884997460E-1,-4.276052862E-2,-1.469159964E-2,-2.260199562E-2,5.054855205E-2
8.909447980E-1,-4.153879732E-2,-1.469159964E-2,-2.504545450E-2,5.068125466E-2
8.933890170E-1,-4.214966297E-2,-1.530246530E-2,-2.565632015E-2,5.166242635E-2
8.958340690E-1,-4.153879732E-2,-1.408073585E-2,-2.687805146E-2,5.144092199E-2
8.982799020E-1,-4.214966297E-2,-1.163727697E-2,-2.565632015E-2,5.069780141E-2
9.007250060E-1,-4.214966297E-2,-9.804681875E-3,-2.565632015E-2,5.030877298E-2
9.031692250E-1,-4.153879732E-2,-9.193818085E-3,-2.443459257E-2,4.906166821E-2
9.056142770E-1,-4.153879732E-2,-7.972088642E-3,-2.504545450E-2,4.915588135E-2
9.080601110E-1,-4.214966297E-2,-7.361222990E-3,-2.504545450E-2,4.957879066E-2
9.105051630E-1,-4.031706974E-2,-6.139495410E-3,-2.565632015E-2,4.818097425E-2
9.129494330E-1,-4.092793167E-2,-4.306900315E-3,-2.504545450E-2,4.817592523E-2
9.153944860E-1,-4.031706974E-2,-2.474304987E-3,-2.321286127E-2,4.658782272E-2
9.178403190E-1,-3.970620409E-2,-6.417118129E-4,-2.199113369E-2,4.539388062E-2
9.202853710E-1,-3.970620409E-2,-3.084616037E-5,-2.076940238E-2,4.481017373E-2
9.227296420E-1,-4.031706974E-2,1.801747130E-3,-1.954767480E-2,4.484221220E-2
9.251746940E-1,-3.848447651E-2,6.688664667E-3,-1.954767480E-2,4.367956911E-2
9.276205270E-1,-3.787361085E-2,8.521257900E-3,-1.649335027E-2,4.217881978E-2
9.300655790E-1,-3.665187955E-2,1.096471678E-2,-1.527161989E-2,4.119232529E-2
9.325098500E-1,-3.726274520E-2,1.401904132E-2,-1.527161989E-2,4.264115470E-2
9.349549020E-1,-3.665187955E-2,1.646250114E-2,-1.404989045E-2,4.256493439E-2
9.374007360E-1,-3.665187955E-2,1.768423244E-2,-1.282816101E-2,4.266912310E-2
9.398457880E-1,-3.726274520E-2,2.012768760E-2,-1.221729722E-2,4.407832052E-2
9.422900580E-1,-3.787361085E-2,1.890596002E-2,-1.099556778E-2,4.373497724E-2
9.447351110E-1,-3.787361085E-2,2.012768760E-2,-7.941243239E-3,4.361877522E-2
9.471809440E-1,-3.726274520E-2,1.646250114E-2,-6.719513796E-3,4.128774624E-2
9.496259960E-1,-3.726274520E-2,1.462990697E-2,-7.330379449E-3,4.069743015E-2
9.520702670E-1,-3.726274520E-2,1.218644809E-2,-6.108650006E-3,3.967791958E-2
9.545153190E-1,-3.726274520E-2,1.096471678E-2,-6.719513796E-3,3.941939954E-2
9.569611520E-1,-3.726274520E-2,8.521257900E-3,-6.719513796E-3,3.881077018E-2
9.594062040E-1,-3.726274520E-2,6.077799015E-3,-7.330379449E-3,3.846019090E-2
9.618504750E-1,-3.543015197E-2,4.856071435E-3,-6.719513796E-3,3.638720880E-2
9.642955270E-1,-3.420842066E-2,3.634340363E-3,-7.941243239E-3,3.530563437E-2
9.667413610E-1,-3.237582743E-2,1.801747130E-3,-9.162972681E-3,3.369570541E-2
9.691864130E-1,-3.359755874E-2,-6.417118129E-4,-1.038470212E-2,3.517171854E-2
9.716306830E-1,-3.115409613E-2,-3.085170640E-3,-1.282816101E-2,3.383279028E-2
9.740757360E-1,-3.237582743E-2,-4.306900315E-3,-1.404989045E-2,3.555478890E-2
9.765215690E-1,-3.115409613E-2,-5.528629757E-3,-1.527161989E-2,3.513354276E-2
9.789666210E-1,-3.115409613E-2,-6.139495410E-3,-1.649335027E-2,3.578130395E-2
9.814108920E-1,-3.176496178E-2,-7.972088642E-3,-1.771507785E-2,3.723427154E-2
9.838559440E-1,-3.176496178E-2,-1.041554753E-2,-2.015853673E-2,3.903668826E-2
9.863017770E-1,-3.054323420E-2,-1.285900641E-2,-2.199113369E-2,3.977251768E-2
9.887468290E-1,-3.115409613E-2,-1.408073585E-2,-2.199113369E-2,4.065039715E-2
9.911911000E-1,-3.054323420E-2,-1.530246530E-2,-2.504545450E-2,4.235952538E-2
9.936361520E-1,-3.054323420E-2,-1.896765269E-2,-2.504545450E-2,4.381707196E-2
9.960819860E-1,-3.115409613E-2,-1.896765269E-2,-2.443459257E-2,4.390215107E-2
9.985270380E-1,-3.054323420E-2,-1.957851648E-2,-2.321286127E-2,4.307022627E-2
1.000971308E0,-3.115409613E-2,-2.202197537E-2,-2.321286127E-2,4.465850460E-2
1.003416361E0,-2.993236855E-2,-2.324370667E-2,-2.260199562E-2,4.412557980E-2
1.005862194E0,-3.176496178E-2,-2.324370667E-2,-2.199113369E-2,4.508761091E-2
1.008307246E0,-3.176496178E-2,-2.324370667E-2,-2.015853673E-2,4.422272380E-2
1.010751517E0,-2.932150289E-2,-2.385457046E-2,-1.893680915E-2,4.227758040E-2
1.013196569E0,-2.932150289E-2,-2.324370667E-2,-1.771507785E-2,4.139860402E-2
1.015642402E0,-2.993236855E-2,-2.507629991E-2,-1.466075610E-2,4.170977431E-2
1.018087454E0,-2.993236855E-2,-2.385457046E-2,-1.404989045E-2,4.077237595E-2
1.020531725E0,-2.932150289E-2,-2.385457046E-2,-1.099556778E-2,3.936614757E-2
1.022976777E0,-3.054323420E-2,-2.141111158E-2,-1.038470212E-2,3.871907660E-2
1.025422611E0,-3.054323420E-2,-2.202197537E-2,-6.719513796E-3,3.824929307E-2
1.027867663E0,-3.115409613E-2,-2.202197537E-2,-6.108650006E-3,3.863755569E-2
1.030311933E0,-3.115409613E-2,-1.957851648E-2,-5.497784354E-3,3.720378537E-2
1.032756986E0,-3.115409613E-2,-1.835678890E-2,-3.665191121E-3,3.634533024E-2
1.035202819E0,-3.115409613E-2,-1.652419381E-2,-1.832596492E-3,3.531267614E-2
1.037647871E0,-3.176496178E-2,-1.408073585E-2,-1.221731771E-3,3.476740640E-2
1.040092142E0,-3.176496178E-2,-1.285900641E-2,-6.108670495E-4,3.427448032E-2
1.042537194E0,-3.237582743E-2,-9.193818085E-3,6.108623929E-4,3.366145638E-2
1.044983027E0,-3.237582743E-2,-7.972088642E-3,1.221727114E-3,3.336526662E-2
1.047428079E0,-3.176496178E-2,-4.306900315E-3,1.221727114E-3,3.207888409E-2
1.049872350E0,-3.176496178E-2,5.800157669E-4,2.443456557E-3,3.186408158E-2
1.052317402E0,-3.237582743E-2,4.856071435E-3,2.443456557E-3,3.282904372E-2
1.054763236E0,-3.237582743E-2,7.910395972E-3,6.108623929E-4,3.333379245E-2
1.057208288E0,-3.298669308E-2,9.742989205E-3,-6.108670495E-4,3.440088542E-2
1.059652558E0,-3.298669308E-2,1.218644809E-2,-1.832596492E-3,3.521348957E-2
1.062097611E0,-3.298669308E-2,1.768423244E-2,-2.443461679E-3,3.750765925E-2
1.064543444E0,-3.359755874E-2,1.951682568E-2,-6.108650006E-3,3.933215024E-2
1.066988496E0,-3.420842066E-2,2.379287779E-2,-8.552108891E-3,4.253769675E-2
1.069432767E0,-3.543015197E-2,2.562547103E-2,-9.773838334E-3,4.480500362E-2
1.071877819E0,-3.543015197E-2,3.051238880E-2,-1.099556778E-2,4.803336392E-2
1.074323652E0,-3.543015197E-2,3.417757526E-2,-1.221729722E-2,5.072144192E-2
1.076768704E0,-3.481928632E-2,3.601017222E-2,-1.404989045E-2,5.202417346E-2
1.079212975E0,-3.543015197E-2,4.150795564E-2,-1.527161989E-2,5.666946642E-2
1.081658027E0,-3.604101390E-2,4.639487341E-2,-1.710421592E-2,6.118817830E-2
1.084103861E0,-3.604101390E-2,4.944919422E-2,-1.710421592E-2,6.353527913E-2
1.086548913E0,-3.726274520E-2,5.372524634E-2,-1.771507785E-2,6.774022629E-2
1.088993183E0,-3.543015197E-2,5.677957460E-2,-1.710421592E-2,6.907799912E-2
1.091438236E0,-3.543015197E-2,6.044476107E-2,-1.588248461E-2,7.184092237E-2
1.093884069E0,-3.726274520E-2,6.349908561E-2,-1.466075610E-2,7.507052566E-2
1.096329121E0,-4.031706974E-2,6.716427952E-2,-1.527161989E-2,7.981058157E-2
1.098773392E0,-4.092793167E-2,6.960772723E-2,-1.343902666E-2,8.185926165E-2
1.101218444E0,-4.153879732E-2,7.082945853E-2,-1.282816101E-2,8.310743405E-2
1.103664277E0,-4.153879732E-2,7.021860033E-2,-1.099556778E-2,8.232269448E-2
1.106109329E0,-4.214966297E-2,7.082945853E-2,-1.038470212E-2,8.307375231E-2
1.108553600E0,-4.398225620E-2,6.960772723E-2,-9.162972681E-3,8.284705559E-2
1.110998652E0,-4.337139428E-2,6.899686903E-2,-8.552108891E-3,8.194378771E-2
1.113444486E0,-4.031706974E-2,6.716427952E-2,-7.330379449E-3,7.867808474E-2
1.115889538E0,-3.970620409E-2,6.716427952E-2,-6.108650006E-3,7.826198753E-2
1.118333808E0,-3.909533843E-2,6.777513772E-2,-5.497784354E-3,7.843558130E-2
1.120778861E0,-3.848447651E-2,6.716427952E-2,-4.886920564E-3,7.756273182E-2
1.123224694E0,-3.726274520E-2,6.899686903E-2,-3.665191121E-3,7.850167986E-2
1.125669746E0,-3.726274520E-2,7.205118984E-2,-1.832596492E-3,8.113719583E-2
1.128114017E0,-3.726274520E-2,7.693811506E-2,6.108623929E-4,8.548894011E-2
1.130559069E0,-3.665187955E-2,7.999243587E-2,6.108644884E-3,8.820127898E-2
1.133004902E0,-3.543015197E-2,8.426848799E-2,8.552104235E-3,9.181291970E-2
1.135449954E0,-3.420842066E-2,8.732280880E-2,1.221729256E-2,9.457669490E-2
1.137894225E0,-3.237582743E-2,9.098800272E-2,1.710420847E-2,9.807938003E-2
1.140339277E0,-2.993236855E-2,9.465318173E-2,2.199112624E-2,1.016797971E-1
1.142785111E0,-2.871064097E-2,9.526403993E-2,2.565631643E-2,1.027510817E-1
1.145230163E0,-2.626718208E-2,9.282059222E-2,2.748890966E-2,1.003058690E-1
1.147674433E0,-2.321285754E-2,8.915539831E-2,2.993236855E-2,9.686830488E-2
1.150119486E0,-1.954766735E-2,8.060329407E-2,3.237582743E-2,8.903480509E-2
1.152565319E0,-1.832594164E-2,7.327292114E-2,3.176496178E-2,8.193762205E-2
1.155010371E0,-1.588248275E-2,6.227735430E-2,2.993236855E-2,7.089900425E-2
1.157454642E0,-1.343902200E-2,5.189265683E-2,2.748890966E-2,6.024197291E-2
1.159899694E0,-1.221729256E-2,4.150795564E-2,2.504545078E-2,4.999447193E-2
1.162345527E0,-1.038469933E-2,2.806892991E-2,2.076939866E-2,3.642903687E-2
1.164790579E0,-9.773833677E-3,1.646250114E-2,1.527161431E-2,2.449007905E-2
1.167234850E0,-9.773833677E-3,5.466933362E-3,8.552104235E-3,1.409090742E-2
1.169679902E0,-8.552104235E-3,-3.085170640E-3,3.054321278E-3,9.590914617E-3
1.172125736E0,-8.552104235E-3,-1.102641318E-2,-4.276054911E-3,1.459468808E-2
1.174570788E0,-9.162969887E-3,-1.469159964E-2,-1.099556778E-2,2.051110987E-2
1.177015058E0,-8.552104235E-3,-1.957851648E-2,-1.832594350E-2,2.814777078E-2
1.179460111E0,-8.552104235E-3,-2.202197537E-2,-2.382372692E-2,3.355109313E-2
1.181905944E0,-9.773833677E-3,-2.202197537E-2,-2.993237227E-2,3.842449913E-2
1.184350996E0,-8.552104235E-3,-2.202197537E-2,-3.420842439E-2,4.157309449E-2
1.186795267E0,-7.941240445E-3,-2.202197537E-2,-3.848448023E-2,4.504537621E-2
1.189240267E0,-8.552104235E-3,-1.957851648E-2,-4.153880477E-2,4.671112390E-2
1.191686152E0,-9.773833677E-3,-1.774592325E-2,-4.337139800E-2,4.786986298E-2
1.194131204E0,-1.038469933E-2,-1.713505760E-2,-4.642572254E-2,5.056480883E-2
1.196575475E0,-1.221729256E-2,-1.408073585E-2,-4.703658447E-2,5.059614252E-2
1.199020527E0,-1.099556312E-2,-9.804681875E-3,-4.581485689E-2,4.812520448E-2
1.201466361E0,-1.282815821E-2,-6.139495410E-3,-4.581485689E-2,4.797140980E-2
1.203911413E0,-1.160642877E-2,-6.417118129E-4,-4.398225993E-2,4.549241883E-2
1.206355683E0,-1.221729256E-2,4.245205782E-3,-4.092793912E-2,4.292295668E-2
1.208800736E0,-1.282815821E-2,1.218644809E-2,-3.848448023E-2,4.235712902E-2
1.211246569E0,-1.282815821E-2,1.890596002E-2,-3.481929004E-2,4.164588727E-2
1.213691621E0,-1.160642877E-2,2.623633668E-2,-3.176496923E-2,4.280266138E-2
1.216135892E0,-9.773833677E-3,3.601017222E-2,-2.932151034E-2,4.745536110E-2
1.218580944E0,-9.773833677E-3,4.150795564E-2,-2.504545450E-2,4.945415046E-2
1.221026777E0,-8.552104235E-3,4.944919422E-2,-2.260199562E-2,5.503827307E-2
1.223471829E0,-6.108645815E-3,5.739044026E-2,-1.954767480E-2,6.093512761E-2
1.225916048E0,-4.886916373E-3,6.288821250E-2,-1.527161989E-2,6.490016639E-2
1.228361100E0,-4.886916373E-3,6.716427952E-2,-1.099556778E-2,6.823360540E-2
1.230806986E0,1.832595561E-3,7.510551065E-2,-6.108650006E-3,7.537580342E-2
1.233252038E0,1.221730839E-3,7.999243587E-2,-2.328306437E-9,8.000176512E-2
1.235696256E0,4.886919167E-3,8.793366700E-2,8.552104235E-3,8.848361576E-2
1.238141308E0,6.108648609E-3,9.282059222E-2,1.343902200E-2,9.398715466E-2
1.240587194E0,7.330378052E-3,1.007618234E-1,2.138026431E-2,1.032656535E-1
1.243032246E0,1.160643063E-2,1.056487486E-1,3.115409985E-2,1.107562425E-1
1.245476465E0,1.160643063E-2,1.080922112E-1,3.909534216E-2,1.155295682E-1
1.247921517E0,1.893680915E-2,1.123682633E-1,4.642571509E-2,1.230470494E-1
1.250367402E0,1.588248461E-2,1.080922112E-1,5.253436416E-2,1.212272199E-1
1.252812454E0,2.321286127E-2,1.050378755E-1,5.986474082E-2,1.231079990E-1
1.255256673E0,2.321286127E-2,9.526403993E-2,6.291906536E-2,1.165027168E-1
1.257701725E0,2.871064469E-2,8.487934619E-2,6.230819970E-2,1.091380606E-1
1.260147611E0,3.115410358E-2,7.082945853E-2,6.230819970E-2,9.934637445E-2
1.262592663E0,3.481929004E-2,5.494697765E-2,5.986474082E-2,8.840441451E-2
1.265036881E0,3.909534588E-2,3.845363483E-2,5.681041628E-2,7.895917616E-2
1.267481933E0,3.726275265E-2,1.951682568E-2,4.886917770E-2,6.447957621E-2
1.269927819E0,4.337139800E-2,6.077799015E-3,4.214966297E-2,6.078331921E-2
1.272372871E0,3.970620781E-2,-1.102641318E-2,3.359755874E-2,5.316917039E-2
1.274817142E0,4.459312558E-2,-1.896765269E-2,2.504545078E-2,5.454899910E-2
1.277262142E0,4.337139800E-2,-2.935235202E-2,1.588248089E-2,5.472560583E-2
1.279708027E0,4.337139800E-2,-3.301754221E-2,9.162968025E-3,5.527382963E-2
1.282153079E0,4.398226365E-2,-3.668272868E-2,6.108623929E-4,5.727508404E-2
1.284597298E0,4.276053235E-2,-3.729359433E-2,-7.941243239E-3,5.729169791E-2
1.287042350E0,4.703658819E-2,-3.546100110E-2,-1.343902666E-2,6.041962153E-2
1.289488236E0,4.337139800E-2,-3.362840414E-2,-1.954767480E-2,5.825855577E-2
1.291933288E0,4.703658819E-2,-2.813062444E-2,-2.321286127E-2,5.951982517E-2
1.294377506E0,4.520399123E-2,-2.446543425E-2,-2.687805146E-2,5.800334427E-2
1.296822611E0,5.192350596E-2,-1.713505760E-2,-2.932151034E-2,6.204362690E-2
1.299268444E0,4.825831577E-2,-1.530246530E-2,-2.932151034E-2,5.850454217E-2
1.301713496E0,5.436696112E-2,-1.102641318E-2,-2.993237227E-2,6.303407935E-2
1.304157715E0,5.436696112E-2,-9.804681875E-3,-2.748891339E-2,6.170525591E-2
1.306602767E0,5.558869243E-2,-9.193818085E-3,-2.382372692E-2,6.117351536E-2
1.309048652E0,5.742128566E-2,-9.804681875E-3,-1.893680915E-2,6.125306992E-2
1.311493704E0,5.681042373E-2,-1.285900641E-2,-1.404989045E-2,5.991809169E-2
1.313937923E0,6.230819970E-2,-1.346987206E-2,-7.330379449E-3,6.416762164E-2
1.316382975E0,5.925387889E-2,-1.652419381E-2,-3.665191121E-3,6.162389772E-2
1.318828861E0,6.414079666E-2,-2.018938214E-2,3.054321278E-3,6.731256811E-2
1.321273913E0,6.108647585E-2,-2.507629991E-2,9.773833677E-3,6.675257428E-2
1.323718131E0,6.230819970E-2,-2.874148823E-2,1.710420847E-2,7.071731643E-2
1.326163183E0,6.414079666E-2,-3.118494712E-2,2.382372320E-2,7.519383293E-2
1.328609069E0,6.475166231E-2,-3.668272868E-2,2.687804401E-2,7.912540430E-2
1.331054121E0,6.597339362E-2,-4.034791887E-2,3.237582743E-2,8.383696932E-2
1.333498340E0,6.658425927E-2,-4.279137775E-2,3.543015197E-2,8.671713361E-2
1.335943392E0,6.658425927E-2,-4.584570229E-2,3.848447651E-2,8.953405460E-2
1.338389277E0,6.719512492E-2,-4.951088876E-2,4.031706974E-2,9.269292870E-2
1.340834329E0,6.475166231E-2,-5.195434764E-2,4.153879732E-2,9.283051058E-2
1.343278548E0,6.597339362E-2,-5.317607522E-2,4.276052862E-2,9.491388966E-2
1.345723600E0,6.536252797E-2,-5.317607522E-2,4.153879732E-2,9.394374232E-2
1.348169486E0,6.536252797E-2,-5.623039976E-2,4.031706974E-2,9.518184717E-2
1.350614538E0,6.414079666E-2,-5.623039976E-2,3.909534216E-2,9.383147357E-2
1.353058756E0,6.414079666E-2,-5.867385864E-2,3.726274520E-2,9.457893880E-2
1.355503808E0,6.475166231E-2,-6.050645560E-2,3.481928632E-2,9.521655130E-2
1.357949694E0,6.291906536E-2,-6.233904883E-2,3.298669308E-2,9.451501317E-2
1.360394746E0,6.475166231E-2,-6.417164207E-2,3.054323420E-2,9.614398875E-2
1.362838965E0,6.352993101E-2,-6.417164207E-2,2.871064097E-2,9.475416974E-2
1.365284017E0,6.414079666E-2,-6.600423902E-2,2.565631643E-2,9.554500478E-2
1.367729902E0,6.414079666E-2,-6.661509722E-2,2.565631643E-2,9.596801315E-2
1.370174954E0,6.414079666E-2,-6.417164207E-2,2.260199189E-2,9.350343031E-2
1.372619173E0,6.352993101E-2,-6.111731753E-2,2.076939866E-2,9.056901543E-2
1.375064225E0,6.230819970E-2,-5.745213106E-2,2.015853301E-2,8.711730923E-2
1.377510111E0,6.291906536E-2,-5.684126541E-2,1.771507412E-2,8.662310367E-2
1.379955163E0,6.108647585E-2,-5.378694087E-2,1.466075052E-2,8.270145190E-2
1.382399381E0,6.230819970E-2,-5.073262006E-2,1.282815635E-2,8.136751246E-2
1.384844433E0,6.291906536E-2,-5.012175441E-2,1.160642691E-2,8.127550797E-2
1.387290319E0,6.414079666E-2,-4.706742987E-2,8.552104235E-3,8.001576868E-2
1.389735371E0,6.291906536E-2,-4.645656422E-2,6.719509605E-3,7.849950926E-2
1.392179590E0,6.291906536E-2,-4.828915745E-2,5.497780163E-3,7.950394392E-2
1.394624642E0,6.291906536E-2,-4.645656422E-2,4.886915442E-3,7.836391444E-2
1.397070527E0,6.352993101E-2,-4.523483664E-2,3.054321278E-3,7.804851990E-2
1.399515579E0,6.291906536E-2,-4.645656422E-2,2.443456557E-3,7.824954712E-2
1.401959798E0,6.230819970E-2,-4.523483664E-2,2.443456557E-3,7.703552866E-2
1.404404850E0,6.291906536E-2,-4.645656422E-2,3.054321278E-3,7.827100372E-2
1.406850736E0,6.169734150E-2,-4.462397099E-2,2.443456557E-3,7.618288006E-2
1.409295788E0,6.291906536E-2,-4.340223968E-2,3.665185999E-3,7.652448486E-2
1.411740006E0,6.352993101E-2,-3.973705322E-2,5.497780163E-3,7.513528545E-2
1.414185058E0,6.230819970E-2,-3.546100110E-2,6.719509605E-3,7.200657025E-2
1.416630944E0,6.169734150E-2,-3.240667656E-2,1.038469747E-2,7.045989338E-2
1.419075996E0,6.352993101E-2,-2.813062444E-2,1.282815635E-2,7.065370309E-2
1.421520215E0,6.230819970E-2,-2.385457046E-2,1.710420847E-2,6.887602072E-2
1.423965267E0,6.352993101E-2,-1.774592325E-2,2.260199189E-2,6.972675214E-2
1.426411152E0,6.291906536E-2,-1.285900641E-2,2.687804401E-2,6.961746965E-2
1.428856204E0,6.169734150E-2,-6.139495410E-3,2.932150289E-2,6.858575569E-2
1.431300423E0,6.291906536E-2,-1.252577407E-3,3.420842439E-2,7.162816509E-2
1.433745475E0,6.108647585E-2,3.634340363E-3,3.726274520E-2,7.164689904E-2
1.436191361E0,6.230819970E-2,6.688664667E-3,4.092793539E-2,7.484748413E-2
1.438636413E0,6.230819970E-2,7.910395972E-3,4.520398751E-2,7.738402032E-2
1.441080631E0,6.169734150E-2,9.742989205E-3,4.764744639E-2,7.856059403E-2
1.443525683E0,6.108647585E-2,1.096471678E-2,5.070177093E-2,8.014020290E-2
1.445971569E0,6.169734150E-2,9.132123552E-3,5.253436416E-2,8.154641039E-2
1.448416621E0,5.986474454E-2,7.910395972E-3,5.192349851E-2,7.963925980E-2
1.450860840E0,5.925387889E-2,6.688664667E-3,5.192349851E-2,7.906838873E-2
1.453305892E0,5.742128566E-2,6.688664667E-3,4.886917770E-2,7.569768035E-2
1.455751777E0,5.497782677E-2,6.077799015E-3,4.581485316E-2,7.182271123E-2
1.458196829E0,5.253436789E-2,6.688664667E-3,4.337139428E-2,6.845199695E-2
1.460641048E0,4.948004335E-2,9.132123552E-3,4.031706974E-2,6.447585969E-2
1.463086100E0,5.009090900E-2,1.157558244E-2,3.726274520E-2,6.349492463E-2
1.465531986E0,4.764745012E-2,1.462990697E-2,3.298669308E-2,5.976985529E-2
1.467977038E0,4.398226365E-2,1.890596002E-2,2.809977531E-2,5.551100984E-2
1.470421256E0,4.398226365E-2,2.440374345E-2,2.443458512E-2,5.591986374E-2
1.472866308E0,4.337139800E-2,3.051238880E-2,2.138026431E-2,5.717691612E-2
1.475312194E0,4.214967042E-2,3.356670961E-2,1.710420847E-2,5.653204983E-2
1.477757246E0,4.153880477E-2,3.723190352E-2,1.221729256E-2,5.710472116E-2
1.480201465E0,4.092793912E-2,4.089708999E-2,7.941238582E-3,5.840146779E-2
1.482646517E0,4.214967042E-2,4.272968695E-2,5.497780163E-3,6.027143975E-2
1.485092402E0,4.214967042E-2,4.578400776E-2,2.443456557E-3,6.227953567E-2
1.487537454E0,4.214967042E-2,4.883832857E-2,-1.221731771E-3,6.452340415E-2
1.489981673E0,4.031707346E-2,5.311438069E-2,-2.443461679E-3,6.672761313E-2
1.492426725E0,3.909534588E-2,5.677957460E-2,-4.886920564E-3,6.911040554E-2
1.494872611E0,3.665188700E-2,6.349908561E-2,-6.719513796E-3,7.362504030E-2
1.497317663E0,3.543015569E-2,7.021860033E-2,-6.108650006E-3,7.888766298E-2
1.499761881E0,3.420842811E-2,7.999243587E-2,-3.665191121E-3,8.707720699E-2
1.502206933E0,3.420842811E-2,8.915539831E-2,-2.443461679E-3,9.552419645E-2
1.504652819E0,3.298669681E-2,9.770750254E-2,6.108623929E-4,1.031273551E-1
1.507097871E0,3.298669681E-2,1.080922112E-1,6.719509605E-3,1.132130739E-1
1.509542090E0,3.543015569E-2,1.154225841E-1,1.160642691E-2,1.212945918E-1
1.511987142E0,3.543015569E-2,1.233638301E-1,1.832593977E-2,1.296524994E-1
1.514433027E0,3.665188700E-2,1.313050538E-1,2.321285754E-2,1.382867121E-1
1.516878079E0,3.604102135E-2,1.374137104E-1,2.932150289E-2,1.450559669E-1
1.519322298E0,3.604102135E-2,1.435223520E-1,3.481928632E-2,1.520197469E-1
1.521767350E0,3.726275265E-2,1.477984041E-1,3.970620409E-2,1.575102017E-1
1.524213236E0,3.665188700E-2,1.551287770E-1,4.337139428E-2,1.651949640E-1
1.526658288E0,3.726275265E-2,1.587939709E-1,4.764744639E-2,1.699244452E-1
1.529102506E0,4.031707346E-2,1.618482918E-1,5.253436416E-2,1.748719399E-1
1.531547558E0,4.276053235E-2,1.661243439E-1,5.497782305E-2,1.801341772E-1
1.533993444E0,4.337139800E-2,1.673460752E-1,5.864301324E-2,1.825507876E-1
1.536438496E0,4.642572254E-2,1.673460752E-1,6.108646840E-2,1.840967496E-1
1.538882715E0,4.948004335E-2,1.649026126E-1,6.291906536E-2,1.833029053E-1
1.541327767E0,5.192350596E-2,1.624591649E-1,6.536252052E-2,1.826507317E-1
1.543773652E0,5.253436789E-2,1.575722396E-1,6.475165486E-2,1.782740792E-1
1.546218704E0,5.375609919E-2,1.514635980E-1,6.475165486E-2,1.732735310E-1
1.548662923E0,5.070177466E-2,1.447440833E-1,6.230819970E-2,1.655410262E-1
1.551107975E0,5.070177466E-2,1.380245686E-1,5.742128193E-2,1.578564383E-1
1.553553861E0,4.825831577E-2,1.288616061E-1,5.131263286E-2,1.468576347E-1
1.555998913E0,4.703658819E-2,1.203094944E-1,4.581485316E-2,1.370613580E-1
1.558443183E0,4.398226365E-2,1.129791215E-1,3.787361085E-2,1.270162659E-1
1.560888183E0,4.092793912E-2,1.044270173E-1,2.809977531E-2,1.156273995E-1
1.563334069E0,3.970620781E-2,9.465318173E-2,1.832593977E-2,1.042671944E-1
1.565779121E0,3.848448023E-2,8.671195060E-2,6.719509605E-3,9.510609552E-2
1.568223340E0,3.665188700E-2,7.999243587E-2,-4.276054911E-3,8.809333268E-2
1.570668444E0,3.787361458E-2,7.205118984E-2,-1.466075610E-2,8.270865981E-2
1.573114277E0,3.604102135E-2,6.716427952E-2,-2.443459257E-2,8.004401900E-2
1.575559329E0,3.543015569E-2,6.227735430E-2,-3.298669681E-2,7.887893862E-2
1.578003548E0,3.359756246E-2,6.044476107E-2,-4.092793912E-2,8.035833214E-2
1.580448652E0,3.237583116E-2,6.044476107E-2,-4.764745012E-2,8.349876099E-2
1.582894486E0,3.054323792E-2,5.861216411E-2,-5.192350224E-2,8.404954045E-2
1.585339538E0,2.748891339E-2,5.861216411E-2,-5.436696112E-2,8.453870476E-2
1.587783756E0,2.382372692E-2,5.800130591E-2,-5.681042001E-2,8.461173248E-2
1.590228861E0,2.138026804E-2,6.105562672E-2,-5.742128566E-2,8.649918764E-2
1.592674694E0,1.649335027E-2,6.044476107E-2,-5.864301696E-2,8.581726622E-2
1.595119746E0,1.404989138E-2,6.288821250E-2,-5.558869243E-2,8.510246439E-2
1.597563965E0,1.160643063E-2,6.227735430E-2,-5.314523354E-2,8.268974506E-2
1.600009069E0,9.162971750E-3,6.472081691E-2,-5.131264031E-2,8.310072953E-2
1.602454902E0,7.330378052E-3,6.716427952E-2,-4.948004335E-2,8.374395247E-2
1.604899954E0,4.886919167E-3,6.655340642E-2,-4.581485689E-2,8.094590166E-2
1.607344225E0,2.443460282E-3,6.838599592E-2,-4.398225993E-2,8.134527722E-2
1.609789277E0,-1.832592767E-3,7.266204804E-2,-4.031707346E-2,8.311797660E-2
1.612235111E0,-6.108645815E-3,7.571638376E-2,-3.848448023E-2,8.515480927E-2
1.614680163E0,-9.773833677E-3,8.121416718E-2,-3.665188700E-2,8.963609538E-2
1.617124433E0,-1.404988766E-2,8.793366700E-2,-3.237583116E-2,9.475190541E-2
1.619569486E0,-1.893680543E-2,1.001509652E-1,-3.054323792E-2,1.064035141E-1
1.622015319E0,-2.443458512E-2,1.135899946E-1,-2.871064469E-2,1.196830687E-1
1.624460371E0,-2.809977531E-2,1.288616061E-1,-2.504545450E-2,1.342467344E-1
1.626904642E0,-3.298669308E-2,1.484092772E-1,-2.321286127E-2,1.537929531E-1
1.629349694E0,-3.665187955E-2,1.691786647E-1,-2.199113369E-2,1.744946728E-1
1.631795527E0,-3.970620409E-2,1.887263358E-1,-1.771507785E-2,1.936699162E-1
1.634240579E0,-4.031706974E-2,2.113283426E-1,-1.466075610E-2,2.156387541E-1
1.636684850E0,-4.153879732E-2,2.296542823E-1,-1.099556778E-2,2.336396019E-1
1.639129902E0,-4.276052862E-2,2.461476326E-1,-7.941243239E-3,2.499603632E-1
1.641575736E0,-4.153879732E-2,2.601975203E-1,-5.497784354E-3,2.635497047E-1
1.644020788E0,-4.031706974E-2,2.705821991E-1,-1.221731771E-3,2.735720841E-1
1.646465058E0,-3.970620409E-2,2.785234451E-1,6.108623929E-4,2.813401238E-1
1.648910111E0,-3.726274520E-2,2.815777659E-1,3.054321278E-3,2.840490791E-1
1.651355944E0,-3.543015197E-2,2.821886539E-1,4.276050720E-3,2.844363140E-1
1.653800996E0,-3.359755874E-2,2.803560495E-1,6.108644884E-3,2.824280900E-1
1.656245267E0,-3.359755874E-2,2.736365497E-1,6.719509605E-3,2.757732929E-1
1.658690319E0,-3.176496178E-2,2.638626993E-1,7.330374327E-3,2.658688986E-1
1.661136152E0,-3.054323420E-2,2.504236698E-1,6.108644884E-3,2.523533616E-1
1.663581204E0,-3.115409613E-2,2.345412076E-1,4.276050720E-3,2.366398959E-1
1.666025475E0,-2.932150289E-2,2.180478573E-1,2.443456557E-3,2.200240648E-1
1.668470527E0,-2.748890966E-2,1.985001713E-1,-3.054325469E-3,2.004177813E-1
1.670916361E0,-2.504545078E-2,1.777307689E-1,-9.162972681E-3,1.797205077E-1
1.673361413E0,-2.199112624E-2,1.557396501E-1,-1.466075610E-2,1.579664079E-1
1.675805683E0,-2.076939866E-2,1.319159269E-1,-2.138026804E-2,1.352416192E-1
1.678250736E0,-1.832594164E-2,1.093139425E-1,-2.993237227E-2,1.148099520E-1
1.680696569E0,-1.771507598E-2,8.549021930E-2,-3.665188700E-2,9.468770951E-2
1.683141621E0,-1.466075145E-2,6.349908561E-2,-4.520399123E-2,7.931249794E-2
1.685585892E0,-1.282815821E-2,4.517314211E-2,-5.131264031E-2,6.955689374E-2
1.688030944E0,-1.221729256E-2,2.623633668E-2,-5.619955808E-2,6.321390613E-2
1.690476777E0,-8.552104235E-3,9.742989205E-3,-6.169733778E-2,6.304463351E-2
1.692921829E0,-6.108645815E-3,-5.528629757E-3,-6.475166231E-2,6.527372422E-2
1.695366100E0,-3.054322209E-3,-1.774592325E-2,-6.658425927E-2,6.897615718E-2
1.697811152E0,-6.108633243E-4,-2.874148823E-2,-6.658425927E-2,7.252523618E-2
1.700256986E0,-1.221728045E-3,-3.790445998E-2,-6.719511747E-2,7.715843776E-2
1.702702038E0,1.221730839E-3,-4.462397099E-2,-6.536252797E-2,7.915207815E-2
1.705146308E0,3.054325003E-3,-5.317607522E-2,-6.352993101E-2,8.290401686E-2
1.707591361E0,4.276054446E-3,-5.989558995E-2,-5.803215131E-2,8.350746627E-2
1.710037194E0,6.108648609E-3,-6.600423902E-2,-5.314523354E-2,8.496052616E-2
1.712482246E0,9.162971750E-3,-7.272375375E-2,-4.886917770E-2,8.809597573E-2
1.714926517E0,1.099556684E-2,-7.944326103E-2,-4.398225993E-2,9.146897508E-2
1.717371569E0,1.466075517E-2,-8.738449961E-2,-3.848448023E-2,9.660250376E-2
1.719817402E0,1.710421406E-2,-9.288228303E-2,-3.359756246E-2,1.002420513E-1
1.722262454E0,1.832594350E-2,-9.715833515E-2,-3.054323792E-2,1.034817456E-1
1.724706725E0,2.076940238E-2,-1.038778499E-1,-2.626718581E-2,1.091418381E-1
1.727151777E0,2.382372692E-2,-1.087647602E-1,-2.321286127E-2,1.137373288E-1
1.729597611E0,2.687805146E-2,-1.154842749E-1,-2.015853673E-2,1.202722495E-1
1.732042663E0,2.993237227E-2,-1.270907223E-1,-2.076940238E-2,1.322095560E-1
1.734486933E0,3.298669681E-2,-1.380862743E-1,-2.076940238E-2,1.434827843E-1
1.736931986E0,3.481929004E-2,-1.503035724E-1,-2.199113369E-2,1.558433727E-1
1.739377819E0,3.726275265E-2,-1.625208706E-1,-2.321286127E-2,1.683460217E-1
1.741822871E0,3.787361458E-2,-1.765707582E-1,-2.626718581E-2,1.824872828E-1
1.744267142E0,3.787361458E-2,-1.918423772E-1,-2.932151034E-2,1.977312806E-1
1.746712194E0,3.604102135E-2,-2.022270858E-1,-3.115410358E-2,2.077626714E-1
1.749158027E0,3.176496923E-2,-2.132226527E-1,-3.298669681E-2,2.180849262E-1
1.751603079E0,2.932151034E-2,-2.211638838E-1,-3.420842439E-2,2.257065147E-1
1.754047350E0,2.504545450E-2,-2.272725403E-1,-3.481929004E-2,2.312843820E-1
1.756492402E0,2.199113369E-2,-2.303268611E-1,-3.481929004E-2,2.339796057E-1
1.758938236E0,1.893680915E-2,-2.297159880E-1,-3.298669681E-2,2.328436387E-1
1.761383288E0,1.466075517E-2,-2.284942567E-1,-2.932151034E-2,2.308339535E-1
1.763827558E0,1.160643063E-2,-2.260508090E-1,-2.748891339E-2,2.280116617E-1
1.766272611E0,1.221729629E-2,-2.205530256E-1,-2.565632015E-2,2.223761367E-1
1.768718444E0,1.099556684E-2,-2.181095630E-1,-2.138026804E-2,2.194306264E-1
1.771163548E0,1.099556684E-2,-2.156661004E-1,-1.893680915E-2,2.167749342E-1
1.773607767E0,1.038470119E-2,-2.132226527E-1,-1.466075610E-2,2.139782218E-1
1.776052819E0,1.282816008E-2,-2.126117796E-1,-1.099556778E-2,2.132820504E-1
1.778498652E0,1.099556684E-2,-2.107791901E-1,-8.552108891E-3,2.112389832E-1
1.780943756E0,1.221729629E-2,-2.113900483E-1,-4.276054911E-3,2.117859756E-1
1.783387975E0,1.343902573E-2,-2.101683170E-1,-4.276054911E-3,2.106409588E-1
1.785833027E0,1.221729629E-2,-2.089465857E-1,-1.832596492E-3,2.093114818E-1
1.788278913E0,1.099556684E-2,-2.052814066E-1,-6.108670495E-4,2.055765832E-1
1.790723965E0,1.221729629E-2,-2.016162127E-1,6.108623929E-4,2.019869617E-1
1.793168183E0,1.038470119E-2,-1.948966980E-1,-6.108670495E-4,1.951741224E-1
1.795613236E0,9.773837402E-3,-1.875663251E-1,-2.328306437E-9,1.878208034E-1
1.798059121E0,9.162971750E-3,-1.747381687E-1,-1.832596492E-3,1.749878455E-1
1.800504173E0,9.773837402E-3,-1.619100124E-1,-3.054325469E-3,1.622335012E-1
1.802948392E0,1.099556684E-2,-1.490818411E-1,-5.497784354E-3,1.495878453E-1
1.805393444E0,1.160643063E-2,-1.307559013E-1,-6.719513796E-3,1.314418762E-1
1.807839329E0,1.221729629E-2,-1.130408272E-1,-9.162972681E-3,1.140677475E-1
1.810284381E0,1.282816008E-2,-9.532574564E-2,-1.099556778E-2,9.681147651E-2
1.812728652E0,1.343902573E-2,-7.699980587E-2,-1.404989045E-2,7.941647775E-2
1.815173704E0,1.343902573E-2,-5.928472430E-2,-1.404989045E-2,6.239138858E-2
1.817619538E0,1.404989138E-2,-4.218051210E-2,-1.588248461E-2,4.721068064E-2
1.820064590E0,1.466075517E-2,-2.629802935E-2,-1.832594350E-2,3.524718847E-2
1.822508808E0,1.404989138E-2,-1.285900641E-2,-1.954767480E-2,2.729221655E-2
1.824953913E0,1.404989138E-2,-1.252577407E-3,-1.954767480E-2,2.410560077E-2
1.827399746E0,1.466075517E-2,9.132123552E-3,-1.832594350E-2,2.518280421E-2
1.829844798E0,1.466075517E-2,1.707336679E-2,-1.893680915E-2,2.941156808E-2
1.832289069E0,1.466075517E-2,2.379287779E-2,-1.954767480E-2,3.410499034E-2
1.834734121E0,1.527161896E-2,2.684720233E-2,-1.710421592E-2,3.530649828E-2
1.837179954E0,1.466075517E-2,2.867979556E-2,-1.649335027E-2,3.618700069E-2
1.839625006E0,1.588248461E-2,2.929066122E-2,-1.588248461E-2,3.691137317E-2
1.842069277E0,1.527161896E-2,2.929066122E-2,-1.466075610E-2,3.614004634E-2
1.844514329E0,1.527161896E-2,2.745806798E-2,-1.343902666E-2,3.417272715E-2
1.846960163E0,1.588248461E-2,2.501460537E-2,-1.221729722E-2,3.205068097E-2
1.849405215E0,1.404989138E-2,2.440374345E-2,-1.221729722E-2,3.069534970E-2
1.851849486E0,1.404989138E-2,2.318201214E-2,-1.099556778E-2,2.925248101E-2
1.854294538E0,1.221729629E-2,2.318201214E-2,-8.552108891E-3,2.756458928E-2
1.856740371E0,1.099556684E-2,2.440374345E-2,-9.162972681E-3,2.829143426E-2
1.859185423E0,8.552107960E-3,2.623633668E-2,-8.552108891E-3,2.888983349E-2
1.861629694E0,6.719513331E-3,2.990152314E-2,-7.941243239E-3,3.165937918E-2
1.864074746E0,3.665189724E-3,3.601017222E-2,-7.941243239E-3,3.705711083E-2
1.866520579E0,3.054325003E-3,4.150795564E-2,-5.497784354E-3,4.198172121E-2
1.868965631E0,2.443460282E-3,4.944919422E-2,-5.497784354E-3,4.981384286E-2
1.871409902E0,6.108661182E-4,5.800130591E-2,-4.886920564E-3,5.821002179E-2
1.873854954E0,1.396983862E-9,6.716427952E-2,-6.108650006E-3,6.744150094E-2
1.876300788E0,1.396983862E-9,7.632724196E-2,-7.330379449E-3,7.667843457E-2
1.878745840E0,-1.221728045E-3,8.549021930E-2,-7.941243239E-3,8.586695266E-2
1.881190111E0,-3.054322209E-3,9.282059222E-2,-7.330379449E-3,9.315967844E-2
1.883635163E0,-4.276051652E-3,1.019835547E-1,-7.941243239E-3,1.023816067E-1
1.886080996E0,-6.108645815E-3,1.093139425E-1,-9.162972681E-3,1.098672547E-1
1.888526048E0,-7.330375258E-3,1.160334423E-1,-9.773838334E-3,1.166748561E-1
1.890970319E0,-7.941240445E-3,1.221420988E-1,-1.221729722E-2,1.230082028E-1
1.893415371E0,-7.941240445E-3,1.239746884E-1,-1.466075610E-2,1.250908647E-1
1.895861204E0,-7.330375258E-3,1.288616061E-1,-1.588248461E-2,1.300434591E-1
1.898306256E0,-7.330375258E-3,1.294724643E-1,-1.893680915E-2,1.310551646E-1
1.900750527E0,-7.330375258E-3,1.288616061E-1,-2.015853673E-2,1.306346605E-1
1.903195579E0,-6.108645815E-3,1.264181435E-1,-2.076940238E-2,1.282584525E-1
1.905641413E0,-4.886916373E-3,1.245855466E-1,-2.260199562E-2,1.267134191E-1
1.908086465E0,-4.276051652E-3,1.215312257E-1,-2.443459257E-2,1.240369814E-1
1.910530736E0,-6.108633243E-4,1.190877631E-1,-2.504545450E-2,1.216944669E-1
1.912975788E0,6.108661182E-4,1.148117110E-1,-2.871064469E-2,1.183486513E-1
1.915421621E0,1.832595561E-3,1.111465320E-1,-2.687805146E-2,1.143649406E-1
1.917866673E0,4.276054446E-3,1.080922112E-1,-2.809977904E-2,1.117667587E-1
1.920310944E0,7.330378052E-3,1.025944278E-1,-2.748891339E-2,1.064659167E-1
1.922755996E0,8.552107960E-3,9.892923385E-2,-2.748891339E-2,1.030328696E-1
1.925201829E0,9.773837402E-3,9.465318173E-2,-2.809977904E-2,9.921869930E-2
1.927646881E0,1.221729629E-2,8.976627141E-2,-2.993237227E-2,9.541065308E-2
1.930091152E0,1.466075517E-2,8.365761489E-2,-2.993237227E-2,9.005265782E-2
1.932536204E0,1.649335027E-2,7.938156277E-2,-2.932151034E-2,8.621608945E-2
1.934982090E0,1.954767480E-2,7.388377935E-2,-2.932151034E-2,8.185765334E-2
1.937427142E0,2.076940238E-2,6.777513772E-2,-3.054323792E-2,7.718631194E-2
1.939871361E0,2.260199562E-2,6.166649610E-2,-3.054323792E-2,7.243270207E-2
1.942316413E0,2.565632015E-2,5.677957460E-2,-3.054323792E-2,6.939060627E-2
1.944762298E0,2.565632015E-2,4.944919422E-2,-3.176496923E-2,6.412864292E-2
1.947207350E0,2.565632015E-2,4.334054515E-2,-3.237583116E-2,5.987356730E-2
1.949651569E0,2.871064469E-2,3.601017222E-2,-3.298669681E-2,5.664941119E-2
1.952096621E0,2.932151034E-2,3.112325445E-2,-3.298669681E-2,5.400490814E-2
1.954542506E0,2.932151034E-2,2.379287779E-2,-3.420842439E-2,5.095162708E-2
1.956987558E0,2.871064469E-2,1.768423244E-2,-3.420842439E-2,4.803383698E-2
1.959431829E0,2.932151034E-2,1.096471678E-2,-3.481929004E-2,4.682263280E-2
1.961876829E0,2.993237227E-2,4.856071435E-3,-3.298669681E-2,4.480681317E-2
1.964322715E0,2.932151034E-2,5.800157669E-4,-3.420842439E-2,4.505889131E-2
1.966767767E0,3.054323792E-2,-3.085170640E-3,-3.359756246E-2,4.551048082E-2
1.969212038E0,2.993237227E-2,-6.139495410E-3,-3.420842439E-2,4.586781674E-2
1.971657090E0,2.993237227E-2,-9.193818085E-3,-3.298669681E-2,4.548181359E-2
1.974102923E0,2.993237227E-2,-1.224814076E-2,-3.237583116E-2,4.576197444E-2
1.976547975E0,3.054323792E-2,-1.530246530E-2,-3.176496923E-2,4.664834506E-2
1.978992246E0,3.054323792E-2,-1.774592325E-2,-3.054323792E-2,4.669792884E-2
1.981437298E0,3.176496923E-2,-2.080024779E-2,-2.809977904E-2,4.723622720E-2
1.983883131E0,3.054323792E-2,-2.446543425E-2,-2.687805146E-2,4.747500928E-2
1.986328183E0,3.054323792E-2,-2.874148823E-2,-2.565632015E-2,4.916512273E-2
1.988772454E0,3.054323792E-2,-3.423926979E-2,-2.443459257E-2,5.198332707E-2
1.991217506E0,3.054323792E-2,-3.851532191E-2,-2.199113369E-2,5.385099224E-2
1.993663340E0,2.993237227E-2,-4.401310533E-2,-1.954767480E-2,5.670283892E-2
1.996108392E0,2.932151034E-2,-5.195434764E-2,-1.710421592E-2,6.206093304E-2
1.998552663E0,2.809977904E-2,-5.745213106E-2,-1.527161989E-2,6.575383882E-2
2.000997715E0,2.626718581E-2,-6.294991076E-2,-1.343902666E-2,6.952167829E-2
2.003443548E0,2.565632015E-2,-6.722597033E-2,-1.099556778E-2,7.279066122E-2
2.005888600E0,2.382372692E-2,-7.150202245E-2,-9.773838334E-3,7.599761242E-2
2.008332871E0,2.260199562E-2,-7.455634326E-2,-6.719513796E-3,7.819623003E-2
2.010777923E0,2.260199562E-2,-7.822152972E-2,-5.497784354E-3,8.160688421E-2
2.013223756E0,2.076940238E-2,-8.005412668E-2,-2.443461679E-3,8.274056912E-2
2.015668808E0,2.076940238E-2,-8.249758929E-2,1.221727114E-3,8.508062606E-2
2.018113079E0,1.954767480E-2,-8.249758929E-2,3.665185999E-3,8.486104770E-2
2.020558131E0,1.710421406E-2,-8.310844749E-2,4.276050720E-3,8.495794720E-2
2.023003965E0,1.588248461E-2,-8.555191010E-2,6.719509605E-3,8.727275892E-2
2.025449017E0,1.404989138E-2,-8.371931314E-2,8.552104235E-3,8.531975931E-2
2.027893288E0,1.343902573E-2,-8.249758929E-2,1.038469747E-2,8.422767712E-2
2.030338340E0,1.343902573E-2,-8.249758929E-2,1.160642691E-2,8.438701794E-2
2.032784173E0,1.160643063E-2,-8.188671619E-2,1.160642691E-2,8.351558337E-2
2.035229225E0,9.773837402E-3,-8.005412668E-2,1.099556312E-2,8.139467737E-2
2.037673496E0,1.038470119E-2,-7.883239537E-2,1.160642691E-2,8.035606838E-2
2.040118548E0,9.773837402E-3,-7.577807456E-2,1.160642691E-2,7.728229828E-2
2.042564381E0,1.099556684E-2,-7.333461195E-2,1.099556312E-2,7.496512662E-2
2.045009433E0,9.773837402E-3,-6.722597033E-2,1.160642691E-2,6.891711057E-2
2.047453704E0,9.773837402E-3,-6.417164207E-2,1.099556312E-2,6.583638774E-2
2.049898756E0,7.941242307E-3,-6.294991076E-2,1.038469747E-2,6.429305200E-2
2.052344642E0,6.719513331E-3,-5.928472430E-2,9.162968025E-3,6.036381679E-2
2.054789694E0,5.497783888E-3,-5.745213106E-2,7.330374327E-3,5.817823802E-2
2.057233913E0,4.276054446E-3,-5.378694087E-2,7.330374327E-3,5.445230976E-2
2.059678965E0,2.443460282E-3,-5.012175441E-2,6.108644884E-3,5.055171911E-2
2.062124850E0,6.108661182E-4,-4.828915745E-2,6.108644884E-3,4.867783301E-2
2.064569902E0,-1.832592767E-3,-4.462397099E-2,6.108644884E-3,4.507740815E-2
2.067014173E0,-3.665186930E-3,-4.034791887E-2,4.276050720E-3,4.073908151E-2
2.069459173E0,-5.497781094E-3,-3.790445998E-2,5.497780163E-3,3.869365930E-2
2.071905058E0,-7.330375258E-3,-3.301754221E-2,4.886915442E-3,3.417271481E-2
2.074350111E0,-8.552104235E-3,-2.874148823E-2,4.886915442E-3,3.038245506E-2
2.076794329E0,-9.162969887E-3,-2.507629991E-2,4.886915442E-3,2.714153232E-2
2.079239381E0,-1.099556312E-2,-2.018938214E-2,3.054321278E-3,2.319143027E-2
2.081685267E0,-1.282815821E-2,-1.469159964E-2,2.443456557E-3,1.965642957E-2
2.084130319E0,-1.466075145E-2,-9.804681875E-3,3.054321278E-3,1.789967313E-2
2.086574590E0,-1.527161710E-2,-6.139495410E-3,6.108623929E-4,1.647084836E-2
2.089019642E0,-1.649334654E-2,-1.863441197E-3,1.832591835E-3,1.669914028E-2
2.091465475E0,-1.893680543E-2,1.801747130E-3,6.108623929E-4,1.903213192E-2
2.093910527E0,-2.076939866E-2,3.023478435E-3,6.108623929E-4,2.099720208E-2
2.096354798E0,-2.199112624E-2,6.688664667E-3,2.443456557E-3,2.311532713E-2
2.098799850E0,-2.382372320E-2,9.742989205E-3,1.221727114E-3,2.576796932E-2
2.101245683E0,-2.565631643E-2,1.157558244E-2,1.221727114E-3,2.817327277E-2
2.103690736E0,-2.748890966E-2,1.462990697E-2,2.443456557E-3,3.123531355E-2
2.106135006E0,-2.993236855E-2,1.585163549E-2,4.276050720E-3,3.413950269E-2
2.108580058E0,-3.054323420E-2,1.829509437E-2,4.886915442E-3,3.593718932E-2
2.111025892E0,-3.298669308E-2,2.012768760E-2,6.719509605E-3,3.922241117E-2
2.113470944E0,-3.543015197E-2,2.196028456E-2,8.552104235E-3,4.255218271E-2
2.115915215E0,-3.726274520E-2,2.501460537E-2,9.162968025E-3,4.580614200E-2
2.118360267E0,-3.665187955E-2,2.684720233E-2,9.773833677E-3,4.647214620E-2
2.120806100E0,-3.909533843E-2,2.867979556E-2,1.282815635E-2,5.015513689E-2
2.123251152E0,-3.970620409E-2,3.051238880E-2,1.282815635E-2,5.169284388E-2
2.125695423E0,-3.970620409E-2,3.295585141E-2,1.404988673E-2,5.347962324E-2
2.128140475E0,-3.970620409E-2,3.478844091E-2,1.466075052E-2,5.478828223E-2
2.130586308E0,-3.970620409E-2,3.784276918E-2,1.588248089E-2,5.710438706E-2
2.133031361E0,-4.031706974E-2,3.967535868E-2,1.588248089E-2,5.875247568E-2
2.135475631E0,-4.092793167E-2,3.967535868E-2,1.649334654E-2,5.934020692E-2
2.137920683E0,-4.092793167E-2,4.150795564E-2,1.404988673E-2,5.996169852E-2
2.140366517E0,-4.092793167E-2,4.028622434E-2,1.343902200E-2,5.898035922E-2
2.142811569E0,-4.092793167E-2,3.906449303E-2,1.160642691E-2,5.775672560E-2
2.145255840E0,-4.092793167E-2,3.784276918E-2,9.773833677E-3,5.659238990E-2
2.147700892E0,-4.092793167E-2,3.601017222E-2,9.773833677E-3,5.538371528E-2
2.150146777E0,-3.970620409E-2,3.234498575E-2,9.162968025E-3,5.202634649E-2
2.152591829E0,-4.031706974E-2,2.929066122E-2,7.941238582E-3,5.046258235E-2
2.155036048E0,-3.909533843E-2,2.684720233E-2,6.719509605E-3,4.789957797E-2
2.157481100E0,-3.909533843E-2,2.257115021E-2,5.497780163E-3,4.547667420E-2
2.159926986E0,-3.848447651E-2,1.646250114E-2,5.497780163E-3,4.221722945E-2
2.162372038E0,-3.787361085E-2,1.157558244E-2,5.497780163E-3,3.998287252E-2
2.164816256E0,-3.848447651E-2,7.910395972E-3,4.276050720E-3,3.952105649E-2
2.167261308E0,-3.726274520E-2,1.801747130E-3,3.665185999E-3,3.748589149E-2
2.169707194E0,-3.787361085E-2,-4.306900315E-3,4.276050720E-3,3.835680382E-2
2.172152246E0,-3.726274520E-2,-1.041554753E-2,4.276050720E-3,3.892660299E-2
2.174596465E0,-3.665187955E-2,-1.346987206E-2,4.276050720E-3,3.928208673E-2
2.177041569E0,-3.543015197E-2,-2.018938214E-2,3.054321278E-3,4.089297859E-2
2.179487402E0,-3.543015197E-2,-2.385457046E-2,-2.328306437E-9,4.271224884E-2
2.181932454E0,-3.481928632E-2,-2.874148823E-2,-2.328306437E-9,4.514926185E-2
2.184376673E0,-3.481928632E-2,-3.179581091E-2,-1.221731771E-3,4.716830418E-2
2.186821777E0,-3.359755874E-2,-3.423926979E-2,-1.832596492E-3,4.800502014E-2
2.189267611E0,-3.176496178E-2,-3.790445998E-2,-1.832596492E-3,4.948857740E-2
2.191712663E0,-3.176496178E-2,-3.851532191E-2,-4.276054911E-3,5.010715981E-2
2.194156933E0,-3.176496178E-2,-3.790445998E-2,-6.108650006E-3,4.983047750E-2
2.196601986E0,-3.054323420E-2,-3.973705322E-2,-6.719513796E-3,5.056752336E-2
2.199047819E0,-2.932150289E-2,-4.156964645E-2,-9.162972681E-3,5.168893601E-2
2.201492871E0,-2.993236855E-2,-4.095878452E-2,-1.099556778E-2,5.190829632E-2
2.203937142E0,-2.932150289E-2,-4.034791887E-2,-1.038470212E-2,5.094651241E-2
2.206382194E0,-2.871064097E-2,-3.912618756E-2,-1.221729722E-2,5.004419856E-2
2.208828027E0,-2.687804401E-2,-3.851532191E-2,-1.160643157E-2,4.837942254E-2
2.211273079E0,-2.443458512E-2,-3.729359433E-2,-1.221729722E-2,4.622903286E-2
2.213717350E0,-2.199112624E-2,-3.607186675E-2,-1.343902666E-2,4.433279420E-2
2.216162402E0,-2.076939866E-2,-3.362840414E-2,-1.404989045E-2,4.194802626E-2
2.218608236E0,-1.954766735E-2,-3.301754221E-2,-1.221729722E-2,4.026824734E-2
2.221053288E0,-1.710421033E-2,-3.118494712E-2,-9.773838334E-3,3.688607940E-2
2.223497558E0,-1.466075145E-2,-2.874148823E-2,-1.099556778E-2,3.408684922E-2
2.225942611E0,-1.221729256E-2,-2.935235202E-2,-8.552108891E-3,3.292356866E-2
2.228388444E0,-1.282815821E-2,-2.935235202E-2,-7.941243239E-3,3.300281134E-2
2.230833496E0,-6.719510537E-3,-2.690889314E-2,-5.497784354E-3,2.827482952E-2
2.233277767E0,-9.773833677E-3,-2.813062444E-2,-3.665191121E-3,3.000489097E-2
2.235722819E0,-4.276051652E-3,-2.385457046E-2,-1.832596492E-3,2.430398238E-2
2.238168652E0,-5.497781094E-3,-2.446543425E-2,6.108623929E-4,2.508298672E-2
2.240613756E0,-3.665186930E-3,-2.263284102E-2,2.443456557E-3,2.305752736E-2
2.243057975E0,-6.108633243E-4,-2.202197537E-2,4.276050720E-3,2.244159448E-2
2.245503027E0,-2.443457488E-3,-2.080024779E-2,6.108644884E-3,2.181596514E-2
2.247948913E0,3.665189724E-3,-1.774592325E-2,7.330374327E-3,1.954701500E-2
2.250393965E0,1.396983862E-9,-1.713505760E-2,8.552104235E-3,1.915068369E-2
2.252838183E0,4.886919167E-3,-1.591333002E-2,1.099556312E-2,1.995039998E-2
2.255283236E0,4.276054446E-3,-1.774592325E-2,1.038469747E-2,2.100105652E-2
2.257729121E0,8.552107960E-3,-1.591333002E-2,1.099556312E-2,2.114887778E-2
2.260174173E0,6.719513331E-3,-1.774592325E-2,1.160642691E-2,2.224362374E-2
2.262618392E0,7.941242307E-3,-1.469159964E-2,1.282815635E-2,2.105868051E-2
2.265063444E0,1.099556684E-2,-1.591333002E-2,1.221729256E-2,2.287791075E-2
2.267509329E0,6.719513331E-3,-1.591333002E-2,1.221729256E-2,2.115769764E-2
2.269954381E0,1.221729629E-2,-1.652419381E-2,1.466075052E-2,2.524378964E-2
2.272398652E0,7.941242307E-3,-1.774592325E-2,1.343902200E-2,2.363447554E-2
2.274843704E0,1.160643063E-2,-1.530246530E-2,1.527161431E-2,2.453766248E-2
2.277289538E0,7.330378052E-3,-1.408073585E-2,1.588248089E-2,2.245561764E-2
2.279734590E0,1.099556684E-2,-1.224814076E-2,1.527161431E-2,2.245309880E-2
2.282178861E0,9.162971750E-3,-1.285900641E-2,1.527161431E-2,2.196670892E-2
2.284623913E0,8.552107960E-3,-9.804681875E-3,1.527161431E-2,2.006221675E-2
2.287069746E0,1.038470119E-2,-4.917764105E-3,1.527161431E-2,1.911147891E-2
2.289514798E0,8.552107960E-3,-6.417118129E-4,1.282815635E-2,1.543087619E-2
2.291959069E0,1.099556684E-2,4.245205782E-3,1.466075052E-2,1.881121655E-2
2.294404121E0,3.665189724E-3,8.521257900E-3,1.343902200E-2,1.632950594E-2
2.296849954E0,7.330378052E-3,1.646250114E-2,1.588248089E-2,2.402085730E-2
2.299295006E0,3.665189724E-3,2.073855326E-2,1.404988673E-2,2.531640819E-2
2.301739277E0,4.886919167E-3,2.929066122E-2,1.282815635E-2,3.234789651E-2
2.304184329E0,1.221730839E-3,3.417757526E-2,1.404988673E-2,3.697294408E-2
2.306630163E0,1.832595561E-3,4.211882129E-2,1.404988673E-2,4.443819113E-2
2.309075215E0,2.443460282E-3,4.944919422E-2,1.404988673E-2,5.146447925E-2
2.311519486E0,-6.108633243E-4,5.494697765E-2,1.343902200E-2,5.656987554E-2
2.313964538E0,3.054325003E-3,6.227735430E-2,1.466075052E-2,6.405259843E-2
2.316410371E0,-2.443457488E-3,6.838599592E-2,1.404988673E-2,6.985709871E-2
2.318855423E0,1.832595561E-3,7.754897326E-2,1.404988673E-2,7.883274052E-2
2.321299694E0,-1.832592767E-3,8.304675668E-2,1.466075052E-2,8.435081385E-2
2.323744746E0,-3.054322209E-3,9.220971912E-2,1.588248089E-2,9.361738291E-2
2.326190579E0,-3.054322209E-3,9.892923385E-2,1.588248089E-2,1.002425827E-1
2.328635683E0,-4.276051652E-3,1.044270173E-1,1.649334654E-2,1.058079252E-1
2.331079902E0,-7.330375258E-3,1.093139425E-1,1.710420847E-2,1.108865473E-1
2.333524954E0,-6.719510537E-3,1.154225841E-1,1.771507412E-2,1.169672971E-1
2.335970788E0,-9.162969887E-3,1.215312257E-1,1.893680543E-2,1.233385643E-1
2.338415892E0,-7.330375258E-3,1.215312257E-1,1.893680543E-2,1.232159723E-1
2.340860111E0,-4.886916373E-3,1.215312257E-1,1.832593977E-2,1.230022799E-1
2.343305163E0,-5.497781094E-3,1.215312257E-1,1.954766735E-2,1.232159719E-1
2.345751048E0,-6.719510537E-3,1.190877631E-1,1.893680543E-2,1.207710634E-1
2.348196100E0,-7.330375258E-3,1.178660467E-1,1.649334654E-2,1.192399675E-1
2.350640319E0,-7.330375258E-3,1.184769049E-1,1.527161431E-2,1.196818015E-1
2.353085371E0,-9.773833677E-3,1.196986362E-1,1.527161431E-2,1.210640886E-1
2.355531256E0,-9.773833677E-3,1.209203675E-1,1.343902200E-2,1.220568328E-1
2.357976308E0,-1.099556312E-2,1.245855466E-1,1.038469747E-2,1.255002102E-1
2.360420579E0,-1.038469933E-2,1.282507330E-1,9.162968025E-3,1.289963274E-1
2.362865631E0,-1.038469933E-2,1.319159269E-1,5.497780163E-3,1.324382095E-1
2.365311465E0,-7.941240445E-3,1.343593746E-1,1.832591835E-3,1.346063269E-1
2.367756517E0,-6.108645815E-3,1.368028373E-1,-1.221731771E-3,1.369446036E-1
2.370200788E0,-3.054322209E-3,1.398571581E-1,-5.497784354E-3,1.399984971E-1
2.372645840E0,-3.054322209E-3,1.392462999E-1,-9.162972681E-3,1.395808761E-1
2.375091673E0,-1.832592767E-3,1.404680312E-1,-1.404989045E-2,1.411808259E-1
2.377536725E0,-2.443457488E-3,1.392462999E-1,-1.527161989E-2,1.401025513E-1
2.379980996E0,-3.054322209E-3,1.374137104E-1,-1.771507785E-2,1.385845614E-1
2.382426048E0,-1.832592767E-3,1.355811059E-1,-2.015853673E-2,1.370837747E-1
2.384871881E0,-3.665186930E-3,1.331376582E-1,-2.138026804E-2,1.348932374E-1
2.387316933E0,-3.054322209E-3,1.313050538E-1,-2.076940238E-2,1.329726067E-1
2.389761204E0,-2.443457488E-3,1.282507330E-1,-2.076940238E-2,1.299445616E-1
2.392206256E0,-4.276051652E-3,1.245855466E-1,-1.893680915E-2,1.260890390E-1
2.394652090E0,-4.886916373E-3,1.215312257E-1,-1.588248461E-2,1.226620320E-1
2.397097142E0,-6.108645815E-3,1.178660467E-1,-1.221729722E-2,1.186548898E-1
2.399541413E0,-4.886916373E-3,1.142008528E-1,-7.330379449E-3,1.145401729E-1
2.401986465E0,-6.108645815E-3,1.087030694E-1,-3.054325469E-3,1.089174079E-1
2.404432298E0,-5.497781094E-3,1.019835547E-1,6.108623929E-4,1.021334625E-1
2.406877350E0,-3.665186930E-3,9.526403993E-2,6.719509605E-3,9.557103489E-2
2.409321621E0,-3.665186930E-3,8.854454011E-2,1.099556312E-2,8.929989690E-2
2.411766673E0,-4.886916373E-3,7.999243587E-2,1.649334654E-2,8.182116003E-2
2.414212558E0,-3.665186930E-3,6.777513772E-2,1.954766735E-2,7.063295398E-2
2.416657611E0,-2.443457488E-3,5.616870895E-2,2.321285754E-2,6.082541496E-2
2.419101829E0,1.396983862E-9,4.211882129E-2,2.687804401E-2,4.996423077E-2
2.421546881E0,2.443460282E-3,2.929066122E-2,3.054323420E-2,4.238870708E-2
2.423992767E0,4.276054446E-3,1.462990697E-2,3.237582743E-2,3.578425662E-2
2.426437819E0,6.108648609E-3,5.800157669E-4,3.298669308E-2,3.355255470E-2
2.428882038E0,7.941242307E-3,-1.346987206E-2,3.298669308E-2,3.650510517E-2
2.431327090E0,8.552107960E-3,-2.507629991E-2,3.359755874E-2,4.278732664E-2
2.433772975E0,7.941242307E-3,-3.729359433E-2,3.298669308E-2,5.041822516E-2
2.436218027E0,7.941242307E-3,-5.012175441E-2,3.054323420E-2,5.922957665E-2
2.438662298E0,8.552107960E-3,-5.989558995E-2,2.809977531E-2,6.670995142E-2
2.441107350E0,9.162971750E-3,-7.028029114E-2,2.565631643E-2,7.537589765E-2
2.443553183E0,9.773837402E-3,-7.883239537E-2,2.015853301E-2,8.195389503E-2
2.445998236E0,1.160643063E-2,-8.616276830E-2,1.588248089E-2,8.837977751E-2
2.448442506E0,1.160643063E-2,-9.227142483E-2,1.160642691E-2,9.371997769E-2
2.450887558E0,1.282816008E-2,-9.776920825E-2,7.330374327E-3,9.887929086E-2
2.453333392E0,1.466075517E-2,-1.002126560E-1,2.443456557E-3,1.013088576E-1
2.455778444E0,1.404989138E-2,-1.026561186E-1,-2.328306437E-9,1.036131175E-1
2.458222715E0,1.343902573E-2,-1.026561186E-1,-4.276054911E-3,1.036203201E-1
2.460667767E0,1.466075517E-2,-1.002126560E-1,-7.330379449E-3,1.015443185E-1
2.463113600E0,1.343902573E-2,-9.776920825E-2,-8.552108891E-3,9.905838713E-2
2.465558652E0,1.160643063E-2,-9.288228303E-2,-9.162972681E-3,9.405204837E-2
2.468002923E0,1.282816008E-2,-8.982796222E-2,-1.099556778E-2,9.140310169E-2
2.470447975E0,1.160643063E-2,-8.310844749E-2,-1.038470212E-2,8.455510224E-2
2.472893808E0,9.773837402E-3,-7.638893276E-2,-9.162972681E-3,7.755486455E-2
2.475338861E0,1.099556684E-2,-7.089114934E-2,-9.162972681E-3,7.232162618E-2
2.477783131E0,1.160643063E-2,-6.356077641E-2,-9.162972681E-3,6.525826843E-2
2.480228183E0,1.099556684E-2,-5.928472430E-2,-7.941243239E-3,6.081648107E-2
2.482674017E0,1.160643063E-2,-5.317607522E-2,-7.941243239E-3,5.500425031E-2
2.485119069E0,1.099556684E-2,-4.828915745E-2,-4.886920564E-3,4.976572324E-2
2.487563340E0,1.160643063E-2,-4.279137775E-2,-3.665191121E-3,4.448870495E-2
2.490008392E0,1.221729629E-2,-3.485013545E-2,-3.665191121E-3,3.711102121E-2
2.492454277E0,1.160643063E-2,-3.057408333E-2,-2.328306437E-9,3.270296322E-2
2.494899329E0,1.038470119E-2,-2.690889314E-2,2.443456557E-3,2.894652015E-2
2.497343548E0,9.162971750E-3,-2.080024779E-2,4.276050720E-3,2.312779646E-2
2.499788600E0,7.330378052E-3,-1.530246530E-2,7.330374327E-3,1.848335127E-2
2.502234486E0,6.108648609E-3,-1.224814076E-2,1.038469747E-2,1.718064264E-2
2.504679538E0,4.276054446E-3,-7.361222990E-3,1.221729256E-2,1.489075160E-2
2.507123756E0,2.443460282E-3,-3.696036292E-3,1.343902200E-2,1.415056518E-2
2.509568808E0,3.054325003E-3,-6.417118129E-4,1.527161431E-2,1.558726720E-2
2.512014694E0,1.832595561E-3,-3.084616037E-5,1.954766735E-2,1.963340666E-2
2.514459746E0,-1.221728045E-3,5.800157669E-4,2.076939866E-2,2.081338412E-2
2.516903965E0,-2.443457488E-3,1.190881478E-3,2.138026431E-2,2.155236380E-2
2.519349069E0,-4.276051652E-3,1.801747130E-3,2.199112624E-2,2.247533189E-2
2.521794902E0,-5.497781094E-3,5.800157669E-4,2.199112624E-2,2.267535333E-2
2.524239954E0,-7.330375258E-3,-6.417118129E-4,2.321285754E-2,2.435124126E-2
2.526684225E0,-9.162969887E-3,-1.863441197E-3,2.199112624E-2,2.389648643E-2
2.529129277E0,-1.160642877E-2,-2.474304987E-3,2.199112624E-2,2.498881764E-2
2.531575111E0,-1.221729256E-2,-4.306900315E-3,2.015853301E-2,2.396201329E-2
2.534020163E0,-1.282815821E-2,-4.306900315E-3,1.832593977E-2,2.278049829E-2
2.536464433E0,-1.404988766E-2,-4.306900315E-3,1.466075052E-2,2.075780189E-2
2.538909486E0,-1.466075145E-2,-6.139495410E-3,1.282815635E-2,2.042529393E-2
2.541355319E0,-1.588248275E-2,-4.917764105E-3,9.162968025E-3,1.898414194E-2
2.543800371E0,-1.649334654E-2,-4.917764105E-3,4.886915442E-3,1.789125000E-2
2.546244642E0,-1.710421033E-2,-4.306900315E-3,2.443456557E-3,1.780656849E-2
2.548689694E0,-1.832594164E-2,-3.696036292E-3,-6.108670495E-4,1.870491860E-2
2.551135527E0,-1.893680543E-2,-6.417118129E-4,-5.497784354E-3,1.972916690E-2
2.553580579E0,-1.954766735E-2,2.412612783E-3,-9.162972681E-3,2.172307685E-2
2.556024850E0,-2.015853301E-2,6.688664667E-3,-1.160643157E-2,2.420359357E-2
2.558469902E0,-2.138026431E-2,1.096471678E-2,-1.404989045E-2,2.783415416E-2
2.560915736E0,-2.260199189E-2,1.829509437E-2,-1.588248461E-2,3.313327381E-2
2.563360788E0,-2.443458512E-2,2.501460537E-2,-1.710421592E-2,3.892728650E-2
2.565805058E0,-2.504545078E-2,2.990152314E-2,-1.771507785E-2,4.283923055E-2
2.568250111E0,-2.809977531E-2,3.723190352E-2,-1.954767480E-2,5.057591920E-2
2.570695996E0,-2.748890966E-2,4.334054515E-2,-1.832594350E-2,5.449663488E-2
2.573141048E0,-2.809977531E-2,4.700573906E-2,-1.832594350E-2,5.774926045E-2
2.575585267E0,-2.809977531E-2,5.189265683E-2,-1.710421592E-2,6.144102382E-2
2.578030319E0,-2.748890966E-2,5.555784330E-2,-1.588248461E-2,6.398880702E-2
2.580476204E0,-2.687804401E-2,5.677957460E-2,-1.588248461E-2,6.479662537E-2
2.582921256E0,-2.443458512E-2,5.800130591E-2,-1.282816101E-2,6.423209597E-2
2.585365475E0,-2.443458512E-2,5.800130591E-2,-9.773838334E-3,6.369245130E-2
2.587810579E0,-2.443458512E-2,5.800130591E-2,-6.719513796E-3,6.329575264E-2
2.590256413E0,-2.321285754E-2,5.677957460E-2,-4.886920564E-3,6.153567128E-2
2.592701465E0,-2.076939866E-2,5.616870895E-2,-2.443461679E-3,5.993548440E-2
2.595145736E0,-2.076939866E-2,5.250352249E-2,6.108623929E-4,5.646557311E-2
2.597590788E0,-2.015853301E-2,5.006005988E-2,1.832591835E-3,5.399754106E-2
2.600036621E0,-1.893680543E-2,4.700573906E-2,4.886915442E-3,5.091192441E-2
2.602481673E0,-2.076939866E-2,4.334054515E-2,7.330374327E-3,4.861589413E-2
2.604925944E0,-2.015853301E-2,3.967535868E-2,9.162968025E-3,4.543633483E-2
2.607370996E0,-1.771507598E-2,3.601017222E-2,1.099556312E-2,4.161080183E-2
2.609816829E0,-1.710421033E-2,3.234498575E-2,1.160642691E-2,3.838569082E-2
2.612261881E0,-1.649334654E-2,2.867979556E-2,1.282815635E-2,3.548411967E-2
2.614706152E0,-1.649334654E-2,2.623633668E-2,1.038469747E-2,3.268360115E-2
2.617151204E0,-1.527161710E-2,2.196028456E-2,1.099556312E-2,2.892021430E-2
2.619597038E0,-1.527161710E-2,1.890596002E-2,9.773833677E-3,2.619514150E-2
2.622042090E0,-1.404988766E-2,1.707336679E-2,7.941238582E-3,2.349388148E-2
2.624486361E0,-1.343902200E-2,1.462990697E-2,5.497780163E-3,2.061230403E-2
2.626931413E0,-1.404988766E-2,1.157558244E-2,3.054321278E-3,1.845866546E-2
2.629377246E0,-1.404988766E-2,1.035385113E-2,6.108623929E-4,1.746352568E-2
2.631822298E0,-1.343902200E-2,6.688664667E-3,-3.054325469E-3,1.531908782E-2
2.634266569E0,-1.221729256E-2,3.634340363E-3,-4.886920564E-3,1.365110472E-2
2.636711621E0,-1.221729256E-2,5.800157669E-4,-7.941243239E-3,1.458293523E-2
2.639157506E0,-1.404988766E-2,-3.084616037E-5,-9.773838334E-3,1.711514564E-2
2.641602558E0,-1.282815821E-2,-1.252577407E-3,-1.160643157E-2,1.734473543E-2
2.644046777E0,-1.282815821E-2,-3.696036292E-3,-1.404989045E-2,1.938096358E-2
2.646491829E0,-1.404988766E-2,-1.863441197E-3,-1.649335027E-2,2.174631829E-2
2.648937715E0,-1.282815821E-2,-3.696036292E-3,-1.771507785E-2,2.218211691E-2
2.651382767E0,-1.099556312E-2,-3.085170640E-3,-1.588248461E-2,1.956205520E-2
2.653826986E0,-9.773833677E-3,-1.863441197E-3,-1.710421592E-2,1.978773459E-2
2.656272038E0,-1.099556312E-2,-3.084616037E-5,-1.588248461E-2,1.931726371E-2
2.658717923E0,-9.162969887E-3,1.801747130E-3,-1.404989045E-2,1.687026175E-2
2.661162975E0,-7.330375258E-3,5.800157669E-4,-1.282816101E-2,1.478622787E-2
2.663607246E0,-6.719510537E-3,1.190881478E-3,-9.773838334E-3,1.192048390E-2
2.666052298E0,-6.108645815E-3,2.412612783E-3,-5.497784354E-3,8.565155395E-3
2.668498131E0,-6.108645815E-3,1.801747130E-3,-3.665191121E-3,7.348161156E-3
2.670943183E0,-4.886916373E-3,2.412612783E-3,1.221727114E-3,5.585272528E-3
2.673387454E0,-4.276051652E-3,3.634340363E-3,4.276050720E-3,7.055328296E-3
2.675832506E0,-3.665186930E-3,4.245205782E-3,7.941238582E-3,9.722069614E-3
2.678278340E0,-3.054322209E-3,4.245205782E-3,1.160642691E-2,1.273027109E-2
2.680723392E0,-3.054322209E-3,3.023478435E-3,1.588248089E-2,1.645367756E-2
2.683167663E0,-3.054322209E-3,3.023478435E-3,1.832593977E-2,1.882313403E-2
2.685612715E0,-1.832592767E-3,5.800157669E-4,2.076939866E-2,2.085815752E-2
2.688058548E0,-6.108633243E-4,-1.252577407E-3,2.382372320E-2,2.386444827E-2
2.690503600E0,-6.108633243E-4,-2.474304987E-3,2.504545078E-2,2.517478786E-2
2.692947871E0,1.221730839E-3,-3.696036292E-3,2.443458512E-2,2.474272137E-2
2.695392923E0,1.832595561E-3,-5.528629757E-3,2.748890966E-2,2.809918696E-2
2.697838756E0,3.054325003E-3,-6.750359200E-3,2.748890966E-2,2.846992106E-2
2.700283808E0,3.665189724E-3,-9.193818085E-3,2.565631643E-2,2.749920871E-2
2.702728079E0,3.665189724E-3,-1.041554753E-2,2.443458512E-2,2.681354501E-2
2.705173131E0,3.054325003E-3,-1.102641318E-2,2.321285754E-2,2.587947921E-2
2.707618965E0,3.665189724E-3,-1.408073585E-2,2.076939866E-2,2.535879845E-2
2.710064069E0,3.054325003E-3,-1.408073585E-2,1.710420847E-2,2.236403297E-2
2.712508288E0,1.832595561E-3,-1.469159964E-2,1.466075052E-2,2.083600519E-2
2.714953340E0,2.443460282E-3,-1.652419381E-2,1.282815635E-2,2.106136450E-2
2.717399225E0,1.832595561E-3,-1.652419381E-2,9.162968025E-3,1.898334456E-2
2.719844277E0,1.221730839E-3,-1.835678890E-2,7.941238582E-3,2.003815349E-2
2.722288496E0,-2.443457488E-3,-1.896765269E-2,6.108644884E-3,2.007630134E-2
2.724733600E0,-4.276051652E-3,-1.835678890E-2,3.054321278E-3,1.909411415E-2
2.727179433E0,-3.054322209E-3,-1.896765269E-2,-2.328306437E-9,1.921199450E-2
2.729624486E0,-4.276051652E-3,-1.774592325E-2,-2.443461679E-3,1.841664776E-2
2.732068756E0,-4.276051652E-3,-1.774592325E-2,-4.276054911E-3,1.874798803E-2
2.734513808E0,-4.886916373E-3,-1.774592325E-2,-6.108650006E-3,1.939369353E-2
2.736959642E0,-3.665186930E-3,-1.896765269E-2,-7.941243239E-3,2.088704833E-2
2.739404694E0,-6.108645815E-3,-1.957851648E-2,-9.773838334E-3,2.271919403E-2
2.741848965E0,-3.665186930E-3,-1.896765269E-2,-1.099556778E-2,2.222853919E-2
2.744294017E0,-4.886916373E-3,-2.018938214E-2,-1.221729722E-2,2.409886831E-2
2.746739850E0,-4.276051652E-3,-2.324370667E-2,-1.343902666E-2,2.718753308E-2
2.749184902E0,-5.497781094E-3,-2.446543425E-2,-1.466075610E-2,2.904687315E-2
2.751629173E0,-4.886916373E-3,-2.629802935E-2,-1.588248461E-2,3.110822426E-2
2.754074225E0,-6.719510537E-3,-2.751975879E-2,-1.649335027E-2,3.277986499E-2
2.756520058E0,-7.330375258E-3,-2.690889314E-2,-1.710421592E-2,3.271661861E-2
2.758965111E0,-6.719510537E-3,-2.629802935E-2,-1.954767480E-2,3.344921165E-2
2.761409381E0,-7.330375258E-3,-2.507629991E-2,-1.832594350E-2,3.191230834E-2
2.763854433E0,-5.497781094E-3,-2.141111158E-2,-1.771507785E-2,2.832817112E-2
2.766300267E0,-6.108645815E-3,-1.774592325E-2,-1.832594350E-2,2.623115611E-2
2.768745319E0,-6.108645815E-3,-1.530246530E-2,-1.527161989E-2,2.246560420E-2
2.771189590E0,-5.497781094E-3,-9.804681875E-3,-1.527161989E-2,1.896258837E-2
2.773634642E0,-6.108645815E-3,-4.917764105E-3,-1.221729722E-2,1.451765507E-2
2.776080527E0,-9.162969887E-3,-6.417118129E-4,-9.773838334E-3,1.341267039E-2
2.778525579E0,-7.941240445E-3,6.688664667E-3,-7.330379449E-3,1.270968126E-2
2.780969798E0,-7.330375258E-3,9.742989205E-3,-6.719513796E-3,1.392164163E-2
2.783414850E0,-7.941240445E-3,1.462990697E-2,-3.054325469E-3,1.692413608E-2
2.785860736E0,-7.941240445E-3,1.707336679E-2,-6.108670495E-4,1.883975350E-2
2.788305788E0,-9.773833677E-3,1.707336679E-2,1.221727114E-3,1.971091818E-2
2.790750006E0,-9.162969887E-3,1.768423244E-2,2.443456557E-3,2.006645395E-2
2.793195111E0,-1.099556312E-2,1.890596002E-2,2.443456557E-3,2.200700372E-2
2.795640944E0,-1.038469933E-2,1.890596002E-2,5.497780163E-3,2.225989423E-2
2.798085996E0,-1.038469933E-2,1.707336679E-2,5.497780163E-3,2.072600831E-2
2.800530267E0,-1.038469933E-2,1.524076890E-2,4.886915442E-3,1.907891400E-2
2.802975319E0,-9.773833677E-3,1.401904132E-2,4.886915442E-3,1.777479358E-2
2.805421152E0,-9.162969887E-3,1.218644809E-2,3.665185999E-3,1.568129850E-2
2.807866204E0,-9.773833677E-3,1.035385113E-2,3.054321278E-3,1.456224353E-2
2.810310475E0,-7.941240445E-3,1.035385113E-2,1.832591835E-3,1.317664320E-2
2.812755527E0,-9.162969887E-3,7.910395972E-3,1.832591835E-3,1.224307047E-2
2.815201361E0,-7.941240445E-3,6.688664667E-3,1.832591835E-3,1.054324085E-2
2.817646413E0,-6.108645815E-3,6.077799015E-3,1.221727114E-3,8.703321877E-3
2.820090683E0,-7.941240445E-3,6.077799015E-3,6.108623929E-4,1.001878703E-2
2.822535736E0,-5.497781094E-3,4.856071435E-3,-1.221731771E-3,7.436373798E-3
2.824981569E0,-6.108645815E-3,2.412612783E-3,-2.443461679E-3,7.007621502E-3
2.827426621E0,-5.497781094E-3,-3.084616037E-5,-3.665191121E-3,6.607584612E-3
2.829870892E0,-7.330375258E-3,-3.085170640E-3,-5.497784354E-3,9.668418283E-3
2.832315944E0,-4.886916373E-3,-6.750359200E-3,-6.719513796E-3,1.070519344E-2
2.834761777E0,-3.665186930E-3,-1.102641318E-2,-7.330379449E-3,1.373862605E-2
2.837206829E0,-1.221728045E-3,-1.591333002E-2,-8.552108891E-3,1.810704996E-2
2.839651100E0,6.108661182E-4,-2.018938214E-2,-1.160643157E-2,2.329578421E-2
2.842096152E0,6.108661182E-4,-2.690889314E-2,-1.466075610E-2,3.064962409E-2
2.844542038E0,3.665189724E-3,-3.240667656E-2,-1.649335027E-2,3.654664013E-2
2.846987090E0,6.108648609E-3,-3.668272868E-2,-1.832594350E-2,4.145815211E-2
2.849431308E0,7.941242307E-3,-4.218051210E-2,-1.893680915E-2,4.691334215E-2
2.851876361E0,9.773837402E-3,-5.012175441E-2,-2.076940238E-2,5.512790798E-2
2.854322246E0,1.343902573E-2,-5.684126541E-2,-2.199113369E-2,6.241111141E-2
2.856767298E0,1.649335027E-2,-6.417164207E-2,-2.321286127E-2,7.020589132E-2
2.859211569E0,1.710421406E-2,-6.844769418E-2,-2.199113369E-2,7.390027698E-2
2.861656621E0,1.893680915E-2,-7.394547760E-2,-2.138026804E-2,7.926949136E-2
2.864102454E0,1.954767480E-2,-7.822152972E-2,-2.199113369E-2,8.357229962E-2
2.866547506E0,2.076940238E-2,-7.944326103E-2,-1.954767480E-2,8.440800548E-2
2.868991777E0,2.138026804E-2,-8.005412668E-2,-1.771507785E-2,8.473253828E-2
2.871436829E0,2.015853673E-2,-7.944326103E-2,-1.404989045E-2,8.315646546E-2
2.873882663E0,1.954767480E-2,-8.066498488E-2,-1.099556778E-2,8.372487018E-2
2.876327715E0,1.832594350E-2,-7.944326103E-2,-6.719513796E-3,8.180601319E-2
2.878771986E0,1.710421406E-2,-7.638893276E-2,-3.054325469E-3,7.833997761E-2
2.881217038E0,1.710421406E-2,-7.333461195E-2,2.443456557E-3,7.534248422E-2
2.883662871E0,1.771507785E-2,-6.905855983E-2,8.552104235E-3,7.180562065E-2
2.886107923E0,1.710421406E-2,-6.722597033E-2,1.466075052E-2,7.090009048E-2
2.888552194E0,1.649335027E-2,-6.356077641E-2,1.954766735E-2,6.851360595E-2
2.890997246E0,1.588248461E-2,-5.989558995E-2,2.443458512E-2,6.660918828E-2
2.893443079E0,1.466075517E-2,-5.317607522E-2,3.054323420E-2,6.305173965E-2
2.895888131E0,1.404989138E-2,-4.890002310E-2,3.420842439E-2,6.130928157E-2
2.898332402E0,1.343902573E-2,-4.279137775E-2,3.726274520E-2,5.831141914E-2
2.900777454E0,1.404989138E-2,-3.668272868E-2,3.970620409E-2,5.585342133E-2
2.903223288E0,1.404989138E-2,-3.240667656E-2,4.031706974E-2,5.360091647E-2
2.905668392E0,1.282816008E-2,-2.813062444E-2,3.726274520E-2,4.841906549E-2
2.908112611E0,1.221729629E-2,-2.446543425E-2,3.420842439E-2,4.379538904E-2
2.910557663E0,1.160643063E-2,-2.080024779E-2,2.993236855E-2,3.825318584E-2
2.913003548E0,9.773837402E-3,-1.713505760E-2,2.260199189E-2,2.999980223E-2
2.915448600E0,7.941242307E-3,-1.713505760E-2,1.527161431E-2,2.428776918E-2
2.917892819E0,5.497783888E-3,-1.530246530E-2,5.497780163E-3,1.716440091E-2
2.920337923E0,5.497783888E-3,-1.346987206E-2,-3.665191121E-3,1.500322322E-2
2.922783756E0,4.276054446E-3,-1.224814076E-2,-1.221729722E-2,1.782032393E-2
2.925228808E0,2.443460282E-3,-9.804681875E-3,-2.199113369E-2,2.420149264E-2
2.927673079E0,-1.221728045E-3,-8.582954295E-3,-3.115410358E-2,3.233787089E-2
2.930118131E0,-1.832592767E-3,-5.528629757E-3,-3.970620781E-2,4.013112361E-2
2.932563965E0,-4.276051652E-3,-3.084616037E-5,-4.825831577E-2,4.844740045E-2
2.935009017E0,-6.108645815E-3,6.077799015E-3,-5.497782677E-2,5.564904879E-2
2.937453288E0,-6.719510537E-3,1.646250114E-2,-5.925388262E-2,6.186427378E-2
2.939898340E0,-8.552104235E-3,2.623633668E-2,-6.475166231E-2,7.038651591E-2
2.942344173E0,-1.099556312E-2,3.662103787E-2,-6.841684878E-2,7.837645067E-2
2.944789225E0,-1.343902200E-2,4.883832857E-2,-7.024944574E-2,8.660701055E-2
2.947233496E0,-1.343902200E-2,6.044476107E-2,-7.330376655E-2,9.595633717E-2
2.949678548E0,-1.282815821E-2,7.021860033E-2,-7.330376655E-2,1.023164487E-1
2.952124381E0,-1.404988766E-2,8.060329407E-2,-7.330376655E-2,1.098532319E-1
2.954569433E0,-1.343902200E-2,8.854454011E-2,-7.330376655E-2,1.157332497E-1
2.957013704E0,-1.160642877E-2,9.526403993E-2,-7.147117704E-2,1.196581616E-1
2.959458756E0,-9.773833677E-3,1.001509652E-1,-7.024944574E-2,1.227221588E-1
2.961904590E0,-9.773833677E-3,1.001509652E-1,-6.902771443E-2,1.220269192E-1
2.964349642E0,-9.162969887E-3,1.001509652E-1,-6.780598313E-2,1.212923212E-1
2.966793913E0,-7.941240445E-3,9.831837565E-2,-6.291906536E-2,1.169973293E-1
2.969238965E0,-7.941240445E-3,9.282059222E-2,-5.925388262E-2,1.104071929E-1
2.971684850E0,-6.719510537E-3,8.915539831E-2,-5.681042001E-2,1.059304521E-1
2.974129902E0,-5.497781094E-3,8.304675668E-2,-5.375609547E-2,9.907929750E-2
2.976574121E0,-6.108645815E-3,7.571638376E-2,-5.375609547E-2,9.305914314E-2
2.979019173E0,-4.276051652E-3,7.082945853E-2,-5.070177466E-2,8.721104728E-2
2.981465058E0,-2.443457488E-3,6.288821250E-2,-4.825831577E-2,7.930802480E-2
2.983910111E0,-2.443457488E-3,5.922302976E-2,-4.703658447E-2,7.566887086E-2
2.986354381E0,-2.443457488E-3,5.433611199E-2,-4.520399123E-2,7.072329443E-2
2.988799433E0,-2.443457488E-3,5.067092553E-2,-4.520399123E-2,6.794787710E-2
2.991245267E0,-2.443457488E-3,4.883832857E-2,-4.520399123E-2,6.659244436E-2
2.993690319E0,-2.443457488E-3,4.822747037E-2,-4.459312558E-2,6.572979714E-2
2.996134590E0,-2.443457488E-3,4.822747037E-2,-4.398225993E-2,6.531690877E-2
2.998579642E0,-3.054322209E-3,5.128179118E-2,-4.337139800E-2,6.723264948E-2
3.001025475E0,-4.276051652E-3,5.311438069E-2,-4.214966670E-2,6.794127211E-2
3.003470527E0,-6.719510537E-3,5.555784330E-2,-4.031707346E-2,6.897312655E-2
3.005914798E0,-7.330375258E-3,5.616870895E-2,-3.970620781E-2,6.917543788E-2
3.008359850E0,-7.941240445E-3,5.739044026E-2,-3.970620781E-2,7.023751755E-2
3.010805683E0,-9.773833677E-3,5.616870895E-2,-3.665188700E-2,6.777766970E-2
3.013250736E0,-9.773833677E-3,5.311438069E-2,-3.543015569E-2,6.459072064E-2
3.015695006E0,-1.160642877E-2,4.883832857E-2,-3.237583116E-2,5.973345771E-2
3.018140058E0,-1.099556312E-2,4.395141080E-2,-2.993237227E-2,5.430079032E-2
3.020585892E0,-1.099556312E-2,3.601017222E-2,-2.809977904E-2,4.698119298E-2
3.023030944E0,-1.099556312E-2,2.501460537E-2,-2.626718581E-2,3.790247935E-2
3.025475215E0,-1.221729256E-2,1.524076890E-2,-2.443459257E-2,3.128246455E-2
3.027920267E0,-1.160642877E-2,2.412612783E-3,-2.199113369E-2,2.498279108E-2
3.030366152E0,-1.160642877E-2,-9.804681875E-3,-2.076940238E-2,2.573342284E-2
3.032811204E0,-1.160642877E-2,-2.080024779E-2,-1.954767480E-2,3.081348872E-2
3.035255423E0,-9.773833677E-3,-3.118494712E-2,-1.893680915E-2,3.777077564E-2
3.037700475E0,-1.221729256E-2,-4.034791887E-2,-1.893680915E-2,4.621492763E-2
3.040146361E0,-1.099556312E-2,-4.951088876E-2,-1.771507785E-2,5.372201129E-2
3.042591413E0,-1.038469933E-2,-5.561953783E-2,-1.771507785E-2,5.928911327E-2
3.045035631E0,-9.773833677E-3,-5.928472430E-2,-1.710421592E-2,6.247207826E-2
3.047480736E0,-8.552104235E-3,-6.356077641E-2,-1.710421592E-2,6.637518352E-2
3.049926569E0,-7.330375258E-3,-6.356077641E-2,-1.832594350E-2,6.655484133E-2
3.052371621E0,-7.330375258E-3,-6.600423902E-2,-1.832594350E-2,6.889219241E-2
3.054815892E0,-7.941240445E-3,-6.600423902E-2,-1.893680915E-2,6.912471056E-2
3.057260944E0,-7.941240445E-3,-6.478250772E-2,-1.954767480E-2,6.813184422E-2
3.059706777E0,-6.108645815E-3,-6.356077641E-2,-2.199113369E-2,6.753441947E-2
3.062151829E0,-4.276051652E-3,-6.172818318E-2,-2.260199562E-2,6.587490738E-2
3.064596100E0,-5.497781094E-3,-5.989558995E-2,-2.382372692E-2,6.469371883E-2
3.067041152E0,-3.665186930E-3,-5.684126541E-2,-2.504545450E-2,6.222248661E-2
3.069486986E0,-1.221728045E-3,-5.500867218E-2,-2.565632015E-2,6.070991186E-2
3.071932038E0,-1.221728045E-3,-5.378694087E-2,-2.504545450E-2,5.934477584E-2
3.074376308E0,1.221730839E-3,-5.256521329E-2,-2.504545450E-2,5.823975503E-2
3.076821361E0,2.443460282E-3,-5.073262006E-2,-2.321286127E-2,5.584448195E-2
3.079267194E0,3.665189724E-3,-4.890002310E-2,-2.443459257E-2,5.478772846E-2
3.081712246E0,5.497783888E-3,-4.828915745E-2,-2.260199562E-2,5.359961344E-2
3.084156517E0,6.108648609E-3,-4.767829552E-2,-2.138026804E-2,5.260847188E-2
3.086601569E0,7.941242307E-3,-4.706742987E-2,-2.076940238E-2,5.205549308E-2
3.089047402E0,9.773837402E-3,-4.767829552E-2,-1.710421592E-2,5.158780829E-2
3.091492506E0,1.160643063E-2,-4.645656422E-2,-1.404989045E-2,4.990311626E-2
3.093936725E0,1.160643063E-2,-4.645656422E-2,-1.221729722E-2,4.941845751E-2
3.096381777E0,1.282816008E-2,-4.706742987E-2,-9.773838334E-3,4.975371907E-2
3.098827663E0,1.160643063E-2,-4.890002310E-2,-9.162972681E-3,5.108699991E-2
3.101272715E0,1.221729629E-2,-4.951088876E-2,-7.941243239E-3,5.161059754E-2
3.103716933E0,1.404989138E-2,-5.073262006E-2,-6.108650006E-3,5.299541292E-2
3.106162038E0,1.588248461E-2,-5.073262006E-2,-5.497784354E-3,5.344415486E-2
3.108607871E0,1.588248461E-2,-5.317607522E-2,-4.276054911E-3,5.566177269E-2
3.111052923E0,1.527161896E-2,-5.134348199E-2,-4.276054911E-3,5.373695315E-2
3.113497194E0,1.771507785E-2,-5.134348199E-2,-3.054325469E-3,5.439950395E-2
3.115942246E0,1.710421406E-2,-4.951088876E-2,-3.054325469E-3,5.247105057E-2
3.118388079E0,1.710421406E-2,-4.767829552E-2,-3.665191121E-3,5.078589990E-2
3.120833131E0,1.588248461E-2,-4.645656422E-2,-5.497784354E-3,4.940335322E-2
3.123277402E0,1.343902573E-2,-4.523483664E-2,-5.497784354E-3,4.750814131E-2
3.125722454E0,1.282816008E-2,-4.218051210E-2,-7.330379449E-3,4.469330772E-2
3.128168288E0,1.038470119E-2,-3.912618756E-2,-9.162972681E-3,4.150494718E-2
3.130613340E0,8.552107960E-3,-3.607186675E-2,-1.099556778E-2,3.866808286E-2
3.133057611E0,8.552107960E-3,-3.179581091E-2,-1.160643157E-2,3.491162264E-2
3.135502663E0,7.330378052E-3,-2.751975879E-2,-1.466075610E-2,3.203138049E-2
3.137948496E0,6.719513331E-3,-2.385457046E-2,-1.649335027E-2,2.976949772E-2
3.140393548E0,6.108648609E-3,-2.080024779E-2,-1.771507785E-2,2.799624759E-2
3.142837819E0,6.108648609E-3,-1.835678890E-2,-1.954767480E-2,2.750270672E-2
3.145282871E0,4.886919167E-3,-1.408073585E-2,-2.199113369E-2,2.656612622E-2
3.147728756E0,4.886919167E-3,-1.102641318E-2,-2.138026804E-2,2.454749739E-2
3.150173808E0,6.719513331E-3,-7.972088642E-3,-2.321286127E-2,2.544686592E-2
3.152618027E0,6.108648609E-3,-5.528629757E-3,-2.504545450E-2,2.636581359E-2
3.155063079E0,6.108648609E-3,-4.306900315E-3,-2.626718581E-2,2.730988884E-2
3.157508965E0,6.108648609E-3,-3.696036292E-3,-2.626718581E-2,2.722023737E-2
3.159954017E0,6.719513331E-3,-3.696036292E-3,-2.565632015E-2,2.677796310E-2
3.162398288E0,7.941242307E-3,-3.085170640E-3,-2.687805146E-2,2.819594399E-2
3.164843340E0,9.162971750E-3,-6.417118129E-4,-2.748891339E-2,2.898296404E-2
3.167289173E0,1.038470119E-2,-1.252577407E-3,-2.687805146E-2,2.884164731E-2
3.169734225E0,1.282816008E-2,-3.696036292E-3,-2.626718581E-2,2.946502037E-2
3.172178496E0,1.343902573E-2,-2.474304987E-3,-2.687805146E-2,3.015226771E-2
3.174623548E0,1.588248461E-2,-3.696036292E-3,-2.748891339E-2,3.196176405E-2
3.177069381E0,1.832594350E-2,-4.306900315E-3,-2.626718581E-2,3.231647638E-2
3.179514433E0,2.138026804E-2,-6.750359200E-3,-2.687805146E-2,3.500161226E-2
3.181958704E0,2.321286127E-2,-6.139495410E-3,-2.932151034E-2,3.789830209E-2
3.184403756E0,2.626718581E-2,-6.750359200E-3,-3.054323792E-2,4.084631908E-2
3.186849590E0,3.054323792E-2,-6.750359200E-3,-3.237583116E-2,4.501834265E-2
3.189294642E0,3.298669681E-2,-7.361222990E-3,-3.359756246E-2,4.765612210E-2
3.191738913E0,3.604102135E-2,-7.972088642E-3,-3.665188700E-2,5.201797995E-2
3.194183965E0,3.909534588E-2,-9.193818085E-3,-3.909534216E-2,5.604835537E-2
3.196629798E0,4.153880477E-2,-9.804681875E-3,-4.276053235E-2,6.041578614E-2
3.199074850E0,4.459312558E-2,-9.804681875E-3,-4.703658447E-2,6.555241349E-2
3.201519121E0,4.886918142E-2,-8.582954295E-3,-5.009090900E-2,7.050505771E-2
3.203964173E0,5.314523354E-2,-6.139495410E-3,-5.497782677E-2,7.671160726E-2
3.206410006E0,5.803215131E-2,-6.750359200E-3,-5.742128566E-2,8.191765366E-2
3.208855111E0,6.047561020E-2,-1.863441197E-3,-6.169733778E-2,8.641373346E-2
3.211299329E0,6.597339362E-2,-1.252577407E-3,-6.597339362E-2,9.330887568E-2
3.213744381E0,6.841684878E-2,1.190881478E-3,-7.147117704E-2,9.894651355E-2
3.216190267E0,7.208204269E-2,4.245205782E-3,-7.696895301E-2,1.055370190E-1
3.218635319E0,7.452549785E-2,7.299530320E-3,-8.185587823E-2,1.109401540E-1
3.221079538E0,7.757981867E-2,9.132123552E-3,-8.491019905E-2,1.153766261E-1
3.223524590E0,7.880154997E-2,1.157558244E-2,-9.101884812E-2,1.209467201E-1
3.225970475E0,8.185587823E-2,1.401904132E-2,-9.590576589E-2,1.268654179E-1
3.228415527E0,8.063414693E-2,1.401904132E-2,-9.834922105E-2,1.279490854E-1
3.230859798E0,8.796451986E-2,2.073855326E-2,-1.014035493E-1,1.358327065E-1
3.233304850E0,8.796451986E-2,2.196028456E-2,-1.069013253E-1,1.401709820E-1
3.235750683E0,9.346230328E-2,2.990152314E-2,-1.093447879E-1,1.469203385E-1
3.238195736E0,9.590576589E-2,3.356670961E-2,-1.117882431E-1,1.510670421E-1
3.240640006E0,1.007926837E-1,3.906449303E-2,-1.136208400E-1,1.568275964E-1
3.243085058E0,1.050687358E-1,4.456227645E-2,-1.178968921E-1,1.640881254E-1
3.245530892E0,1.044578701E-1,5.067092553E-2,-1.203403547E-1,1.672148029E-1
3.247975944E0,1.111773849E-1,5.677957460E-2,-1.221729442E-1,1.746727205E-1
3.250420215E0,1.099556535E-1,6.105562672E-2,-1.233946756E-1,1.761938741E-1
3.252865267E0,1.160643026E-1,6.777513772E-2,-1.227838024E-1,1.820446478E-1
3.255311100E0,1.154534370E-1,7.144033164E-2,-1.233946756E-1,1.834651549E-1
3.257756152E0,1.227838024E-1,8.060329407E-2,-1.233946756E-1,1.918306522E-1
3.260200423E0,1.240055338E-1,8.793366700E-2,-1.240055338E-1,1.961812290E-1
3.262645475E0,1.295033097E-1,9.954009205E-2,-1.221729442E-1,2.039744235E-1
3.265091308E0,1.343902349E-1,1.093139425E-1,-1.197294816E-1,2.105835275E-1
3.267536413E0,1.356119663E-1,1.178660467E-1,-1.191186234E-1,2.155742490E-1
3.269980631E0,1.423314810E-1,1.313050538E-1,-1.166751608E-1,2.260804299E-1
3.272425683E0,1.441640705E-1,1.423006207E-1,-1.154534370E-1,2.331571186E-1
3.274871569E0,1.527161747E-1,1.539070457E-1,-1.123991087E-1,2.442195086E-1
3.277316621E0,1.521053165E-1,1.612374336E-1,-1.117882431E-1,2.482542015E-1
3.279760840E0,1.594356894E-1,1.704003960E-1,-1.075121909E-1,2.569336592E-1
3.282205892E0,1.631008834E-1,1.728438586E-1,-1.056796014E-1,2.600866697E-1
3.284651777E0,1.698203832E-1,1.758981794E-1,-1.038470045E-1,2.656375960E-1
3.287096829E0,1.740964353E-1,1.728438586E-1,-1.020144075E-1,2.656906238E-1
3.289541100E0,1.753181666E-1,1.649026126E-1,-1.014035493E-1,2.611742924E-1
3.291986152E0,1.838702708E-1,1.557396501E-1,-9.834922105E-2,2.602608007E-1
3.294431986E0,1.832594126E-1,1.410788894E-1,-9.957095236E-2,2.517968227E-1
3.296877038E0,1.905897856E-1,1.251964122E-1,-9.773835540E-2,2.480955342E-1
3.299321308E0,1.893680543E-1,1.013726965E-1,-9.712748975E-2,2.357338177E-1
3.301766361E0,1.973093003E-1,8.060329407E-2,-9.590576589E-2,2.337215586E-1
3.304212194E0,2.003636211E-1,5.067092553E-2,-9.468403459E-2,2.273283743E-1
3.306657246E0,2.076939940E-1,2.562547103E-2,-9.590576589E-2,2.301985575E-1
3.309101517E0,2.144135088E-1,-4.306900315E-3,-9.407316893E-2,2.341825426E-1
3.311546569E0,2.217438966E-1,-3.240667656E-2,-9.407316893E-2,2.430438427E-1
3.313992402E0,2.345720530E-1,-5.989558995E-2,-9.162971377E-2,2.588581352E-1
3.316437454E0,2.394589633E-1,-9.166055173E-2,-8.979711682E-2,2.716721812E-1
3.318881725E0,2.528979778E-1,-1.203712001E-1,-8.796451986E-2,2.935717455E-1
3.321326777E0,2.583957613E-1,-1.539687663E-1,-8.674278855E-2,3.130480184E-1
3.323772611E0,2.706130445E-1,-1.814576834E-1,-8.429933339E-2,3.365481962E-1
3.326217715E0,2.809977531E-1,-2.120009214E-1,-8.307760209E-2,3.616711433E-1
3.328661933E0,2.907715738E-1,-2.425441444E-1,-8.185587823E-2,3.873966377E-1
3.331106986E0,3.017671406E-1,-2.718656659E-1,-7.941241562E-2,4.138607003E-1
3.333552871E0,3.133735955E-1,-3.011871576E-1,-7.880154997E-2,4.417311383E-1
3.335997923E0,3.255908787E-1,-3.311195374E-1,-7.819068432E-2,4.709175633E-1
3.338442194E0,3.378081620E-1,-3.604410291E-1,-8.063414693E-2,5.005336706E-1
3.340887246E0,3.481928706E-1,-3.915951550E-1,-8.063414693E-2,5.301762973E-1
3.343333079E0,3.585775793E-1,-4.196949303E-1,-8.185587823E-2,5.580520582E-1
3.345778131E0,3.695731461E-1,-4.496272802E-1,-8.185587823E-2,5.877494247E-1
3.348222402E0,3.811795712E-1,-4.789488018E-1,-8.491019905E-2,6.179802279E-1
3.350667454E0,3.940077126E-1,-5.058268309E-1,-8.613193035E-2,6.469324307E-1
3.353113288E0,4.043924212E-1,-5.296505690E-1,-8.796451986E-2,6.721612249E-1
3.355558340E0,4.184423089E-1,-5.534743071E-1,-8.735365421E-2,6.993271304E-1
3.358002611E0,4.300487339E-1,-5.748545527E-1,-8.857538551E-2,7.233569446E-1
3.360447663E0,4.447095096E-1,-5.950130820E-1,-8.857538551E-2,7.480994016E-1
3.362893496E0,4.563159347E-1,-6.115064621E-1,-8.796451986E-2,7.680508721E-1
3.365338548E0,4.691440761E-1,-6.279997826E-1,-8.735365421E-2,7.887398506E-1
3.367782819E0,4.795287848E-1,-6.408279538E-1,-8.613193035E-2,8.050012616E-1
3.370227871E0,4.893026352E-1,-6.548778415E-1,-8.674278855E-2,8.220744294E-1
3.372673704E0,4.978547394E-1,-6.701494455E-1,-8.307760209E-2,8.389645457E-1
3.375118756E0,5.070177317E-1,-6.872536540E-1,-8.124501258E-2,8.578958662E-1
3.377563027E0,5.155698061E-1,-7.043578625E-1,-8.124501258E-2,8.766601254E-1
3.380008079E0,5.216785073E-1,-7.263489962E-1,-8.002328128E-2,8.978502407E-1
3.382453913E0,5.308414698E-1,-7.532270551E-1,-7.757981867E-2,9.247498531E-1
3.384899017E0,5.400044322E-1,-7.837703228E-1,-7.757981867E-2,9.549446759E-1
3.387343236E0,5.503891110E-1,-8.198112845E-1,-7.819068432E-2,9.905213268E-1
3.389788288E0,5.601629615E-1,-8.552414775E-1,-7.819068432E-2,1.025345947E0
3.392234173E0,5.736019611E-1,-8.980019689E-1,-7.819068432E-2,1.068429000E0
3.394679225E0,5.852084160E-1,-9.419842362E-1,-7.941241562E-2,1.111804625E0
3.397123496E0,5.986474156E-1,-9.865773916E-1,-8.063414693E-2,1.156812666E0
3.399568548E0,6.102538705E-1,-1.032392144E0,-8.307760209E-2,1.202141927E0
3.402014381E0,6.255254745E-1,-1.079428673E0,-8.368846774E-2,1.250380797E0
3.404459433E0,6.401862502E-1,-1.125854373E0,-8.613193035E-2,1.298000467E0
3.406903704E0,6.554578543E-1,-1.166782379E0,-8.857538551E-2,1.341212779E0
3.409348756E0,6.695077419E-1,-1.205877662E0,-8.979711682E-2,1.382188509E0
3.411794590E0,6.847793460E-1,-1.242529631E0,-9.162971377E-2,1.421688658E0
3.414239642E0,6.988292336E-1,-1.277348876E0,-9.468403459E-2,1.459091332E0
3.416683913E0,7.116574049E-1,-1.308502913E0,-9.896008670E-2,1.492792428E0
3.419128965E0,7.244855762E-1,-1.337824464E0,-1.020144075E-1,1.524814935E0
3.421574798E0,7.367028594E-1,-1.365924239E0,-1.062904596E-1,1.555563497E0
3.424019850E0,7.464767098E-1,-1.390358806E0,-1.117882431E-1,1.582030878E0
3.426464121E0,7.574722767E-1,-1.416015148E0,-1.166751608E-1,1.610116841E0
3.428909173E0,7.666352391E-1,-1.439228058E0,-1.221729442E-1,1.635247144E0
3.431355006E0,7.757982016E-1,-1.461219192E0,-1.288924515E-1,1.659408822E0
3.433800058E0,7.837394476E-1,-1.481988549E0,-1.319467872E-1,1.681650242E0
3.436244329E0,7.904589772E-1,-1.499703646E0,-1.325576454E-1,1.700443457E0
3.438689381E0,7.953459024E-1,-1.518640399E0,-1.325576454E-1,1.719422954E0
3.441135215E0,8.014545441E-1,-1.536355495E0,-1.362228394E-1,1.738181307E0
3.443580319E0,8.081740141E-1,-1.554070592E0,-1.423314810E-1,1.757423936E0
3.446024538E0,8.136718273E-1,-1.571174860E0,-1.545487791E-1,1.776101801E0
3.448469590E0,8.191695809E-1,-1.590111613E0,-1.698203981E-1,1.796756164E0
3.450915475E0,8.252782226E-1,-1.605994105E0,-1.869246066E-1,1.815280149E0
3.453360527E0,8.301651478E-1,-1.621876597E0,-2.089157403E-1,1.833931203E0
3.455804746E0,8.362737894E-1,-1.635926485E0,-2.302960008E-1,1.851660218E0
3.458249850E0,8.417716026E-1,-1.646311164E0,-2.559522986E-1,1.866663188E0
3.460695683E0,8.497128487E-1,-1.653641582E0,-2.816086113E-1,1.880384486E0
3.463140736E0,8.570432067E-1,-1.660361052E0,-3.103192747E-1,1.894101352E0
3.465585006E0,8.631518483E-1,-1.663415432E0,-3.365864456E-1,1.904014823E0
3.468030058E0,8.704822659E-1,-1.664026260E0,-3.646862209E-1,1.913039155E0
3.470475892E0,8.778126240E-1,-1.660361052E0,-3.927859962E-1,1.918758626E0
3.472920944E0,8.845321536E-1,-1.654863238E0,-4.178314507E-1,1.922382009E0
3.475365215E0,8.900299072E-1,-1.646311164E0,-4.434877634E-1,1.923323967E0
3.477810267E0,8.955277205E-1,-1.634704709E0,-4.667006433E-1,1.921467896E0
3.480256100E0,9.004145861E-1,-1.619433165E0,-4.856374264E-1,1.915503566E0
3.482701152E0,9.083558321E-1,-1.604161501E0,-5.057959557E-1,1.911615544E0
3.485145423E0,9.162970781E-1,-1.581559539E0,-5.222893357E-1,1.900977922E0
3.487590475E0,9.248492122E-1,-1.555903196E0,-5.369500518E-1,1.887987336E0
3.490036308E0,9.340121746E-1,-1.527192593E0,-5.503891110E-1,1.872865220E0
3.492481361E0,9.425642490E-1,-1.498481870E0,-5.619955063E-1,1.857340633E0
3.494925631E0,9.505054951E-1,-1.465495229E0,-5.711585283E-1,1.837759241E0
3.497370683E0,9.578359127E-1,-1.431897640E0,-5.790997148E-1,1.817453429E0
3.499816569E0,9.645553827E-1,-1.396467447E0,-5.858192444E-1,1.795458884E0
3.502261569E0,9.731075168E-1,-1.362259030E0,-5.913170576E-1,1.775484094E0
3.504705840E0,9.804378748E-1,-1.328050613E0,-5.931496024E-1,1.754081899E0
3.507150892E0,9.871574044E-1,-1.293231368E0,-5.962039828E-1,1.732739537E0
3.509596777E0,9.950986505E-1,-1.260244608E0,-5.986474156E-1,1.713714248E0
3.512041829E0,1.003039837E0,-1.229090571E0,-5.986474156E-1,1.695621206E0
3.514486048E0,1.011592031E0,-1.200990796E0,-5.980365276E-1,1.680281231E0
3.516931152E0,1.018922329E0,-1.171669245E0,-5.986474156E-1,1.664148509E0
3.519376986E0,1.028085351E0,-1.146012902E0,-5.992583036E-1,1.652094300E0
3.521822038E0,1.036026597E0,-1.119134903E0,-6.035343409E-1,1.640142598E0
3.524266308E0,1.042746067E0,-1.092256904E0,-6.078103781E-1,1.627813859E0
3.526711361E0,1.051298141E0,-1.064157128E0,-6.126973033E-1,1.616495024E0
3.529157194E0,1.058628559E0,-1.036668181E0,-6.194168329E-1,1.605942887E0
3.531602246E0,1.064737201E0,-1.005514145E0,-6.273580790E-1,1.593204997E0
3.534046517E0,1.072067618E0,-9.755818248E-1,-6.359101534E-1,1.582867840E0
3.536491569E0,1.076343656E0,-9.425951242E-1,-6.462948918E-1,1.569935770E0
3.538937402E0,1.081841469E0,-9.089975357E-1,-6.566795707E-1,1.558167367E0
3.541382454E0,1.087950110E0,-8.741782904E-1,-6.676751375E-1,1.547130639E0
3.543826725E0,1.092226148E0,-8.399698734E-1,-6.768381000E-1,1.535127734E0
3.546271777E0,1.097723961E0,-8.063722849E-1,-6.884445548E-1,1.526168425E0
3.548717611E0,1.103221655E0,-7.758290768E-1,-7.000509501E-1,1.519565763E0
3.551162663E0,1.108719468E0,-7.440640926E-1,-7.110465169E-1,1.512771424E0
3.553606933E0,1.113606453E0,-7.129099965E-1,-7.220420837E-1,1.506553937E0
3.556051986E0,1.119104147E0,-6.835885048E-1,-7.330376506E-1,1.502342016E0
3.558497819E0,1.123991132E0,-6.554887295E-1,-7.440332174E-1,1.498868562E0
3.560942923E0,1.129488826E0,-6.292214990E-1,-7.544178963E-1,1.496933888E0
3.563387142E0,1.134986639E0,-6.029543281E-1,-7.635808587E-1,1.494926192E0
3.565832194E0,1.136819243E0,-5.779088736E-1,-7.715221047E-1,1.490497573E0
3.568278079E0,1.139873624E0,-5.565286279E-1,-7.812959552E-1,1.489785005E0
3.570723131E0,1.142317057E0,-5.375918150E-1,-7.910698056E-1,1.489860616E0
3.573167402E0,1.144760489E0,-5.180441141E-1,-8.014544845E-1,1.490360887E0
3.575612454E0,1.148425698E0,-5.003290772E-1,-8.106174469E-1,1.492082912E0
3.578058288E0,1.153312564E0,-4.832248390E-1,-8.191695809E-1,1.494882911E0
3.580503340E0,1.157588601E0,-4.673423767E-1,-8.295542598E-1,1.498859745E0
3.582947611E0,1.163086414E0,-4.520707428E-1,-8.381063938E-1,1.503183386E0
3.585392663E0,1.167362452E0,-4.355773926E-1,-8.478802443E-1,1.507104398E0
3.587838496E0,1.172249436E0,-4.184731841E-1,-8.582649231E-1,1.511921699E0
3.590283548E0,1.176525474E0,-4.013689756E-1,-8.662061691E-1,1.515131140E0
3.592727819E0,1.182023287E0,-3.885408342E-1,-8.753691316E-1,1.521319870E0
3.595172871E0,1.185077548E0,-3.738800585E-1,-8.888081312E-1,1.527800703E0
3.597618704E0,1.188742757E0,-3.659388125E-1,-8.991928697E-1,1.534786100E0
3.600063756E0,1.189353585E0,-3.610519171E-1,-9.126318693E-1,1.542017304E0
3.602508027E0,1.191797137E0,-3.592193127E-1,-9.248491526E-1,1.550730436E0
3.604953079E0,1.193629622E0,-3.622736335E-1,-9.382882118E-1,1.560890332E0
3.607398913E0,1.196684003E0,-3.683822751E-1,-9.505054951E-1,1.572011069E0
3.609843965E0,1.200960040E0,-3.769343793E-1,-9.633336663E-1,1.585054036E0
3.612288236E0,1.205847025E0,-3.860973716E-1,-9.767726660E-1,1.599131974E0
3.614733288E0,1.210123062E0,-3.977037966E-1,-9.896008372E-1,1.613033153E0
3.617179173E0,1.216231704E0,-4.086993635E-1,-1.003039956E0,1.628601818E0
3.619624225E0,1.219285965E0,-4.203057885E-1,-1.015257239E0,1.641359949E0
3.622068444E0,1.224783778E0,-4.306904972E-1,-1.026863694E0,1.655306212E0
3.624513496E0,1.227227211E0,-4.398534596E-1,-1.039691806E0,1.667488154E0
3.626959381E0,1.229059815E0,-4.490164220E-1,-1.048243880E0,1.676609379E0
3.629404433E0,1.232725024E0,-4.526816010E-1,-1.058017731E0,1.686396494E0
3.631848652E0,1.235168457E0,-4.557359517E-1,-1.069013357E0,1.695914483E0
3.634293756E0,1.234557629E0,-4.594011307E-1,-1.080619693E0,1.703796014E0
3.636739590E0,1.232114196E0,-4.581793845E-1,-1.091004491E0,1.708310434E0
3.639184642E0,1.231503248E0,-4.600119889E-1,-1.101999998E0,1.715405280E0
3.641628913E0,1.232725024E0,-4.600119889E-1,-1.113606453E0,1.723757914E0
3.644073965E0,1.231503248E0,-4.594011307E-1,-1.123991132E0,1.729452432E0
3.646519798E0,1.231503248E0,-4.600119889E-1,-1.135597587E0,1.737179657E0
3.648964850E0,1.230892420E0,-4.575685263E-1,-1.149036646E0,1.744921293E0
3.651409121E0,1.230281591E0,-4.526816010E-1,-1.161864758E0,1.751697217E0
3.653854173E0,1.227227211E0,-4.490164220E-1,-1.175303817E0,1.757566908E0
3.656300006E0,1.223562002E0,-4.447403848E-1,-1.189353704E0,1.763366161E0
3.658745058E0,1.219285965E0,-4.367991388E-1,-1.203403592E0,1.767945689E0
3.661189329E0,1.216842532E0,-4.288578928E-1,-1.216842532E0,1.773507989E0
3.663634381E0,1.213177323E0,-4.160297215E-1,-1.230281591E0,1.777209256E0
3.666080215E0,1.210123062E0,-4.013689756E-1,-1.241888046E0,1.779826059E0
3.668525267E0,1.208290458E0,-3.830430508E-1,-1.255327106E0,1.783965793E0
3.670969538E0,1.207068682E0,-3.622736335E-1,-1.263879180E0,1.784838247E0
3.673414590E0,1.204014421E0,-3.451694250E-1,-1.274263859E0,1.786768323E0
3.675860475E0,1.203403473E0,-3.268434703E-1,-1.283426881E0,1.789466717E0
3.678305527E0,1.202792645E0,-3.121827245E-1,-1.291978955E0,1.792589696E0
3.680749746E0,1.199738264E0,-2.987436950E-1,-1.297476768E0,1.792223664E0
3.683194798E0,1.197905779E0,-2.926350534E-1,-1.303585410E0,1.794421481E0
3.685640683E0,1.197905779E0,-2.883590162E-1,-1.306639671E0,1.795950002E0
3.688085736E0,1.196073174E0,-2.871372700E-1,-1.310304880E0,1.797202751E0
3.690530006E0,1.193629622E0,-2.914133370E-1,-1.308472276E0,1.794929833E0
3.692975058E0,1.193629622E0,-2.975219786E-1,-1.309083104E0,1.796376791E0
3.695420892E0,1.194851398E0,-3.024089038E-1,-1.306028843E0,1.795781821E0
3.697865944E0,1.196684003E0,-3.103501499E-1,-1.303585410E0,1.796581404E0
3.700310215E0,1.197905779E0,-3.164587915E-1,-1.299920201E0,1.795805377E0
3.702755267E0,1.199738264E0,-3.207348287E-1,-1.295033216E0,1.794255769E0
3.705201100E0,1.199127436E0,-3.262326121E-1,-1.291368127E0,1.792195850E0
3.707646152E0,1.198516607E0,-3.323412538E-1,-1.287091970E0,1.789831977E0
3.710090423E0,1.196684003E0,-3.353955746E-1,-1.281594276E0,1.785224547E0
3.712535475E0,1.194851398E0,-3.378390372E-1,-1.278539896E0,1.782265229E0
3.714981308E0,1.193018794E0,-3.390607834E-1,-1.273653030E0,1.777764917E0
3.717426361E0,1.191186190E0,-3.384499252E-1,-1.268766046E0,1.772918545E0
3.719870631E0,1.190575361E0,-3.353955746E-1,-1.265100837E0,1.769304951E0
3.722315683E0,1.191186190E0,-3.298978209E-1,-1.258381367E0,1.763882302E0
3.724761517E0,1.193018794E0,-3.195131123E-1,-1.255327106E0,1.761030554E0
3.727206621E0,1.199738264E0,-3.085175455E-1,-1.251050949E0,1.760591791E0
3.729650840E0,1.203403473E0,-2.920241952E-1,-1.246774912E0,1.757243788E0
3.732095892E0,1.210123062E0,-2.761417031E-1,-1.243109703E0,1.756693997E0
3.734541777E0,1.214399099E0,-2.608700991E-1,-1.238222837E0,1.753856943E0
3.736986829E0,1.218675137E0,-2.474310696E-1,-1.236390233E0,1.753582627E0
3.739431048E0,1.226616383E0,-2.370463759E-1,-1.230892420E0,1.753817232E0
3.741876100E0,1.230281591E0,-2.248290777E-1,-1.229059815E0,1.753490501E0
3.744321986E0,1.235779285E0,-2.144443691E-1,-1.226616383E0,1.754344487E0
3.746767038E0,1.241277099E0,-2.065031379E-1,-1.222951174E0,1.754714209E0
3.749211308E0,1.245553136E0,-1.979510337E-1,-1.218675137E0,1.753783429E0
3.751656361E0,1.250440121E0,-1.900097877E-1,-1.215009928E0,1.753839599E0
3.754102194E0,1.254716158E0,-1.808468103E-1,-1.208290458E0,1.751280685E0
3.756547246E0,1.259603024E0,-1.722947061E-1,-1.201570988E0,1.749302170E0
3.758991517E0,1.265100837E0,-1.619100124E-1,-1.193018794E0,1.746421719E0
3.761436569E0,1.267544270E0,-1.527470350E-1,-1.185077548E0,1.741955489E0
3.763882402E0,1.270598650E0,-1.454166621E-1,-1.174082041E0,1.736097801E0
3.766327454E0,1.269376874E0,-1.368645579E-1,-1.163086534E0,1.727084202E0
3.768771725E0,1.269376874E0,-1.338102221E-1,-1.152701735E0,1.719867470E0
3.771216777E0,1.271820307E0,-1.319776326E-1,-1.140484452E0,1.713373799E0
3.773662611E0,1.271820307E0,-1.301450431E-1,-1.127656341E0,1.704720930E0
3.776107663E0,1.273042083E0,-1.301450431E-1,-1.114828110E0,1.697178715E0
3.778551933E0,1.273042083E0,-1.295341700E-1,-1.105665207E0,1.691127078E0
3.780996986E0,1.273042083E0,-1.289233118E-1,-1.097723961E0,1.685898947E0
3.783442871E0,1.270598650E0,-1.307559013E-1,-1.088560939E0,1.678238050E0
3.785887923E0,1.265711665E0,-1.368645579E-1,-1.082452297E0,1.671065798E0
3.788332142E0,1.258992195E0,-1.454166621E-1,-1.080008864E0,1.665120566E0
3.790777194E0,1.251050949E0,-1.564122289E-1,-1.078787088E0,1.659329637E0
3.793223079E0,1.241888046E0,-1.710729748E-1,-1.082452297E0,1.656277410E0
3.795668131E0,1.232725024E0,-1.887880564E-1,-1.087950110E0,1.654958416E0
3.798112402E0,1.221729398E0,-2.113900483E-1,-1.097113132E0,1.655586210E0
3.800557454E0,1.210123062E0,-2.370463759E-1,-1.109941244E0,1.659083595E0
3.803003288E0,1.199738264E0,-2.669787407E-1,-1.123991132E0,1.665534633E0
3.805448340E0,1.187520981E0,-3.030197620E-1,-1.139262795E0,1.673304148E0
3.807892611E0,1.175303698E0,-3.396716416E-1,-1.156977773E0,1.683838820E0
3.810337663E0,1.164919019E0,-3.775452673E-1,-1.177136421E0,1.698595568E0
3.812783496E0,1.155145168E0,-4.184731841E-1,-1.196073174E0,1.714663583E0
3.815228548E0,1.149036527E0,-4.557359517E-1,-1.213788271E0,1.732415125E0
3.817672819E0,1.141095281E0,-4.887226224E-1,-1.231503367E0,1.748584795E0
3.820117871E0,1.134375811E0,-5.217093229E-1,-1.248607516E0,1.765788727E0
3.822563704E0,1.127656341E0,-5.559177399E-1,-1.262657404E0,1.781840923E0
3.825008756E0,1.120936751E0,-5.827957988E-1,-1.276096463E0,1.795709422E0
3.827453027E0,1.116660714E0,-6.090629697E-1,-1.285259366E0,1.808253436E0
3.829898079E0,1.109941244E0,-6.341084242E-1,-1.292589784E0,1.817925028E0
3.832343913E0,1.103221655E0,-6.573212743E-1,-1.295644164E0,1.824243152E0
3.834788965E0,1.097723961E0,-6.805341840E-1,-1.295033216E0,1.828998552E0
3.837233236E0,1.091615319E0,-7.019144297E-1,-1.291978955E0,1.831261175E0
3.839678288E0,1.087950110E0,-7.214620709E-1,-1.286481142E0,1.832805688E0
3.842124173E0,1.086728334E0,-7.410097718E-1,-1.277318120E0,1.833470898E0
3.844569225E0,1.083063126E0,-7.611683011E-1,-1.268155217E0,1.833199545E0
3.847013444E0,1.080008864E0,-7.782725096E-1,-1.256548762E0,1.830585163E0
3.849458496E0,1.078787088E0,-7.953767180E-1,-1.243109703E0,1.828039234E0
3.851904381E0,1.076954484E0,-8.082048893E-1,-1.228448987E0,1.822666458E0
3.854349433E0,1.074511051E0,-8.173678517E-1,-1.213788271E0,1.815474090E0
3.856793704E0,1.070845842E0,-8.234764934E-1,-1.200349212E0,1.807114436E0
3.859238756E0,1.068402410E0,-8.246982098E-1,-1.188131928E0,1.798129118E0
3.861684590E0,1.064126372E0,-8.210330606E-1,-1.175914645E0,1.785843071E0
3.864129642E0,1.060461164E0,-8.124809265E-1,-1.167973399E0,1.774504155E0
3.866573913E0,1.056185126E0,-8.002636433E-1,-1.159421325E0,1.760740392E0
3.869018965E0,1.052519917E0,-7.849920392E-1,-1.153923512E0,1.748013200E0
3.871464798E0,1.048854709E0,-7.654443383E-1,-1.152701735E0,1.736295633E0
3.873909850E0,1.045189500E0,-7.465075254E-1,-1.153923512E0,1.726625045E0
3.876354121E0,1.041524410E0,-7.245163918E-1,-1.156366944E0,1.716648365E0
3.878799173E0,1.036026597E0,-7.019144297E-1,-1.163086534E0,1.708451129E0
3.881245006E0,1.030528784E0,-6.805341840E-1,-1.170416832E0,1.701467575E0
3.883690058E0,1.026252747E0,-6.628190875E-1,-1.180801511E0,1.699063286E0
3.886134329E0,1.019533277E0,-6.444931626E-1,-1.190575361E0,1.694782945E0
3.888579381E0,1.012813687E0,-6.261671782E-1,-1.201570988E0,1.691641138E0
3.891025267E0,1.006094217E0,-6.090629697E-1,-1.211955667E0,1.688792413E0
3.893470267E0,9.993746877E-1,-5.913479328E-1,-1.220507741E0,1.684660586E0
3.895914538E0,9.932660460E-1,-5.730219483E-1,-1.227227330E0,1.679588792E0
3.898359590E0,9.902117252E-1,-5.522525907E-1,-1.233946800E0,1.675746667E0
3.900805475E0,9.859356880E-1,-5.333157778E-1,-1.236390233E0,1.668878578E0
3.903250527E0,9.804378748E-1,-5.101028681E-1,-1.238833666E0,1.660172345E0
3.905694798E0,9.743292332E-1,-4.881117642E-1,-1.238222837E0,1.649474566E0
3.908139850E0,9.700531960E-1,-4.667315185E-1,-1.235168457E0,1.638439084E0
3.910585683E0,9.633336663E-1,-4.465729594E-1,-1.230281591E0,1.625125212E0
3.913030736E0,9.596685171E-1,-4.270252883E-1,-1.226005554E0,1.614436087E0
3.915475006E0,9.541707039E-1,-4.074776173E-1,-1.217453480E0,1.599585170E0
3.917920058E0,9.486729503E-1,-3.915951550E-1,-1.207068682E0,1.584405862E0
3.920365892E0,9.437860250E-1,-3.763235211E-1,-1.196684003E0,1.569842048E0
3.922810944E0,9.401208162E-1,-3.647170961E-1,-1.186299324E0,1.556968784E0
3.925255215E0,9.358447790E-1,-3.518889248E-1,-1.172860265E0,1.541178921E0
3.927700267E0,9.303469658E-1,-3.372281790E-1,-1.162475586E0,1.526636109E0
3.930146100E0,9.285143614E-1,-3.250108957E-1,-1.150258303E0,1.513560426E0
3.932591152E0,9.236274958E-1,-3.109610081E-1,-1.141095400E0,1.500627606E0
3.935035423E0,9.236274958E-1,-2.993545830E-1,-1.132543206E0,1.491762391E0
3.937480475E0,9.199622869E-1,-2.865264118E-1,-1.125212908E0,1.481395316E0
3.939926308E0,9.144644737E-1,-2.718656659E-1,-1.120936751E0,1.471956322E0
3.942371361E0,9.095776081E-1,-2.584266365E-1,-1.116660714E0,1.463231664E0
3.944815631E0,9.053015113E-1,-2.437658757E-1,-1.115439057E0,1.457119391E0
3.947260683E0,9.004145861E-1,-2.315485924E-1,-1.114217281E0,1.451151724E0
3.949706569E0,8.936951160E-1,-2.205530256E-1,-1.116049886E0,1.446686540E0
3.952151621E0,8.888081908E-1,-2.083357275E-1,-1.119715095E0,1.444695701E0
3.954595840E0,8.833103776E-1,-1.967293024E-1,-1.123380303E0,1.442540449E0
3.957040892E0,8.772017360E-1,-1.851228625E-1,-1.127656341E0,1.440611739E0
3.959486777E0,8.735365868E-1,-1.759599000E-1,-1.132543206E0,1.441069800E0
3.961931829E0,8.698713779E-1,-1.680186540E-1,-1.138041019E0,1.442235710E0
3.964376100E0,8.674278855E-1,-1.600774080E-1,-1.144149661E0,1.444691787E0
3.966821152E0,8.631518483E-1,-1.527470350E-1,-1.147814870E0,1.444244351E0
3.969266986E0,8.607084155E-1,-1.435840577E-1,-1.153312683E0,1.446224569E0
3.971712038E0,8.576540947E-1,-1.386971474E-1,-1.156366944E0,1.446371997E0
3.974156308E0,8.545997739E-1,-1.356428266E-1,-1.160642982E0,1.447698822E0
3.976601361E0,8.533779979E-1,-1.331993639E-1,-1.164308190E0,1.449692947E0
3.979047194E0,8.478802443E-1,-1.319776326E-1,-1.164919019E0,1.446843227E0
