"Time (s)","Gyroscope x (rad/s)","Gyroscope y (rad/s)","Gyroscope z (rad/s)","Absolute (rad/s)"
1.114885610E-1,1.954767480E-2,1.105356589E-1,7.941238582E-3,1.125313590E-1
1.139343940E-1,2.199113369E-2,1.080922112E-1,9.162968025E-3,1.106864764E-1
1.163793940E-1,2.443459257E-2,1.038161591E-1,1.099556312E-2,1.072182196E-1
1.188236130E-1,2.626718581E-2,9.892923385E-2,1.038469747E-2,1.028824587E-1
1.212686650E-1,3.054323792E-2,9.159886092E-2,1.221729256E-2,9.732678430E-2
1.237144980E-1,3.359756246E-2,8.487934619E-2,1.221729256E-2,9.210082438E-2
1.261594980E-1,3.543015569E-2,7.754897326E-2,1.160642691E-2,8.604561774E-2
1.286037170E-1,3.909534588E-2,6.777513772E-2,1.282815635E-2,7.928730641E-2
1.310487690E-1,4.092793912E-2,5.800130591E-2,1.282815635E-2,7.213743330E-2
1.334945510E-1,4.520399123E-2,4.883832857E-2,1.160642691E-2,6.755214509E-2
1.359396030E-1,4.642572254E-2,3.723190352E-2,1.343902200E-2,6.100958667E-2
1.383838210E-1,4.948004335E-2,2.745806798E-2,1.343902200E-2,5.816207957E-2
1.408288730E-1,5.009090900E-2,1.707336679E-2,1.466075052E-2,5.491390192E-2
1.432746550E-1,5.192350596E-2,6.077799015E-3,1.343902200E-2,5.397774935E-2
1.457197070E-1,5.314523354E-2,-4.306900315E-3,1.221729256E-2,5.470125662E-2
1.481639260E-1,5.558869243E-2,-1.896765269E-2,1.343902200E-2,6.025348029E-2
1.506089260E-1,5.681042373E-2,-2.935235202E-2,1.221729256E-2,6.510182065E-2
1.530547590E-1,5.803215131E-2,-4.034791887E-2,1.221729256E-2,7.172828856E-2
1.554998110E-1,6.047561020E-2,-5.134348199E-2,1.221729256E-2,8.026652359E-2
1.579440300E-1,6.108647585E-2,-6.050645560E-2,1.099556312E-2,8.668039634E-2
1.603890300E-1,6.047561020E-2,-6.844769418E-2,1.038469747E-2,9.192512284E-2
1.628348630E-1,6.169734150E-2,-7.516720146E-2,1.038469747E-2,9.779832343E-2
1.652798630E-1,6.047561020E-2,-7.944326103E-2,1.099556312E-2,1.004461724E-1
1.677241340E-1,6.047561020E-2,-8.433017880E-2,1.160642691E-2,1.044202453E-1
1.701691340E-1,5.986474454E-2,-8.616276830E-2,9.162968025E-3,1.053174737E-1
1.726149670E-1,5.864301696E-2,-8.799536526E-2,9.162968025E-3,1.061421110E-1
1.750599670E-1,5.925387889E-2,-8.677364141E-2,9.162968025E-3,1.054734421E-1
1.775042380E-1,5.681042373E-2,-8.616276830E-2,9.773833677E-3,1.036676165E-1
1.799492380E-1,5.497782677E-2,-8.494103700E-2,7.941238582E-3,1.014918936E-1
1.823950710E-1,5.436696112E-2,-8.127585799E-2,6.719509605E-3,9.801368967E-2
1.848400710E-1,5.253436789E-2,-7.761066407E-2,6.719509605E-3,9.395970837E-2
1.872842900E-1,5.253436789E-2,-7.394547760E-2,6.108644884E-3,9.091264494E-2
1.897293420E-1,4.948004335E-2,-7.089114934E-2,5.497780163E-3,8.662595068E-2
1.921751760E-1,4.948004335E-2,-6.478250772E-2,6.108644884E-3,8.174572489E-2
1.946201760E-1,4.642572254E-2,-5.989558995E-2,6.108644884E-3,7.602726452E-2
1.970643940E-1,4.276053235E-2,-5.378694087E-2,3.665185999E-3,6.881084016E-2
1.995094460E-1,4.520399123E-2,-4.767829552E-2,4.886915442E-3,6.588249107E-2
2.019552800E-1,3.909534588E-2,-4.462397099E-2,4.276050720E-3,5.948133712E-2
2.044002800E-1,3.970620781E-2,-3.790445998E-2,5.497780163E-3,5.516843855E-2
2.068444980E-1,3.543015569E-2,-3.240667656E-2,4.886915442E-3,4.826355313E-2
2.092895510E-1,3.359756246E-2,-2.507629991E-2,4.276050720E-3,4.214144789E-2
2.117353840E-1,3.298669681E-2,-1.957851648E-2,4.276050720E-3,3.859695692E-2
2.141803840E-1,2.809977904E-2,-1.652419381E-2,4.886915442E-3,3.296253184E-2
2.166246030E-1,2.809977904E-2,-1.163727697E-2,6.719509605E-3,3.114764207E-2
2.190696550E-1,2.321286127E-2,-7.972088642E-3,4.886915442E-3,2.502544841E-2
2.215154360E-1,2.382372692E-2,-1.252577407E-3,4.886915442E-3,2.435201957E-2
2.239604880E-1,2.015853673E-2,-3.084616037E-5,3.665185999E-3,2.048904935E-2
2.264047070E-1,1.893680915E-2,3.634340363E-3,4.276050720E-3,1.975084253E-2
2.288497590E-1,1.588248461E-2,4.245205782E-3,3.665185999E-3,1.684365394E-2
2.312955400E-1,1.343902573E-2,8.521257900E-3,1.221727114E-3,1.595969504E-2
2.337405920E-1,1.160643063E-2,9.132123552E-3,2.443456557E-3,1.496914803E-2
2.361848110E-1,5.497783888E-3,1.035385113E-2,-2.328306437E-9,1.172296298E-2
2.386298630E-1,8.552107960E-3,1.157558244E-2,-2.328306437E-9,1.439210406E-2
2.410756440E-1,6.108661182E-4,1.157558244E-2,-1.221731771E-3,1.165589528E-2
2.435206960E-1,1.832595561E-3,1.462990697E-2,-1.832596492E-3,1.485769143E-2
2.459649150E-1,-1.832592767E-3,1.401904132E-2,-5.497784354E-3,1.516962586E-2
2.484099670E-1,-1.221728045E-3,1.707336679E-2,-8.552108891E-3,1.913455094E-2
2.508557480E-1,-6.108645815E-3,1.585163549E-2,-1.099556778E-2,2.023591886E-2
2.533008010E-1,-6.108645815E-3,1.707336679E-2,-1.343902666E-2,2.257039753E-2
2.557450190E-1,-8.552104235E-3,1.768423244E-2,-1.404989045E-2,2.415098312E-2
2.581900190E-1,-1.343902200E-2,1.646250114E-2,-1.649335027E-2,2.690077804E-2
2.606358530E-1,-1.343902200E-2,1.524076890E-2,-2.076940238E-2,2.905609101E-2
2.630809050E-1,-1.893680543E-2,1.340817567E-2,-2.260199562E-2,3.239185053E-2
2.655251230E-1,-1.710421033E-2,1.340817567E-2,-2.504545450E-2,3.316033741E-2
2.679701230E-1,-2.138026431E-2,9.132123552E-3,-2.871064469E-2,3.694336884E-2
2.704159570E-1,-2.015853301E-2,1.096471678E-2,-3.115410358E-2,3.869327638E-2
2.728609570E-1,-2.199112624E-2,7.910395972E-3,-3.237583116E-2,3.992966868E-2
2.753052280E-1,-2.260199189E-2,6.688664667E-3,-3.298669681E-2,4.054269896E-2
2.777502280E-1,-2.260199189E-2,6.688664667E-3,-3.543015569E-2,4.255448513E-2
2.801960610E-1,-2.565631643E-2,4.856071435E-3,-3.543015569E-2,4.401277014E-2
2.826410610E-1,-2.321285754E-2,4.245205782E-3,-3.604102135E-2,4.307915676E-2
2.850853320E-1,-2.687804401E-2,3.023478435E-3,-3.665188700E-2,4.555141592E-2
2.875303320E-1,-2.321285754E-2,4.856071435E-3,-3.787361458E-2,4.468589113E-2
2.899761650E-1,-2.748890966E-2,2.412612783E-3,-3.604102135E-2,4.539180625E-2
2.924211650E-1,-2.504545078E-2,4.856071435E-3,-3.604102135E-2,4.415666715E-2
2.948654360E-1,-2.626718208E-2,1.190881478E-3,-3.543015569E-2,4.412118523E-2
2.973104360E-1,-2.443458512E-2,2.412612783E-3,-3.604102135E-2,4.360991711E-2
2.997562690E-1,-2.443458512E-2,1.801747130E-3,-3.298669681E-2,4.109035665E-2
3.022012690E-1,-2.687804401E-2,5.800157669E-4,-3.237583116E-2,4.208277689E-2
3.046455400E-1,-2.260199189E-2,1.190881478E-3,-2.993237227E-2,3.752619280E-2
3.070905400E-1,-2.504545078E-2,-1.863441197E-3,-2.809977904E-2,3.768745945E-2
3.095363730E-1,-2.076939866E-2,-6.417118129E-4,-2.626718581E-2,3.349245833E-2
3.119813730E-1,-2.321285754E-2,-4.917764105E-3,-2.443459257E-2,3.405980730E-2
3.144255920E-1,-1.832594164E-2,-5.528629757E-3,-2.199113369E-2,2.915503121E-2
3.168706440E-1,-1.710421033E-2,-8.582954295E-3,-1.832594350E-2,2.649643977E-2
3.193164780E-1,-1.649334654E-2,-9.804681875E-3,-1.588248461E-2,2.490814293E-2
3.217614780E-1,-1.404988766E-2,-1.224814076E-2,-1.404989045E-2,2.334128782E-2
3.242056960E-1,-1.404988766E-2,-1.346987206E-2,-1.099556778E-2,2.235484975E-2
3.266507480E-1,-9.162969887E-3,-1.652419381E-2,-8.552108891E-3,2.073999915E-2
3.290965820E-1,-1.099556312E-2,-1.896765269E-2,-6.719513796E-3,2.293089886E-2
3.315415820E-1,-4.886916373E-3,-2.080024779E-2,-3.054325469E-3,2.158381717E-2
3.339858010E-1,-7.941240445E-3,-2.568716556E-2,-2.443461679E-3,2.699748653E-2
3.364308530E-1,-3.054322209E-3,-2.874148823E-2,-6.108670495E-4,2.890977670E-2
3.388766860E-1,-3.665186930E-3,-3.301754221E-2,1.221727114E-3,3.324280834E-2
3.413216860E-1,-6.108633243E-4,-3.607186675E-2,1.221727114E-3,3.609771935E-2
3.437659570E-1,1.396983862E-9,-4.340223968E-2,3.054321278E-3,4.350957697E-2
3.462109570E-1,1.396983862E-9,-4.767829552E-2,3.054321278E-3,4.777602686E-2
3.486567900E-1,6.108648609E-3,-5.256521329E-2,3.665185999E-3,5.304574276E-2
3.511017900E-1,3.665189724E-3,-5.989558995E-2,3.054321278E-3,6.008530760E-2
3.535460610E-1,9.773837402E-3,-6.417164207E-2,1.832591835E-3,6.493755412E-2
3.559910610E-1,5.497783888E-3,-7.089114934E-2,1.221727114E-3,7.111450836E-2
3.584368940E-1,1.099556684E-2,-7.455634326E-2,1.832591835E-3,7.538507281E-2
3.608818940E-1,1.038470119E-2,-8.188671619E-2,6.108623929E-4,8.254483303E-2
3.633261130E-1,1.099556684E-2,-8.616276830E-2,-2.443461679E-3,8.689588964E-2
3.657711650E-1,1.221729629E-2,-9.043882042E-2,-1.221731771E-3,9.126847866E-2
3.682169980E-1,1.160643063E-2,-9.410401434E-2,-3.665191121E-3,9.488787263E-2
3.706619980E-1,1.343902573E-2,-9.532574564E-2,-5.497784354E-3,9.642526032E-2
3.731062690E-1,1.160643063E-2,-9.960179776E-2,-7.330379449E-3,1.005433330E-1
3.755512690E-1,1.649335027E-2,-9.960179776E-2,-7.330379449E-3,1.012239259E-1
3.779971030E-1,1.160643063E-2,-1.020452604E-1,-8.552108891E-3,1.030586385E-1
3.804421030E-1,1.466075517E-2,-1.014343873E-1,-1.038470212E-2,1.030131773E-1
3.828863210E-1,1.221729629E-2,-1.026561186E-1,-1.099556778E-2,1.039636644E-1
3.853313730E-1,1.404989138E-2,-1.008235291E-1,-1.160643157E-2,1.024572726E-1
3.877772070E-1,1.282816008E-2,-1.008235291E-1,-1.282816101E-2,1.024427031E-1
3.902222070E-1,1.099556684E-2,-9.715833515E-2,-1.404989045E-2,9.878281227E-2
3.926664260E-1,1.221729629E-2,-9.288228303E-2,-1.404989045E-2,9.473003880E-2
3.951114780E-1,7.941242307E-3,-9.166055173E-2,-1.588248461E-2,9.336473312E-2
3.975573110E-1,1.221729629E-2,-8.555191010E-2,-1.527161989E-2,8.775884015E-2
4.000023110E-1,6.719513331E-3,-8.433017880E-2,-1.588248461E-2,8.607545662E-2
4.024465300E-1,9.773837402E-3,-7.516720146E-2,-1.588248461E-2,7.744604180E-2
4.048915820E-1,4.886919167E-3,-6.966942549E-2,-1.649335027E-2,7.176169891E-2
4.073374150E-1,6.719513331E-3,-6.294991076E-2,-1.649335027E-2,6.542074386E-2
4.097824150E-1,4.886919167E-3,-5.867385864E-2,-1.649335027E-2,6.114355461E-2
4.122266860E-1,1.832595561E-3,-5.073262006E-2,-1.588248461E-2,5.319220302E-2
4.146716860E-1,3.665189724E-3,-4.401310533E-2,-1.649335027E-2,4.714464614E-2
4.171175190E-1,-6.108633243E-4,-3.729359433E-2,-1.649335027E-2,4.078254449E-2
4.195625190E-1,6.108661182E-4,-2.690889314E-2,-1.588248461E-2,3.125243998E-2
4.220067380E-1,-4.276051652E-3,-2.263284102E-2,-1.649335027E-2,2.832950253E-2
4.244517900E-1,-6.108633243E-4,-1.652419381E-2,-1.771507785E-2,2.423316154E-2
4.268976230E-1,-2.443457488E-3,-1.408073585E-2,-1.710421592E-2,2.228882700E-2
4.293426230E-1,-1.221728045E-3,-6.750359200E-3,-1.832594350E-2,1.956783519E-2
4.317868940E-1,-3.054322209E-3,-2.474304987E-3,-1.710421592E-2,1.755007896E-2
4.342318940E-1,-3.054322209E-3,1.190881478E-3,-1.893680915E-2,1.921847610E-2
4.366777280E-1,-1.832592767E-3,3.634340363E-3,-1.893680915E-2,1.936929444E-2
4.391227280E-1,-5.497781094E-3,6.688664667E-3,-1.954767480E-2,2.137932231E-2
4.415669980E-1,-1.221728045E-3,9.742989205E-3,-1.893680915E-2,2.133122591E-2
4.440119980E-1,-5.497781094E-3,9.742989205E-3,-1.893680915E-2,2.199441239E-2
4.464578320E-1,-6.108633243E-4,1.462990697E-2,-1.893680915E-2,2.393762881E-2
4.489028320E-1,-1.832592767E-3,1.279731374E-2,-1.832594350E-2,2.242698911E-2
4.513471030E-1,6.108661182E-4,1.585163549E-2,-1.832594350E-2,2.423814577E-2
4.537921030E-1,1.221730839E-3,1.585163549E-2,-1.649335027E-2,2.290846081E-2
4.562379360E-1,1.221730839E-3,1.646250114E-2,-1.649335027E-2,2.333532029E-2
4.586829360E-1,6.108648609E-3,1.890596002E-2,-1.404989045E-2,2.433413927E-2
4.611272070E-1,3.054325003E-3,1.890596002E-2,-1.404989045E-2,2.375212932E-2
4.635722070E-1,9.773837402E-3,2.073855326E-2,-1.038470212E-2,2.516858214E-2
4.660180400E-1,5.497783888E-3,1.890596002E-2,-9.162972681E-3,2.171683726E-2
4.684630400E-1,1.099556684E-2,2.134941891E-2,-7.330379449E-3,2.510845756E-2
4.709073110E-1,9.773837402E-3,1.890596002E-2,-6.108650006E-3,2.214224078E-2
4.733523110E-1,1.221729629E-2,2.073855326E-2,-3.665191121E-3,2.434714656E-2
4.757981440E-1,1.282816008E-2,1.707336679E-2,-1.832596492E-3,2.143408394E-2
4.782431960E-1,1.527161896E-2,1.646250114E-2,-1.832596492E-3,2.252986239E-2
4.806874150E-1,1.771507785E-2,1.768423244E-2,-2.328306437E-9,2.503110186E-2
4.831324150E-1,1.527161896E-2,1.462990697E-2,1.832591835E-3,2.122769221E-2
4.855782480E-1,2.076940238E-2,1.707336679E-2,3.054321278E-3,2.705913538E-2
4.880233010E-1,1.832594350E-2,1.401904132E-2,4.886915442E-3,2.358507298E-2
4.904675190E-1,2.382372692E-2,1.462990697E-2,4.886915442E-3,2.838108675E-2
4.929125190E-1,2.138026804E-2,1.279731374E-2,4.886915442E-3,2.539230283E-2
4.953583530E-1,2.443459257E-2,1.462990697E-2,6.719509605E-3,2.926149862E-2
4.978034050E-1,2.382372692E-2,1.096471678E-2,6.719509605E-3,2.707299001E-2
5.002476230E-1,2.321286127E-2,1.218644809E-2,8.552104235E-3,2.757689127E-2
5.026926230E-1,2.626718581E-2,9.132123552E-3,9.162968025E-3,2.928003951E-2
5.051384570E-1,2.382372692E-2,6.077799015E-3,8.552104235E-3,2.603167479E-2
5.075835090E-1,2.748891339E-2,6.077799015E-3,9.162968025E-3,2.960641794E-2
5.100277280E-1,2.382372692E-2,1.190881478E-3,9.162968025E-3,2.555285006E-2
5.124727280E-1,2.626718581E-2,1.801747130E-3,9.773833677E-3,2.808450049E-2
5.149185610E-1,2.504545450E-2,-4.306900315E-3,8.552104235E-3,2.681347923E-2
5.173636130E-1,2.871064469E-2,-6.750359200E-3,9.162968025E-3,3.088411325E-2
5.198078320E-1,2.748891339E-2,-1.102641318E-2,1.221729256E-2,3.203879499E-2
5.222528320E-1,2.687805146E-2,-1.408073585E-2,1.038469747E-2,3.207083900E-2
5.246986650E-1,2.993237227E-2,-1.896765269E-2,9.773833677E-3,3.675930608E-2
5.271437170E-1,2.626718581E-2,-2.507629991E-2,9.162968025E-3,3.745324886E-2
5.295879360E-1,2.993237227E-2,-2.629802935E-2,7.941238582E-3,4.062753411E-2
5.320329880E-1,2.504545450E-2,-3.179581091E-2,6.719509605E-3,4.102926019E-2
5.344787690E-1,2.932151034E-2,-3.362840414E-2,7.941238582E-3,4.531758824E-2
5.369238210E-1,2.565632015E-2,-3.851532191E-2,6.719509605E-3,4.676353916E-2
5.393680400E-1,2.565632015E-2,-3.912618756E-2,5.497780163E-3,4.710977503E-2
5.418130920E-1,2.382372692E-2,-4.279137775E-2,4.886915442E-3,4.921944653E-2
5.442588730E-1,2.382372692E-2,-4.523483664E-2,2.443456557E-3,5.118330675E-2
5.467039260E-1,2.565632015E-2,-4.462397099E-2,2.443456557E-3,5.153169928E-2
5.491481440E-1,2.015853673E-2,-4.584570229E-2,1.832591835E-3,5.011540097E-2
5.515931960E-1,2.382372692E-2,-4.462397099E-2,1.832591835E-3,5.061844668E-2
5.540390300E-1,1.954767480E-2,-4.584570229E-2,-3.054325469E-3,4.993264376E-2
5.564840300E-1,2.138026804E-2,-4.401310533E-2,-2.443461679E-3,4.899224232E-2
5.589282480E-1,1.710421406E-2,-4.401310533E-2,-3.054325469E-3,4.731845817E-2
5.613733010E-1,1.954767480E-2,-4.218051210E-2,-4.276054911E-3,4.668609897E-2
5.638191340E-1,1.588248461E-2,-4.340223968E-2,-3.054325469E-3,4.631777878E-2
5.662641340E-1,1.527161896E-2,-4.034791887E-2,-3.054325469E-3,4.324934458E-2
5.687083530E-1,1.588248461E-2,-3.912618756E-2,-3.054325469E-3,4.233722682E-2
5.711534050E-1,1.404989138E-2,-4.034791887E-2,-4.276054911E-3,4.293761347E-2
5.735992380E-1,1.710421406E-2,-3.790445998E-2,-4.276054911E-3,4.180414897E-2
5.760442380E-1,1.099556684E-2,-3.790445998E-2,-4.276054911E-3,3.969805061E-2
5.784885090E-1,1.466075517E-2,-3.362840414E-2,-3.054325469E-3,3.681217477E-2
5.809335090E-1,1.160643063E-2,-3.485013545E-2,-1.832596492E-3,3.677770497E-2
5.833793420E-1,1.282816008E-2,-3.179581091E-2,-1.832596492E-3,3.433502137E-2
5.858243420E-1,1.160643063E-2,-3.118494712E-2,-2.328306437E-9,3.327476760E-2
5.882686130E-1,1.221729629E-2,-3.057408333E-2,-6.108670495E-4,3.293038200E-2
5.907136130E-1,1.343902573E-2,-2.751975879E-2,-2.328306437E-9,3.062588017E-2
5.931594460E-1,9.162971750E-3,-2.629802935E-2,-6.108670495E-4,2.785533266E-2
5.956044980E-1,1.160643063E-2,-2.507629991E-2,-1.221731771E-3,2.765904332E-2
5.980487170E-1,8.552107960E-3,-2.446543425E-2,-6.108670495E-4,2.592429714E-2
6.004937170E-1,1.466075517E-2,-2.324370667E-2,1.221727114E-3,2.750818531E-2
6.029395510E-1,1.038470119E-2,-2.446543425E-2,-2.328306437E-9,2.657817699E-2
6.053846030E-1,1.404989138E-2,-2.324370667E-2,6.108623929E-4,2.716693764E-2
6.078288210E-1,1.221729629E-2,-2.385457046E-2,1.221727114E-3,2.682900441E-2
6.102738210E-1,1.343902573E-2,-2.507629991E-2,-2.328306437E-9,2.845045219E-2
6.127196550E-1,1.466075517E-2,-2.690889314E-2,-2.328306437E-9,3.064353557E-2
6.151647070E-1,1.160643063E-2,-2.751975879E-2,6.108623929E-4,2.987339132E-2
6.176089260E-1,1.527161896E-2,-2.813062444E-2,1.221727114E-3,3.203196832E-2
6.200539260E-1,1.038470119E-2,-3.057408333E-2,-6.108670495E-4,3.229535181E-2
6.224997590E-1,1.588248461E-2,-2.935235202E-2,6.108623929E-4,3.337944037E-2
6.249448110E-1,1.282816008E-2,-3.240667656E-2,6.108623929E-4,3.485867940E-2
6.273890300E-1,1.588248461E-2,-3.240667656E-2,1.832591835E-3,3.613591560E-2
6.298340820E-1,1.466075517E-2,-3.668272868E-2,1.221727114E-3,3.952281547E-2
6.322799150E-1,1.588248461E-2,-3.546100110E-2,1.221727114E-3,3.887452294E-2
6.347249150E-1,1.832594350E-2,-3.668272868E-2,1.832591835E-3,4.104657332E-2
6.371691340E-1,1.649335027E-2,-3.790445998E-2,6.108623929E-4,4.134188968E-2
6.396141860E-1,2.015853673E-2,-3.729359433E-2,3.054321278E-3,4.250303118E-2
6.420600190E-1,1.771507785E-2,-3.912618756E-2,6.108623929E-4,4.295411144E-2
6.445050190E-1,2.138026804E-2,-3.973705322E-2,3.054321278E-3,4.522696251E-2
6.469492380E-1,1.893680915E-2,-4.218051210E-2,6.108623929E-4,4.624036651E-2
6.493942900E-1,2.199113369E-2,-4.218051210E-2,6.108623929E-4,4.757287793E-2
6.518401230E-1,2.138026804E-2,-4.401310533E-2,-6.108670495E-4,4.893508415E-2
6.542851230E-1,2.199113369E-2,-4.218051210E-2,-1.832596492E-3,4.760424321E-2
6.567293940E-1,2.382372692E-2,-4.401310533E-2,-6.108670495E-4,5.005093969E-2
6.591743940E-1,2.260199562E-2,-4.401310533E-2,-3.054325469E-3,4.957148930E-2
6.616202280E-1,2.565632015E-2,-4.523483664E-2,-4.276054911E-3,5.217970731E-2
6.640652280E-1,2.199113369E-2,-4.706742987E-2,-4.276054911E-3,5.212712884E-2
6.665094980E-1,2.687805146E-2,-4.584570229E-2,-3.665191121E-3,5.326998869E-2
6.689544980E-1,2.382372692E-2,-4.706742987E-2,-5.497784354E-3,5.303902857E-2
6.714003320E-1,2.748891339E-2,-4.523483664E-2,-4.886920564E-3,5.315743408E-2
6.738453840E-1,2.748891339E-2,-4.767829552E-2,-4.886920564E-3,5.525162636E-2
6.762896030E-1,2.809977904E-2,-4.828915745E-2,-4.886920564E-3,5.608317307E-2
6.787346030E-1,2.932151034E-2,-4.645656422E-2,-4.886920564E-3,5.515292667E-2
6.811804360E-1,2.687805146E-2,-4.706742987E-2,-4.276054911E-3,5.436963537E-2
6.836254880E-1,2.809977904E-2,-4.706742987E-2,-3.054325469E-3,5.490236280E-2
6.860697070E-1,2.443459257E-2,-4.951088876E-2,-1.832596492E-3,5.524251831E-2
6.885147070E-1,2.932151034E-2,-4.890002310E-2,6.108623929E-4,5.702049089E-2
6.909605400E-1,2.504545450E-2,-5.195434764E-2,-1.221731771E-3,5.768900813E-2
6.934055920E-1,2.993237227E-2,-5.317607522E-2,1.221727114E-3,6.103387996E-2
6.958498110E-1,3.176496923E-2,-5.317607522E-2,2.443456557E-3,6.198934365E-2
6.982948630E-1,3.176496923E-2,-5.561953783E-2,3.054321278E-3,6.412390457E-2
7.007406440E-1,3.420842811E-2,-6.050645560E-2,3.054321278E-3,6.957425243E-2
7.031856960E-1,3.481929004E-2,-6.233904883E-2,1.221727114E-3,7.141451243E-2
7.056299150E-1,3.481929004E-2,-6.539336592E-2,1.832591835E-3,7.410825634E-2
7.080749670E-1,3.665188700E-2,-7.028029114E-2,6.108623929E-4,7.926571324E-2
7.105208010E-1,3.848448023E-2,-7.516720146E-2,-6.108670495E-4,8.444842540E-2
7.129658010E-1,4.092793912E-2,-8.005412668E-2,-1.221731771E-3,8.991802949E-2
7.154100190E-1,4.153880477E-2,-8.616276830E-2,-1.832596492E-3,9.567054590E-2
7.178550710E-1,4.153880477E-2,-9.166055173E-2,-3.665191121E-3,1.007003608E-1
7.203009050E-1,4.398226365E-2,-9.715833515E-2,-5.497784354E-3,1.067914193E-1
7.227459050E-1,4.459312558E-2,-1.026561186E-1,-7.330379449E-3,1.121630955E-1
7.251901760E-1,4.581485689E-2,-1.075430438E-1,-7.330379449E-3,1.171248985E-1
7.276351760E-1,4.703658819E-2,-1.148734167E-1,-8.552108891E-3,1.244245999E-1
7.300810090E-1,4.825831577E-2,-1.203712001E-1,-1.038470212E-2,1.300997037E-1
7.325260090E-1,4.948004335E-2,-1.258689910E-1,-1.221729722E-2,1.357959496E-1
7.349702800E-1,5.009090900E-2,-1.331993639E-1,-1.404989045E-2,1.429984935E-1
7.374152800E-1,5.009090900E-2,-1.386971474E-1,-1.649335027E-2,1.483847312E-1
7.398611130E-1,5.009090900E-2,-1.435840577E-1,-1.893680915E-2,1.532451746E-1
7.423061650E-1,5.131264031E-2,-1.490818411E-1,-2.015853673E-2,1.589488880E-1
7.447503840E-1,5.253436789E-2,-1.533578932E-1,-2.382372692E-2,1.638477134E-1
7.471953840E-1,5.314523354E-2,-1.588556916E-1,-2.565632015E-2,1.694632507E-1
7.496412170E-1,5.375609919E-2,-1.619100124E-1,-2.748891339E-2,1.728010725E-1
7.520862690E-1,5.436696112E-2,-1.655751914E-1,-3.054323792E-2,1.769287988E-1
7.545304880E-1,5.497782677E-2,-1.667969227E-1,-3.420842439E-2,1.789245404E-1
7.569755400E-1,5.436696112E-2,-1.680186540E-1,-3.665188700E-2,1.803590734E-1
7.594213210E-1,5.497782677E-2,-1.692403853E-1,-3.848448023E-2,1.820602226E-1
7.618663730E-1,5.375609919E-2,-1.704621166E-1,-4.153880477E-2,1.835007458E-1
7.643105920E-1,5.253436789E-2,-1.692403853E-1,-4.276053235E-2,1.822927068E-1
7.667556440E-1,5.253436789E-2,-1.692403853E-1,-4.337139800E-2,1.824369644E-1
7.692014780E-1,5.314523354E-2,-1.686295271E-1,-4.398225993E-2,1.821943260E-1
7.716464780E-1,5.253436789E-2,-1.667969227E-1,-4.581485689E-2,1.807763102E-1
7.740906960E-1,5.253436789E-2,-1.649643332E-1,-4.703658447E-2,1.794032645E-1
7.765357480E-1,5.131264031E-2,-1.631317437E-1,-4.703658447E-2,1.773623216E-1
7.789815820E-1,4.948004335E-2,-1.625208706E-1,-4.764745012E-2,1.764414565E-1
7.814265820E-1,4.886918142E-2,-1.606882811E-1,-4.764745012E-2,1.745829318E-1
7.838708530E-1,4.825831577E-2,-1.576339602E-1,-4.703658447E-2,1.714344503E-1
7.863158530E-1,4.764745012E-2,-1.545796245E-1,-4.398225993E-2,1.676292904E-1
7.887616860E-1,4.642572254E-2,-1.515253037E-1,-4.337139800E-2,1.643056406E-1
7.912066860E-1,4.581485689E-2,-1.472492516E-1,-4.214966670E-2,1.598685010E-1
7.936509570E-1,4.459312558E-2,-1.441949308E-1,-4.092793912E-2,1.563835705E-1
7.960959570E-1,4.214967042E-2,-1.386971474E-1,-3.909534216E-2,1.501397322E-1
7.985417900E-1,4.214967042E-2,-1.338102221E-1,-3.726274893E-2,1.451560633E-1
8.009868420E-1,4.092793912E-2,-1.295341700E-1,-3.481929004E-2,1.402375854E-1
8.034310610E-1,3.848448023E-2,-1.240363792E-1,-3.420842439E-2,1.342992735E-1
8.058760610E-1,3.726275265E-2,-1.191494688E-1,-3.420842439E-2,1.294423615E-1
8.083218940E-1,3.726275265E-2,-1.130408272E-1,-3.115410358E-2,1.230338145E-1
8.107669460E-1,3.726275265E-2,-1.063213125E-1,-3.115410358E-2,1.168901724E-1
8.132111650E-1,3.726275265E-2,-1.008235291E-1,-3.237583116E-2,1.122590361E-1
8.156562170E-1,3.726275265E-2,-9.593660384E-2,-3.115410358E-2,1.075310321E-1
8.181019980E-1,3.665188700E-2,-8.860623091E-2,-3.054323792E-2,1.006345585E-1
8.205470510E-1,3.665188700E-2,-8.310844749E-2,-2.748891339E-2,9.490002753E-2
8.229912690E-1,3.787361458E-2,-7.699980587E-2,-2.565632015E-2,8.956353917E-2
8.254363210E-1,3.909534588E-2,-7.089114934E-2,-2.626718581E-2,8.511149261E-2
8.278821550E-1,4.031707346E-2,-6.417164207E-2,-2.626718581E-2,8.020867228E-2
8.303271550E-1,4.153880477E-2,-5.684126541E-2,-2.687805146E-2,7.535802151E-2
8.327713730E-1,4.092793912E-2,-5.134348199E-2,-2.382372692E-2,6.984854549E-2
8.352164260E-1,4.031707346E-2,-4.584570229E-2,-2.199113369E-2,6.489148474E-2
8.376622590E-1,4.092793912E-2,-4.034791887E-2,-2.076940238E-2,6.110989145E-2
8.401072590E-1,4.153880477E-2,-3.668272868E-2,-2.015853673E-2,5.897000499E-2
8.425515300E-1,4.153880477E-2,-3.240667656E-2,-1.771507785E-2,5.558317165E-2
8.449965300E-1,4.092793912E-2,-2.935235202E-2,-1.649335027E-2,5.299705060E-2
8.474423630E-1,4.153880477E-2,-2.629802935E-2,-1.527161989E-2,5.148088017E-2
8.498874150E-1,4.337139800E-2,-2.507629991E-2,-1.466075610E-2,5.219996888E-2
8.523316340E-1,4.459312558E-2,-2.507629991E-2,-1.343902666E-2,5.289588929E-2
8.547766340E-1,4.459312558E-2,-2.385457046E-2,-1.466075610E-2,5.265477329E-2
8.572224670E-1,4.398226365E-2,-2.324370667E-2,-1.527161989E-2,5.203779194E-2
8.596675190E-1,4.520399123E-2,-2.446543425E-2,-1.404989045E-2,5.328562394E-2
8.621117380E-1,4.642572254E-2,-2.507629991E-2,-1.527161989E-2,5.493078285E-2
8.645567380E-1,4.581485689E-2,-2.629802935E-2,-1.588248461E-2,5.516195044E-2
8.670025710E-1,4.581485689E-2,-2.629802935E-2,-1.649335027E-2,5.534092574E-2
8.694476230E-1,4.764745012E-2,-2.629802935E-2,-1.771507785E-2,5.723364250E-2
8.718918420E-1,4.642572254E-2,-2.690889314E-2,-1.771507785E-2,5.650893935E-2
8.743368940E-1,4.520399123E-2,-2.629802935E-2,-1.832594350E-2,5.541504648E-2
8.767827280E-1,4.642572254E-2,-2.690889314E-2,-1.954767480E-2,5.710996265E-2
8.792277280E-1,4.764745012E-2,-2.751975879E-2,-2.015853673E-2,5.860019821E-2
8.816719460E-1,4.642572254E-2,-2.935235202E-2,-1.954767480E-2,5.830111382E-2
8.841169980E-1,4.581485689E-2,-2.996321768E-2,-1.954767480E-2,5.812836756E-2
8.865628320E-1,4.581485689E-2,-3.240667656E-2,-1.954767480E-2,5.942478765E-2
8.890078320E-1,4.276053235E-2,-3.240667656E-2,-1.771507785E-2,5.650203355E-2
8.914521030E-1,4.153880477E-2,-3.546100110E-2,-1.771507785E-2,5.741758340E-2
8.938971030E-1,3.970620781E-2,-3.546100110E-2,-1.771507785E-2,5.610605601E-2
8.963429360E-1,3.787361458E-2,-3.851532191E-2,-1.649335027E-2,5.647894569E-2
8.987879880E-1,3.726275265E-2,-3.912618756E-2,-1.527161989E-2,5.614796223E-2
9.012322070E-1,3.604102135E-2,-4.156964645E-2,-1.404989045E-2,5.678371375E-2
9.036772070E-1,3.604102135E-2,-4.340223968E-2,-1.404989045E-2,5.813870527E-2
9.061230400E-1,3.420842811E-2,-4.584570229E-2,-1.343902666E-2,5.875927510E-2
9.085680920E-1,3.237583116E-2,-5.012175441E-2,-1.282816101E-2,6.103233916E-2
9.110123110E-1,3.237583116E-2,-5.317607522E-2,-1.466075610E-2,6.395957464E-2
9.134573630E-1,3.237583116E-2,-5.745213106E-2,-1.466075610E-2,6.755649174E-2
9.159031440E-1,3.176496923E-2,-6.233904883E-2,-1.588248461E-2,7.174554758E-2
9.183481960E-1,3.298669681E-2,-6.478250772E-2,-1.710421592E-2,7.468232505E-2
9.207924150E-1,3.420842811E-2,-6.661509722E-2,-1.710421592E-2,7.681368325E-2
9.232374670E-1,3.176496923E-2,-6.966942549E-2,-1.710421592E-2,7.845633384E-2
9.256833010E-1,3.176496923E-2,-7.211288065E-2,-1.771507785E-2,8.076574031E-2
9.281283010E-1,3.176496923E-2,-7.394547760E-2,-1.832594350E-2,8.253960948E-2
9.305725190E-1,3.176496923E-2,-7.516720146E-2,-2.015853673E-2,8.405645751E-2
9.330175710E-1,3.176496923E-2,-7.455634326E-2,-2.015853673E-2,8.351064719E-2
9.354634050E-1,3.176496923E-2,-7.516720146E-2,-2.199113369E-2,8.451468160E-2
9.379084050E-1,3.115410358E-2,-7.577807456E-2,-2.321286127E-2,8.515710001E-2
9.403526760E-1,3.054323792E-2,-7.638893276E-2,-2.260199562E-2,8.531710636E-2
9.427976760E-1,3.176496923E-2,-7.577807456E-2,-2.321286127E-2,8.538247351E-2
9.452435090E-1,3.298669681E-2,-7.516720146E-2,-2.504545450E-2,8.582252113E-2
9.476885610E-1,3.176496923E-2,-7.699980587E-2,-2.504545450E-2,8.697849254E-2
9.501327800E-1,3.237583116E-2,-7.944326103E-2,-2.443459257E-2,8.919907780E-2
9.525777800E-1,3.237583116E-2,-8.005412668E-2,-2.748891339E-2,9.062283377E-2
9.550236130E-1,3.543015569E-2,-8.066498488E-2,-2.687805146E-2,9.211170050E-2
9.574686650E-1,3.420842811E-2,-8.066498488E-2,-2.626718581E-2,9.147142390E-2
9.599128840E-1,3.481929004E-2,-8.005412668E-2,-2.626718581E-2,9.116474762E-2
9.623579360E-1,3.604102135E-2,-8.127585799E-2,-2.809977904E-2,9.324332627E-2
9.648037170E-1,3.604102135E-2,-7.944326103E-2,-2.809977904E-2,9.165033838E-2
9.672487690E-1,3.604102135E-2,-7.699980587E-2,-2.748891339E-2,8.935080124E-2
9.696929880E-1,3.665188700E-2,-7.638893276E-2,-2.748891339E-2,8.907452065E-2
9.721380400E-1,3.481929004E-2,-7.333461195E-2,-2.687805146E-2,8.551478188E-2
9.745838730E-1,3.543015569E-2,-7.394547760E-2,-2.565632015E-2,8.591551871E-2
9.770288730E-1,3.543015569E-2,-7.272375375E-2,-2.565632015E-2,8.486628928E-2
9.794731440E-1,3.604102135E-2,-7.272375375E-2,-2.565632015E-2,8.512312461E-2
9.819181440E-1,3.604102135E-2,-7.333461195E-2,-2.565632015E-2,8.564559121E-2
9.843639780E-1,3.420842811E-2,-7.394547760E-2,-2.626718581E-2,8.560441147E-2
9.868090300E-1,3.481929004E-2,-7.638893276E-2,-2.565632015E-2,8.778324881E-2
9.892532480E-1,3.604102135E-2,-7.699980587E-2,-2.443459257E-2,8.845888671E-2
9.916982480E-1,3.665188700E-2,-7.944326103E-2,-2.504545450E-2,9.100476545E-2
9.941440820E-1,3.665188700E-2,-8.249758929E-2,-2.565632015E-2,9.384806776E-2
9.965891340E-1,3.604102135E-2,-8.494103700E-2,-2.504545450E-2,9.560967408E-2
9.990333530E-1,3.481929004E-2,-8.738449961E-2,-2.504545450E-2,9.734325104E-2
1.001478405E0,3.359756246E-2,-9.043882042E-2,-2.565632015E-2,9.983097318E-2
1.003924186E0,3.359756246E-2,-9.349314868E-2,-2.626718581E-2,1.027605474E-1
1.006369238E0,3.298669681E-2,-9.776920825E-2,-2.626718581E-2,1.064749046E-1
1.008813457E0,3.298669681E-2,-1.002126560E-1,-2.748891339E-2,1.090244878E-1
1.011258509E0,3.359756246E-2,-1.026561186E-1,-2.871064469E-2,1.117648245E-1
1.013704342E0,3.298669681E-2,-1.050995812E-1,-2.993237227E-2,1.141489862E-1
1.016149342E0,3.176496923E-2,-1.057104394E-1,-3.176496923E-2,1.148595818E-1
1.018593561E0,3.115410358E-2,-1.057104394E-1,-3.237583116E-2,1.148628295E-1
1.021038613E0,3.176496923E-2,-1.069321707E-1,-3.481929004E-2,1.168583987E-1
1.023484446E0,3.176496923E-2,-1.069321707E-1,-3.543015569E-2,1.170418657E-1
1.025929446E0,3.115410358E-2,-1.057104394E-1,-3.543015569E-2,1.157608358E-1
1.028373717E0,3.237583116E-2,-1.063213125E-1,-3.726274893E-2,1.172217061E-1
1.030818717E0,3.115410358E-2,-1.044887081E-1,-3.787361458E-2,1.154247762E-1
1.033264551E0,3.298669681E-2,-1.026561186E-1,-3.787361458E-2,1.142839076E-1
1.035709603E0,3.298669681E-2,-1.008235291E-1,-3.848448023E-2,1.128475139E-1
1.038153821E0,3.420842811E-2,-9.532574564E-2,-4.031707346E-2,1.090077096E-1
1.040598873E0,3.604102135E-2,-9.410401434E-2,-3.848448023E-2,1.078683269E-1
1.043044655E0,3.726275265E-2,-8.982796222E-2,-3.909534216E-2,1.048142228E-1
1.045489707E0,3.970620781E-2,-8.371931314E-2,-4.031707346E-2,1.010493580E-1
1.047933926E0,3.970620781E-2,-7.944326103E-2,-3.909534216E-2,9.703741773E-2
1.050378978E0,4.214967042E-2,-7.455634326E-2,-3.604102135E-2,9.292038666E-2
1.052824811E0,4.398226365E-2,-7.028029114E-2,-3.604102135E-2,9.040306443E-2
1.055269811E0,4.703658819E-2,-6.783682853E-2,-3.359756246E-2,8.912391451E-2
1.057714030E0,4.886918142E-2,-6.478250772E-2,-3.298669681E-2,8.759618922E-2
1.060159082E0,5.131264031E-2,-6.233904883E-2,-3.115410358E-2,8.654318133E-2
1.062604915E0,5.253436789E-2,-5.867385864E-2,-2.932151034E-2,8.403708983E-2
1.065049915E0,5.436696112E-2,-5.806299299E-2,-2.748891339E-2,8.415888530E-2
1.067494186E0,5.497782677E-2,-5.684126541E-2,-2.626718581E-2,8.332740210E-2
1.069939186E0,5.681042373E-2,-5.439780653E-2,-2.382372692E-2,8.218342633E-2
1.072385019E0,5.864301696E-2,-5.256521329E-2,-2.138026804E-2,8.160404983E-2
1.074830071E0,6.352993101E-2,-5.256521329E-2,-2.015853673E-2,8.488533669E-2
1.077274290E0,6.414079666E-2,-4.951088876E-2,-1.954767480E-2,8.335155363E-2
1.079719290E0,6.291906536E-2,-4.767829552E-2,-1.771507785E-2,8.090644370E-2
1.082165123E0,6.597339362E-2,-4.645656422E-2,-1.527161989E-2,8.212139428E-2
1.084610176E0,6.719512492E-2,-4.523483664E-2,-1.588248461E-2,8.254470653E-2
1.087054394E0,6.658425927E-2,-4.462397099E-2,-1.527161989E-2,8.159647507E-2
1.089499446E0,6.902771443E-2,-4.401310533E-2,-1.649335027E-2,8.351053469E-2
1.091945280E0,7.024944574E-2,-4.279137775E-2,-1.710421592E-2,8.401571781E-2
1.094390280E0,7.147117704E-2,-4.279137775E-2,-1.771507785E-2,8.516487034E-2
1.096834498E0,7.208204269E-2,-4.156964645E-2,-1.893680915E-2,8.533732551E-2
1.099279551E0,7.391463220E-2,-3.790445998E-2,-2.138026804E-2,8.577433650E-2
1.101725384E0,7.269290835E-2,-3.668272868E-2,-2.260199562E-2,8.450285032E-2
1.104170384E0,7.147117704E-2,-3.668272868E-2,-2.382372692E-2,8.379332727E-2
1.106614655E0,7.269290835E-2,-3.607186675E-2,-2.626718581E-2,8.529597614E-2
1.109059655E0,7.330376655E-2,-3.362840414E-2,-2.871064469E-2,8.560731788E-2
1.111505488E0,7.147117704E-2,-3.179581091E-2,-2.932151034E-2,8.353953380E-2
1.113950540E0,7.024944574E-2,-2.996321768E-2,-3.054323792E-2,8.225368334E-2
1.116394759E0,7.086031139E-2,-2.813062444E-2,-3.237583116E-2,8.282940423E-2
1.118839759E0,6.902771443E-2,-2.507629991E-2,-3.237583116E-2,8.026107786E-2
1.121285592E0,7.086031139E-2,-1.957851648E-2,-3.359756246E-2,8.082882061E-2
1.123730644E0,7.024944574E-2,-1.530246530E-2,-3.176496923E-2,7.860129350E-2
1.126174863E0,7.208204269E-2,-9.804681875E-3,-3.176496923E-2,7.937862392E-2
1.128619915E0,7.452549785E-2,-7.361222990E-3,-3.176496923E-2,8.134648551E-2
1.131065696E0,7.452549785E-2,-1.863441197E-3,-3.115410358E-2,8.079666090E-2
1.133510748E0,7.513636351E-2,1.801747130E-3,-3.054323792E-2,8.112711505E-2
1.135954967E0,7.574722916E-2,3.634340363E-3,-2.809977904E-2,8.087304086E-2
1.138400019E0,7.574722916E-2,6.077799015E-3,-2.626718581E-2,8.040240927E-2
1.140845853E0,7.696896046E-2,7.299530320E-3,-2.687805146E-2,8.185312253E-2
1.143290853E0,7.757981867E-2,7.910395972E-3,-2.565632015E-2,8.209414956E-2
1.145735123E0,7.757981867E-2,8.521257900E-3,-2.443459257E-2,8.178196265E-2
1.148180123E0,7.941241562E-2,9.132123552E-3,-2.443459257E-2,8.358694127E-2
1.150625957E0,7.941241562E-2,9.132123552E-3,-2.321286127E-2,8.323799832E-2
1.153071009E0,7.941241562E-2,9.742989205E-3,-2.076940238E-2,8.265969797E-2
1.155515228E0,8.063414693E-2,1.035385113E-2,-2.076940238E-2,8.390730576E-2
1.157960228E0,8.124501258E-2,1.035385113E-2,-1.954767480E-2,8.420252902E-2
1.160406061E0,8.246674389E-2,1.157558244E-2,-1.954767480E-2,8.553870204E-2
1.162851113E0,8.307760209E-2,1.279731374E-2,-1.893680915E-2,8.616415698E-2
1.165295332E0,8.307760209E-2,1.462990697E-2,-1.832594350E-2,8.632359094E-2
1.167740384E0,8.429933339E-2,1.524076890E-2,-1.893680915E-2,8.773403780E-2
1.170186217E0,8.429933339E-2,1.707336679E-2,-1.893680915E-2,8.807088171E-2
1.172631217E0,8.368846774E-2,1.585163549E-2,-2.015853673E-2,8.752942696E-2
1.175075436E0,8.368846774E-2,1.890596002E-2,-2.015853673E-2,8.813377083E-2
1.177520488E0,8.552106470E-2,1.890596002E-2,-2.138026804E-2,9.015766020E-2
1.179966321E0,8.429933339E-2,1.890596002E-2,-2.199113369E-2,8.914831965E-2
1.182411321E0,8.429933339E-2,2.012768760E-2,-2.138026804E-2,8.926711197E-2
1.184855592E0,8.613193035E-2,2.134941891E-2,-2.138026804E-2,9.127772442E-2
1.187300592E0,8.552106470E-2,2.196028456E-2,-2.199113369E-2,9.099294789E-2
1.189746426E0,8.613193035E-2,2.073855326E-2,-2.076940238E-2,9.099541248E-2
1.192191478E0,8.552106470E-2,1.890596002E-2,-2.138026804E-2,9.015766020E-2
1.194635696E0,8.674279600E-2,2.012768760E-2,-2.138026804E-2,9.157812145E-2
1.197080748E0,8.796451986E-2,1.951682568E-2,-2.015853673E-2,9.233108816E-2
1.199526530E0,8.918625116E-2,1.829509437E-2,-2.076940238E-2,9.338236423E-2
1.201971582E0,8.796451986E-2,1.768423244E-2,-2.138026804E-2,9.223667759E-2
1.204415801E0,8.918625116E-2,1.462990697E-2,-1.954767480E-2,9.246801158E-2
1.206860853E0,8.674279600E-2,1.524076890E-2,-2.199113369E-2,9.077556751E-2
1.209306686E0,8.979711682E-2,1.585163549E-2,-2.076940238E-2,9.352093141E-2
1.211751686E0,8.735365421E-2,1.585163549E-2,-2.260199562E-2,9.161214688E-2
1.214195957E0,9.162971377E-2,1.890596002E-2,-2.504545450E-2,9.685408903E-2
1.216640957E0,8.613193035E-2,2.073855326E-2,-2.687805146E-2,9.258091956E-2
1.219086790E0,8.796451986E-2,2.440374345E-2,-2.809977904E-2,9.551385779E-2
1.221531790E0,8.674279600E-2,2.562547103E-2,-3.115410358E-2,9.566376322E-2
1.223976061E0,8.857538551E-2,3.112325445E-2,-3.420842439E-2,9.992233076E-2
1.226421061E0,8.735365421E-2,3.539930657E-2,-3.604102135E-2,1.009094992E-1
1.228866894E0,8.674279600E-2,4.150795564E-2,-4.092793912E-2,1.045099002E-1
1.231311946E0,8.796451986E-2,4.578400776E-2,-4.459312558E-2,1.087312235E-1
1.233756165E0,8.491019905E-2,4.944919422E-2,-4.886917770E-2,1.097413379E-1
1.236201217E0,8.979711682E-2,5.616870895E-2,-5.192350224E-2,1.179597225E-1
1.238646998E0,8.491019905E-2,5.922302976E-2,-5.375609547E-2,1.166483046E-1
1.241092051E0,8.918625116E-2,6.472081691E-2,-5.803215131E-2,1.245419693E-1
1.243536269E0,8.857538551E-2,6.655340642E-2,-6.108647957E-2,1.265168479E-1
1.245981321E0,8.857538551E-2,7.021860033E-2,-6.352993101E-2,1.296622647E-1
1.248427155E0,8.552106470E-2,7.266204804E-2,-6.414079666E-2,1.292581430E-1
1.250872155E0,8.185587823E-2,7.266204804E-2,-6.597339362E-2,1.277992437E-1
1.253316426E0,8.124501258E-2,7.632724196E-2,-6.719511747E-2,1.301606075E-1
1.255761426E0,7.696896046E-2,7.571638376E-2,-6.658425927E-2,1.268489465E-1
1.258207259E0,7.941241562E-2,8.121416718E-2,-6.597339362E-2,1.313566191E-1
1.260652311E0,7.330376655E-2,7.999243587E-2,-6.536252797E-2,1.266668546E-1
1.263096530E0,7.574722916E-2,8.365761489E-2,-6.352993101E-2,1.295078816E-1
1.265541530E0,7.452549785E-2,8.182502538E-2,-6.169733778E-2,1.267120598E-1
1.267987363E0,7.574722916E-2,8.243588358E-2,-6.047561392E-2,1.272423574E-1
1.270432415E0,7.696896046E-2,7.999243587E-2,-5.803215131E-2,1.252626890E-1
1.272876634E0,7.574722916E-2,7.815983146E-2,-5.619955808E-2,1.224948665E-1
1.275321686E0,7.941241562E-2,7.815983146E-2,-5.314523354E-2,1.234492076E-1
1.277767467E0,7.635809481E-2,7.754897326E-2,-5.131264031E-2,1.203220219E-1
1.280212519E0,8.246674389E-2,7.815983146E-2,-4.886917770E-2,1.236847591E-1
1.282656738E0,7.819068432E-2,7.632724196E-2,-4.886917770E-2,1.196989035E-1
1.285101790E0,8.185587823E-2,7.938156277E-2,-4.581485689E-2,1.228853873E-1
1.287547623E0,8.002328128E-2,7.938156277E-2,-4.398225993E-2,1.209942033E-1
1.289992623E0,7.941241562E-2,8.121416718E-2,-4.092793912E-2,1.207359470E-1
1.292436894E0,7.819068432E-2,8.243588358E-2,-3.970620781E-2,1.203579701E-1
1.294881894E0,7.574722916E-2,8.426848799E-2,-3.848448023E-2,1.196656844E-1
1.297327728E0,7.880154997E-2,8.671195060E-2,-3.848448023E-2,1.233276201E-1
1.299772780E0,7.574722916E-2,8.610107750E-2,-3.848448023E-2,1.209631906E-1
1.302216998E0,7.696896046E-2,8.610107750E-2,-3.909534216E-2,1.219264623E-1
1.304662051E0,7.819068432E-2,8.732280880E-2,-3.909534216E-2,1.235617329E-1
1.307107832E0,7.635809481E-2,8.854454011E-2,-4.153880477E-2,1.240812900E-1
1.309552884E0,7.635809481E-2,8.854454011E-2,-4.520399123E-2,1.253558736E-1
1.311997103E0,7.635809481E-2,9.220971912E-2,-4.825831577E-2,1.290815865E-1
1.314442155E0,7.513636351E-2,9.709664434E-2,-5.192350224E-2,1.333014687E-1
1.316887988E0,7.391463220E-2,1.032052860E-1,-5.436696112E-2,1.380958738E-1
1.319332988E0,7.391463220E-2,1.099248007E-1,-5.742128566E-2,1.443746470E-1
1.321777259E0,7.330376655E-2,1.196986362E-1,-6.108647957E-2,1.530776394E-1
1.324222259E0,7.330376655E-2,1.300833225E-1,-6.230820343E-2,1.617943918E-1
1.326668092E0,7.269290835E-2,1.410788894E-1,-6.230820343E-2,1.704987512E-1
1.329113144E0,7.208204269E-2,1.545179188E-1,-6.352993101E-2,1.819551050E-1
1.331557363E0,7.086031139E-2,1.704003960E-1,-6.291906536E-2,1.949776589E-1
1.334002363E0,6.902771443E-2,1.838394254E-1,-6.047561392E-2,2.054727709E-1
1.336448196E0,6.719512492E-2,1.966675818E-1,-5.681042001E-2,2.154547432E-1
1.338893248E0,6.536252797E-2,2.070522904E-1,-5.375609547E-2,2.236797462E-1
1.341337467E0,6.230819970E-2,2.162152529E-1,-5.009090900E-2,2.305221171E-1
1.343782519E0,6.169734150E-2,2.229347527E-1,-4.520399123E-2,2.356901923E-1
1.346228301E0,6.108647585E-2,2.259891033E-1,-3.909534216E-2,2.373416907E-1
1.348673353E0,6.169734150E-2,2.247673571E-1,-3.237583116E-2,2.353191901E-1
1.351117571E0,5.925387889E-2,2.217130363E-1,-2.565632015E-2,2.309240988E-1
1.353562623E0,5.925387889E-2,2.162152529E-1,-1.588248461E-2,2.247494406E-1
1.356008457E0,5.986474454E-2,2.101066113E-1,-8.552108891E-3,2.186360316E-1
1.358453457E0,6.047561020E-2,2.009436339E-1,-1.221731771E-3,2.098502706E-1
1.360897728E0,5.925387889E-2,1.905589402E-1,7.941238582E-3,1.997167873E-1
1.363342728E0,5.803215131E-2,1.777307689E-1,1.588248089E-2,1.876385089E-1
1.365788561E0,5.681042373E-2,1.655134857E-1,2.504545078E-2,1.767750344E-1
1.368233613E0,5.742128566E-2,1.532961875E-1,3.237582743E-2,1.668685691E-1
1.370677832E0,5.803215131E-2,1.398571581E-1,3.787361085E-2,1.560838417E-1
1.373122832E0,5.742128566E-2,1.251964122E-1,4.581485316E-2,1.451562828E-1
1.375568665E0,5.803215131E-2,1.129791215E-1,5.253436416E-2,1.374477061E-1
1.378013717E0,5.803215131E-2,1.001509652E-1,5.681041628E-2,1.289394036E-1
1.380457936E0,5.742128566E-2,8.671195060E-2,6.108646840E-2,1.206139422E-1
1.382902988E0,5.681042373E-2,7.327292114E-2,6.536252052E-2,1.134398709E-1
1.385348821E0,5.681042373E-2,6.105562672E-2,6.719511747E-2,1.070999422E-1
1.387793821E0,5.619955808E-2,4.700573906E-2,7.024943829E-2,1.015032680E-1
1.390238040E0,5.375609919E-2,3.417757526E-2,7.269290090E-2,9.665444993E-2
1.392683092E0,5.253436789E-2,2.073855326E-2,7.269290090E-2,9.205544656E-2
1.395128926E0,5.009090900E-2,6.688664667E-3,7.086030394E-2,8.703459125E-2
1.397573978E0,4.764745012E-2,-7.361222990E-3,6.963858008E-2,8.469946247E-2
1.400018196E0,4.703658819E-2,-2.018938214E-2,6.841684878E-2,8.544540348E-2
1.402463196E0,4.459312558E-2,-3.240667656E-2,6.597338617E-2,8.597224679E-2
1.404909030E0,4.398226365E-2,-4.218051210E-2,6.230819970E-2,8.715472946E-2
1.407354082E0,4.276053235E-2,-5.256521329E-2,5.864301324E-2,8.961343525E-2
1.409798301E0,4.276053235E-2,-5.989558995E-2,5.314522982E-2,9.077643017E-2
1.412243353E0,4.092793912E-2,-6.722597033E-2,5.070177093E-2,9.362209602E-2
1.414689134E0,3.970620781E-2,-7.150202245E-2,4.520398751E-2,9.344796755E-2
1.417134186E0,3.726275265E-2,-7.455634326E-2,3.970620409E-2,9.232412306E-2
1.419578405E0,3.481929004E-2,-7.638893276E-2,3.604101762E-2,9.135976663E-2
1.422023457E0,3.237583116E-2,-7.761066407E-2,3.054323420E-2,8.946786449E-2
1.424469290E0,3.054323792E-2,-7.944326103E-2,2.687804401E-2,8.925553403E-2
1.426914290E0,2.748891339E-2,-8.127585799E-2,2.138026431E-2,8.842240187E-2
1.429358561E0,2.748891339E-2,-8.066498488E-2,1.588248089E-2,8.668756165E-2
1.431803561E0,2.504545450E-2,-7.883239537E-2,1.221729256E-2,8.361269993E-2
1.434249394E0,2.443459257E-2,-8.005412668E-2,7.941238582E-3,8.407601194E-2
1.436694446E0,2.321286127E-2,-7.883239537E-2,4.886915442E-3,8.232414853E-2
1.439138665E0,2.015853673E-2,-7.822152972E-2,6.108623929E-4,8.077962285E-2
1.441583717E0,1.832594350E-2,-7.577807456E-2,-2.443461679E-3,7.800081599E-2
1.444029498E0,1.710421406E-2,-7.089114934E-2,-6.719513796E-3,7.323428882E-2
1.446474551E0,1.343902573E-2,-6.539336592E-2,-1.038470212E-2,6.756287262E-2
1.448918769E0,1.282816008E-2,-6.233904883E-2,-1.343902666E-2,6.504864440E-2
1.451363821E0,9.773837402E-3,-5.623039976E-2,-1.771507785E-2,5.975959954E-2
1.453809655E0,8.552107960E-3,-5.134348199E-2,-1.954767480E-2,5.560038924E-2
1.456254655E0,6.719513331E-3,-4.401310533E-2,-2.382372692E-2,5.049628962E-2
1.458698926E0,3.665189724E-3,-4.034791887E-2,-2.748891339E-2,4.895945804E-2
1.461143926E0,1.221730839E-3,-3.362840414E-2,-3.054323792E-2,4.544503905E-2
1.463589759E0,-1.221728045E-3,-2.996321768E-2,-3.237583116E-2,4.413027845E-2
1.466034811E0,-2.443457488E-3,-2.446543425E-2,-3.543015569E-2,4.312567553E-2
1.468479030E0,-3.054322209E-3,-1.957851648E-2,-3.787361458E-2,4.274409752E-2
1.470924030E0,-4.276051652E-3,-1.408073585E-2,-4.092793912E-2,4.349307922E-2
1.473369863E0,-7.330375258E-3,-7.972088642E-3,-4.459312558E-2,4.588938274E-2
1.475814915E0,-9.162969887E-3,-3.084616037E-5,-4.520399123E-2,4.612333241E-2
1.478259134E0,-8.552104235E-3,4.245205782E-3,-4.764745012E-2,4.859464746E-2
1.480704186E0,-9.162969887E-3,1.340817567E-2,-5.131264031E-2,5.382124346E-2
1.483150019E0,-9.773833677E-3,1.829509437E-2,-5.070177466E-2,5.478054633E-2
1.485595019E0,-1.099556312E-2,2.684720233E-2,-5.253436789E-2,6.001278606E-2
1.488039238E0,-9.162969887E-3,3.295585141E-2,-5.497782677E-2,6.475036367E-2
1.490484290E0,-7.941240445E-3,3.845363483E-2,-5.681042001E-2,6.905917139E-2
1.492930123E0,-9.162969887E-3,4.334054515E-2,-5.742128566E-2,7.252287169E-2
1.495375176E0,-9.162969887E-3,5.067092553E-2,-5.681042001E-2,7.667415818E-2
1.497819394E0,-7.330375258E-3,5.433611199E-2,-5.742128566E-2,7.939364908E-2
1.500264394E0,-7.941240445E-3,6.166649610E-2,-6.047561392E-2,8.673592059E-2
1.502710228E0,-8.552104235E-3,6.655340642E-2,-6.047561392E-2,9.033157959E-2
1.505155280E0,-8.552104235E-3,7.144033164E-2,-6.047561392E-2,9.399020880E-2
1.507599498E0,-7.330375258E-3,8.060329407E-2,-6.047561392E-2,1.010342778E-1
1.510044551E0,-6.719510537E-3,8.854454011E-2,-6.291906536E-2,1.088305848E-1
1.512490384E0,-4.886916373E-3,9.587491304E-2,-6.475166231E-2,1.157957628E-1
1.514935384E0,-3.665186930E-3,1.050378755E-1,-6.597339362E-2,1.240922139E-1
1.517379603E0,-6.108633243E-4,1.135899946E-1,-6.841684878E-2,1.326043937E-1
1.519824655E0,1.396983862E-9,1.227529570E-1,-6.963858008E-2,1.411305080E-1
1.522270488E0,2.443460282E-3,1.288616061E-1,-7.147117704E-2,1.473750765E-1
1.524715488E0,4.276054446E-3,1.368028373E-1,-7.330376655E-2,1.552634635E-1
1.527159759E0,6.108648609E-3,1.441332102E-1,-7.391463220E-2,1.620958689E-1
1.529604759E0,8.552107960E-3,1.484092772E-1,-7.513636351E-2,1.665650781E-1
1.532050592E0,9.773837402E-3,1.526853293E-1,-7.452549785E-2,1.701833938E-1
1.534495644E0,1.099556684E-2,1.532961875E-1,-7.391463220E-2,1.705403074E-1
1.536939863E0,1.466075517E-2,1.539070457E-1,-7.452549785E-2,1.716285707E-1
1.539384915E0,1.588248461E-2,1.508527249E-1,-7.574722916E-2,1.695477533E-1
1.541830696E0,2.138026804E-2,1.429114938E-1,-7.452549785E-2,1.625880092E-1
1.544275748E0,2.321286127E-2,1.374137104E-1,-7.391463220E-2,1.577489701E-1
1.546719967E0,2.871064469E-2,1.270290017E-1,-7.391463220E-2,1.497465901E-1
1.549165019E0,3.359756246E-2,1.154225841E-1,-7.391463220E-2,1.411188931E-1
1.551610853E0,3.970620781E-2,1.013726965E-1,-7.513636351E-2,1.322818190E-1
1.554055853E0,4.642572254E-2,8.426848799E-2,-7.391463220E-2,1.213255894E-1
1.556500123E0,5.131264031E-2,6.594254822E-2,-7.452549785E-2,1.119618531E-1
1.558945123E0,5.864301696E-2,4.639487341E-2,-7.452549785E-2,1.055724280E-1
1.561390957E0,6.597339362E-2,2.562547103E-2,-7.513636351E-2,1.032212505E-1
1.563836009E0,7.574722916E-2,4.245205782E-3,-7.819068432E-2,1.089469945E-1
1.566280228E0,8.613193035E-2,-1.713505760E-2,-7.941241562E-2,1.184003859E-1
1.568725228E0,9.651663154E-2,-4.279137775E-2,-8.063414693E-2,1.328473855E-1
1.571171061E0,1.044578701E-1,-6.783682853E-2,-8.368846774E-2,1.500567945E-1
1.573616113E0,1.081230566E-1,-9.349314868E-2,-8.552106470E-2,1.665695552E-1
1.576060332E0,1.087339222E-1,-1.105973646E-1,-8.674278855E-2,1.777052455E-1
1.578505384E0,1.075121909E-1,-1.222037897E-1,-9.040798247E-2,1.861887233E-1
1.580951217E0,1.050687358E-1,-1.203712001E-1,-9.468403459E-2,1.857248811E-1
1.583396217E0,1.050687358E-1,-1.069321707E-1,-1.014035493E-1,1.809878675E-1
1.585840488E0,1.032361388E-1,-8.677364141E-2,-1.087339222E-1,1.732351900E-1
1.588285488E0,1.001818180E-1,-5.989558995E-2,-1.209512129E-1,1.680865083E-1
1.590731321E0,9.773835540E-2,-2.874148823E-2,-1.343902349E-1,1.686404296E-1
1.593176373E0,9.651663154E-2,3.634340363E-3,-1.514944583E-1,1.796642410E-1
1.595620592E0,9.101884812E-2,3.662103787E-2,-1.685986668E-1,1.950667618E-1
1.598065592E0,8.491019905E-2,6.899686903E-2,-1.899789274E-1,2.192311627E-1
1.600511426E0,7.880154997E-2,9.648577124E-2,-2.113591880E-1,2.453403649E-1
1.602956478E0,7.696896046E-2,1.239746884E-1,-2.339611948E-1,2.757386169E-1
1.605400696E0,8.063414693E-2,1.435223520E-1,-2.541197240E-1,3.027827031E-1
1.607845748E0,9.101884812E-2,1.569613814E-1,-2.718347907E-1,3.268263444E-1
1.610291582E0,1.026252732E-1,1.612374336E-1,-2.883281410E-1,3.459227855E-1
1.612736582E0,1.166751608E-1,1.545179188E-1,-3.011562824E-1,3.580279135E-1
1.615180801E0,1.301141828E-1,1.410788894E-1,-3.084866703E-1,3.633138854E-1
1.617625853E0,1.398880184E-1,1.239746884E-1,-3.121518493E-1,3.638367189E-1
1.620071686E0,1.466075331E-1,9.831837565E-2,-3.097083867E-1,3.564821966E-1
1.622516686E0,1.514944434E-1,7.205118984E-2,-3.029888868E-1,3.463296203E-1
1.624960957E0,1.545487642E-1,4.272968695E-2,-2.919933200E-1,3.331234690E-1
1.627405957E0,1.582139581E-1,1.279731374E-2,-2.754999697E-1,3.179554389E-1
1.629851790E0,1.606574208E-1,-1.530246530E-2,-2.571740448E-1,3.036172947E-1
1.632296842E0,1.637117416E-1,-4.034791887E-2,-2.364046425E-1,2.903732837E-1
1.634741061E0,1.661552042E-1,-6.417164207E-2,-2.131917924E-1,2.778062128E-1
1.637186113E0,1.698203832E-1,-8.249758929E-2,-1.905898005E-1,2.682709206E-1
1.639631894E0,1.753181666E-1,-9.654747695E-2,-1.661552042E-1,2.601257902E-1
1.642076946E0,1.808159500E-1,-1.050995812E-1,-1.435532123E-1,2.536687890E-1
1.644521165E0,1.844811440E-1,-1.105973646E-1,-1.221729442E-1,2.473687487E-1
1.646966217E0,1.899789274E-1,-1.099864915E-1,-1.032361388E-1,2.425834321E-1
1.649412051E0,1.930332482E-1,-1.099864915E-1,-8.552106470E-2,2.380603195E-1
1.651857051E0,1.948658377E-1,-1.057104394E-1,-7.330376655E-2,2.334969676E-1
1.654301321E0,1.948658377E-1,-1.038778499E-1,-6.169733778E-2,2.292811896E-1
1.656746321E0,1.936441064E-1,-1.002126560E-1,-5.314523354E-2,2.244215502E-1
1.659192155E0,1.918115169E-1,-1.014343873E-1,-4.581485689E-2,2.217647268E-1
1.661637207E0,1.881463230E-1,-1.002126560E-1,-4.276053235E-2,2.174168310E-1
1.664081426E0,1.857028753E-1,-1.044887081E-1,-4.153880477E-2,2.170919628E-1
1.666526478E0,1.808159500E-1,-1.063213125E-1,-4.153880477E-2,2.138319470E-1
1.668972259E0,1.759290397E-1,-1.105973646E-1,-4.459312558E-2,2.125355286E-1
1.671417311E0,1.698203832E-1,-1.154842749E-1,-4.825831577E-2,2.109607673E-1
1.673861530E0,1.643225998E-1,-1.179277375E-1,-5.436696112E-2,2.094388563E-1
1.676306582E0,1.594356894E-1,-1.185385957E-1,-6.108647957E-2,2.078525817E-1
1.678752415E0,1.545487642E-1,-1.191494688E-1,-6.780598313E-2,2.065903381E-1
1.681197415E0,1.478292644E-1,-1.197603270E-1,-7.452549785E-2,2.043283563E-1
1.683641686E0,1.423314810E-1,-1.209820583E-1,-8.185587823E-2,2.039492430E-1
1.686086686E0,1.350010931E-1,-1.209820583E-1,-8.979711682E-2,2.023004592E-1
1.688532519E0,1.276707202E-1,-1.215929314E-1,-9.529490024E-2,2.004140010E-1
1.690977571E0,1.197294891E-1,-1.234255210E-1,-1.007926837E-1,1.993192787E-1
1.693421790E0,1.136208400E-1,-1.270907223E-1,-1.038470045E-1,1.996144968E-1
1.695866842E0,1.062904671E-1,-1.325885057E-1,-1.081230566E-1,2.014149215E-1
1.698312623E0,9.834922105E-2,-1.386971474E-1,-1.105665192E-1,2.028162300E-1
1.700757676E0,9.101884812E-2,-1.448057890E-1,-1.123991087E-1,2.046624218E-1
1.703201894E0,8.429933339E-2,-1.515253037E-1,-1.136208400E-1,2.073065136E-1
1.705646946E0,7.941241562E-2,-1.600774080E-1,-1.148425713E-1,2.124145110E-1
1.708092780E0,7.574722916E-2,-1.674077958E-1,-1.142317057E-1,2.163605680E-1
1.710537780E0,7.086031139E-2,-1.710729748E-1,-1.123991087E-1,2.166118789E-1
1.712982051E0,6.719512492E-2,-1.759599000E-1,-1.099556535E-1,2.180993282E-1
1.715427051E0,6.536252797E-2,-1.784033626E-1,-1.081230566E-1,2.186106476E-1
1.717872884E0,6.230819970E-2,-1.820685416E-1,-1.050687358E-1,2.192503246E-1
1.720317936E0,6.108647585E-2,-1.832902730E-1,-9.896008670E-2,2.170713718E-1
1.722762155E0,5.803215131E-2,-1.826794147E-1,-9.590576589E-2,2.143301544E-1
1.725207207E0,5.681042373E-2,-1.839011312E-1,-9.162971377E-2,2.131737665E-1
1.727652988E0,5.803215131E-2,-1.832902730E-1,-8.735365421E-2,2.111722417E-1
1.730098040E0,5.742128566E-2,-1.808468103E-1,-8.002328128E-2,2.059283817E-1
1.732542259E0,5.864301696E-2,-1.796250790E-1,-7.635809481E-2,2.038007142E-1
1.734987311E0,6.169734150E-2,-1.796250790E-1,-7.208204269E-2,2.031441652E-1
1.737433144E0,6.291906536E-2,-1.802359521E-1,-6.841684878E-2,2.027921902E-1
1.739878144E0,6.841684878E-2,-1.802359521E-1,-6.658425927E-2,2.039591313E-1
1.742322415E0,7.208204269E-2,-1.814576834E-1,-6.291906536E-2,2.051378087E-1
1.744767415E0,7.635809481E-2,-1.820685416E-1,-6.414079666E-2,2.075898704E-1
1.747213248E0,8.429933339E-2,-1.826794147E-1,-6.536252797E-2,2.115429182E-1
1.749658301E0,8.918625116E-2,-1.820685416E-1,-6.658425927E-2,2.133930759E-1
1.752102519E0,9.712748975E-2,-1.820685416E-1,-6.902771443E-2,2.175948724E-1
1.754547519E0,1.044578701E-1,-1.802359521E-1,-7.208204269E-2,2.204365350E-1
1.756993353E0,1.123991087E-1,-1.802359521E-1,-7.819068432E-2,2.263456233E-1
1.759438405E0,1.215620860E-1,-1.765707582E-1,-8.368846774E-2,2.301267761E-1
1.761882623E0,1.258381307E-1,-1.729055792E-1,-8.979711682E-2,2.319376999E-1
1.764327676E0,1.350010931E-1,-1.674077958E-1,-9.651662409E-2,2.357246783E-1
1.766773509E0,1.423314810E-1,-1.600774080E-1,-1.044578701E-1,2.383159114E-1
1.769218509E0,1.496618539E-1,-1.515253037E-1,-1.142317057E-1,2.416763761E-1
1.771662780E0,1.545487642E-1,-1.399188787E-1,-1.240055338E-1,2.425695478E-1
1.774107780E0,1.637117416E-1,-1.264798492E-1,-1.325576454E-1,2.457035123E-1
1.776553613E0,1.673769355E-1,-1.118190959E-1,-1.404988915E-1,2.454760421E-1
1.778998613E0,1.716529876E-1,-9.776920825E-2,-1.490509957E-1,2.474666959E-1
1.781442884E0,1.765398979E-1,-8.127585799E-2,-1.569922417E-1,2.498372763E-1
1.783887884E0,1.802050918E-1,-6.417164207E-2,-1.655443460E-1,2.529758986E-1
1.786333717E0,1.863137335E-1,-4.890002310E-2,-1.716529876E-1,2.580092395E-1
1.788778769E0,1.918115169E-1,-3.423926979E-2,-1.771507710E-1,2.633370108E-1
1.791222988E0,1.991418898E-1,-1.957851648E-2,-1.832594126E-1,2.713389447E-1
1.793668040E0,2.052505463E-1,-1.041554753E-2,-1.881463379E-1,2.786311448E-1
1.796113873E0,2.113591880E-1,-5.528629757E-3,-1.899789274E-1,2.842450790E-1
1.798558873E0,2.193004340E-1,-1.252577407E-3,-1.912006587E-1,2.909500665E-1
1.801003092E0,2.278525382E-1,-1.863441197E-3,-1.924223900E-1,2.982392123E-1
1.803448144E0,2.357937843E-1,-5.528629757E-3,-1.924223900E-1,3.043939070E-1
1.805893978E0,2.455676198E-1,-1.163727697E-2,-1.924223900E-1,3.121942637E-1
1.808339030E0,2.541196942E-1,-2.018938214E-2,-1.912006587E-1,3.186567464E-1
1.810783248E0,2.632826865E-1,-2.996321768E-2,-1.887571961E-1,3.253380495E-1
1.813228248E0,2.718347907E-1,-4.156964645E-2,-1.863137484E-1,3.321671293E-1
1.815674082E0,2.803868949E-1,-5.195434764E-2,-1.838702857E-1,3.392997894E-1
1.818119134E0,2.883281410E-1,-6.233904883E-2,-1.802050918E-1,3.456778110E-1
1.820563353E0,2.962693572E-1,-7.211288065E-2,-1.771507710E-1,3.526445735E-1
1.823008405E0,3.035997450E-1,-7.761066407E-2,-1.740964502E-1,3.584770486E-1
1.825454238E0,3.103192449E-1,-8.066498488E-2,-1.704312563E-1,3.631138756E-1
1.827899238E0,3.176496327E-1,-7.883239537E-2,-1.667660773E-1,3.673237812E-1
1.830343457E0,3.231474161E-1,-7.394547760E-2,-1.649334729E-1,3.702637393E-1
1.832788509E0,3.298669159E-1,-6.661509722E-2,-1.612682939E-1,3.731718318E-1
1.835234342E0,3.378081620E-1,-5.806299299E-2,-1.594356894E-1,3.780283118E-1
1.837679394E0,3.426950872E-1,-4.890002310E-2,-1.576030999E-1,3.803549292E-1
1.840123613E0,3.481928706E-1,-3.912618756E-2,-1.533270478E-1,3.824634849E-1
1.842568613E0,3.530797958E-1,-2.935235202E-2,-1.521053165E-1,3.855683209E-1
1.845014446E0,3.616319001E-1,-2.080024779E-2,-1.502727270E-1,3.921634531E-1
1.847459498E0,3.665188253E-1,-1.224814076E-2,-1.502727270E-1,3.963180020E-1
1.849903717E0,3.732383251E-1,-4.917764105E-3,-1.490509957E-1,4.019293857E-1
1.852348769E0,3.811795712E-1,1.801747130E-3,-1.466075331E-1,4.084052895E-1
1.854794603E0,3.866773546E-1,1.157558244E-2,-1.490509957E-1,4.145715499E-1
1.857239603E0,3.940077126E-1,2.012768760E-2,-1.459966749E-1,4.206687895E-1
1.859683821E0,4.007272422E-1,3.356670961E-2,-1.453858018E-1,4.276050491E-1
1.862128873E0,4.056141675E-1,4.456227645E-2,-1.411097497E-1,4.317645316E-1
1.864574707E0,4.129445255E-1,5.677957460E-2,-1.404988915E-1,4.398716173E-1
1.867019707E0,4.166097343E-1,6.594254822E-2,-1.374445707E-1,4.436249546E-1
1.869463978E0,4.202749133E-1,7.449465245E-2,-1.337793767E-1,4.473000980E-1
1.871908978E0,4.245509505E-1,7.938156277E-2,-1.307250559E-1,4.512582214E-1
1.874354811E0,4.282161593E-1,7.999243587E-2,-1.258381307E-1,4.534347848E-1
1.876799863E0,4.349356592E-1,7.815983146E-2,-1.203403547E-1,4.579954016E-1
1.879244082E0,4.398225844E-1,7.021860033E-2,-1.148425713E-1,4.599601871E-1
1.881689134E0,4.471529424E-1,5.983389542E-2,-1.093447879E-1,4.642005295E-1
1.884134967E0,4.544833302E-1,4.334054515E-2,-1.020144075E-1,4.678038474E-1
1.886579967E0,4.612028301E-1,2.501460537E-2,-9.529490024E-2,4.716088411E-1
1.889024238E0,4.703658223E-1,9.132123552E-3,-8.918625116E-2,4.788335722E-1
1.891469238E0,4.776961803E-1,-6.750359200E-3,-8.491019905E-2,4.852308213E-1
1.893915071E0,4.905243516E-1,-2.263284102E-2,-8.063414693E-2,4.976225986E-1
1.896360123E0,5.009090900E-1,-3.668272868E-2,-7.880154997E-2,5.083947515E-1
1.898804342E0,5.100720525E-1,-4.706742987E-2,-7.635809481E-2,5.178990252E-1
1.901249342E0,5.235110521E-1,-5.623039976E-2,-7.574722916E-2,5.319429690E-1
1.903695176E0,5.357283950E-1,-6.233904883E-2,-7.330376655E-2,5.443018578E-1
1.906140228E0,5.491673946E-1,-6.722597033E-2,-7.513636351E-2,5.583454410E-1
1.908584446E0,5.632172823E-1,-6.966942549E-2,-7.880154997E-2,5.729548151E-1
1.911029498E0,5.784888864E-1,-7.211288065E-2,-8.429933339E-2,5.890297419E-1
1.913475332E0,5.913170576E-1,-7.089114934E-2,-8.979711682E-2,6.022831061E-1
1.915920332E0,6.078103781E-1,-7.028029114E-2,-9.712748975E-2,6.195212057E-1
1.918364603E0,6.249146461E-1,-6.783682853E-2,-1.044578701E-1,6.372060867E-1
1.920809603E0,6.401862502E-1,-6.417164207E-2,-1.130099744E-1,6.532439735E-1
1.923255436E0,6.585121751E-1,-6.294991076E-2,-1.209512129E-1,6.724806108E-1
1.925700488E0,6.750055552E-1,-5.928472430E-2,-1.301141828E-1,6.899832452E-1
1.928144707E0,6.914988756E-1,-5.623039976E-2,-1.380554289E-1,7.073838097E-1
1.930589707E0,7.079921961E-1,-5.500867218E-2,-1.441640705E-1,7.246117464E-1
1.933035540E0,7.208203673E-1,-5.378694087E-2,-1.502727270E-1,7.382797095E-1
1.935480592E0,7.379245758E-1,-5.134348199E-2,-1.551596373E-1,7.558064208E-1
1.937924811E0,7.525853515E-1,-4.951088876E-2,-1.582139581E-1,7.706281178E-1
1.940369863E0,7.666352391E-1,-4.645656422E-2,-1.612682939E-1,7.847899495E-1
1.942815696E0,7.794634104E-1,-4.156964645E-2,-1.624900252E-1,7.973043659E-1
1.945260696E0,7.941241264E-1,-3.790445998E-2,-1.643226147E-1,8.118323706E-1
1.947704915E0,8.087849021E-1,-3.240667656E-2,-1.637117416E-1,8.258236766E-1
1.950149967E0,8.234456778E-1,-2.385457046E-2,-1.624900252E-1,8.396635237E-1
1.952595801E0,8.374955654E-1,-1.835678890E-2,-1.600465626E-1,8.528485774E-1
1.955040801E0,8.527671695E-1,-8.582954295E-3,-1.588248312E-1,8.674738264E-1
1.957485071E0,8.668170571E-1,-3.085170640E-3,-1.563813686E-1,8.808157930E-1
1.959930071E0,8.814778328E-1,3.634340363E-3,-1.545487791E-1,8.949311165E-1
1.962375905E0,8.949168324E-1,8.521257900E-3,-1.514944583E-1,9.076889995E-1
1.964820957E0,9.095776081E-1,1.524076890E-2,-1.484401226E-1,9.217365004E-1
1.967265176E0,9.260709286E-1,1.890596002E-2,-1.472184062E-1,9.378902170E-1
1.969710228E0,9.431751370E-1,2.623633668E-2,-1.423314810E-1,9.542148264E-1
1.972156061E0,9.596685171E-1,2.990152314E-2,-1.398880184E-1,9.702713133E-1
1.974601061E0,9.743292332E-1,3.051238880E-2,-1.374445707E-1,9.844488156E-1
1.977045332E0,9.902117252E-1,2.929066122E-2,-1.356119663E-1,9.998838978E-1
1.979490332E0,1.004872441E0,2.745806798E-2,-1.325576454E-1,1.013949751E0
1.981936165E0,1.018922329E0,2.318201214E-2,-1.288924515E-1,1.027303939E0
1.984381217E0,1.033583164E0,1.707336679E-2,-1.252272725E-1,1.041281675E0
1.986825436E0,1.050687313E0,1.157558244E-2,-1.221729442E-1,1.057829879E0
1.989270436E0,1.069624186E0,6.077799015E-3,-1.197294816E-1,1.076321507E0
1.991716269E0,1.087950110E0,1.190881478E-3,-1.172860265E-1,1.094254483E0
1.994161321E0,1.106276035E0,-3.084616037E-5,-1.148425713E-1,1.112220969E0
1.996605540E0,1.125823736E0,-3.084616037E-5,-1.123991087E-1,1.131420632E0
1.999050592E0,1.144149661E0,-3.084616037E-5,-1.117882431E-1,1.149597781E0
2.001496426E0,1.161253810E0,5.800157669E-4,-1.111773849E-1,1.166563825E0
2.003941426E0,1.177136302E0,-1.252577407E-3,-1.117882431E-1,1.182433107E0
2.006385644E0,1.193018794E0,-3.085170640E-3,-1.130099744E-1,1.198363307E0
2.008830696E0,1.208901286E0,-5.528629757E-3,-1.154534370E-1,1.214414419E0
2.011276530E0,1.223562002E0,-9.804681875E-3,-1.203403547E-1,1.229504740E0
2.013721582E0,1.237001061E0,-1.469159964E-2,-1.270598620E-1,1.243596268E0
2.016165801E0,1.249218345E0,-1.835678890E-2,-1.343902349E-1,1.256560456E0
2.018610801E0,1.263879061E0,-2.568716556E-2,-1.392771602E-1,1.271789384E0
2.021056634E0,1.276707292E0,-3.301754221E-2,-1.472184062E-1,1.285591275E0
2.023501686E0,1.287702799E0,-4.218051210E-2,-1.545487791E-1,1.297629770E0
2.025945905E0,1.299920082E0,-4.890002310E-2,-1.624900252E-1,1.310948680E0
2.028390957E0,1.312137485E0,-5.989558995E-2,-1.704312563E-1,1.324514656E0
2.030836790E0,1.324354768E0,-6.661509722E-2,-1.777616292E-1,1.337890997E0
2.033281790E0,1.337793708E0,-7.638893276E-2,-1.844811440E-1,1.352612497E0
2.035726009E0,1.351843596E0,-8.555191010E-2,-1.893680692E-1,1.367720915E0
2.038171061E0,1.365282655E0,-9.104969352E-2,-1.936441213E-1,1.381949644E0
2.040616894E0,1.376278281E0,-1.008235291E-1,-1.973093003E-1,1.394000808E0
2.043061946E0,1.386662960E0,-1.112082228E-1,-2.009744942E-1,1.405557605E0
2.045506165E0,1.397047639E0,-1.234255210E-1,-2.028070837E-1,1.417076807E0
2.047951165E0,1.407432318E0,-1.350319535E-1,-2.046396881E-1,1.428627579E0
2.050396998E0,1.417206168E0,-1.478601098E-1,-2.052505463E-1,1.439605405E0
2.052842051E0,1.427590847E0,-1.612991393E-1,-2.034179568E-1,1.451003757E0
2.055286269E0,1.440419078E0,-1.729055792E-1,-2.021962255E-1,1.464782159E0
2.057731321E0,1.452636361E0,-1.832902730E-1,-1.997527629E-1,1.477717459E0
2.060177155E0,1.467297077E0,-1.893989146E-1,-1.966984421E-1,1.492488840E0
2.062622155E0,1.483179569E0,-1.942858398E-1,-1.942549795E-1,1.508410958E0
2.065066373E0,1.497229457E0,-1.948966980E-1,-1.899789274E-1,1.521766330E0
2.067511426E0,1.511890173E0,-1.961184293E-1,-1.881463379E-1,1.536122839E0
2.069957259E0,1.525940061E0,-1.930641085E-1,-1.844811440E-1,1.549128823E0
2.072402259E0,1.539989948E0,-1.881771982E-1,-1.814268231E-1,1.562016450E0
2.074846530E0,1.553429008E0,-1.826794147E-1,-1.789833605E-1,1.574340654E0
2.077291530E0,1.565646291E0,-1.771816313E-1,-1.789833605E-1,1.585773213E0
2.079737363E0,1.577863574E0,-1.692403853E-1,-1.802050918E-1,1.597112908E0
2.082182415E0,1.588859200E0,-1.625208706E-1,-1.826485544E-1,1.607559357E0
2.084626634E0,1.599854708E0,-1.588556916E-1,-1.875354648E-1,1.618622800E0
2.087071686E0,1.610850334E0,-1.594665498E-1,-1.924223900E-1,1.630121086E0
2.089517519E0,1.620624065E0,-1.643534601E-1,-2.015853673E-1,1.641362569E0
2.091962519E0,1.629176259E0,-1.735164374E-1,-2.119700611E-1,1.652045563E0
2.094406790E0,1.637728333E0,-1.869554669E-1,-2.223547548E-1,1.663294345E0
2.096851790E0,1.643226147E0,-2.034488022E-1,-2.339611948E-1,1.672220507E0
2.099297623E0,1.647502184E0,-2.187204212E-1,-2.461784929E-1,1.680091045E0
2.101742676E0,1.656054258E0,-2.297159880E-1,-2.596175075E-1,1.691947515E0
2.104186894E0,1.666438937E0,-2.327703238E-1,-2.675587237E-1,1.703757150E0
2.106631894E0,1.674991131E0,-2.291051298E-1,-2.773325741E-1,1.713183529E0
2.109077728E0,1.683543205E0,-2.205530256E-1,-2.858846784E-1,1.721827927E0
2.111522780E0,1.693317056E0,-2.071139961E-1,-2.932150662E-1,1.730951742E0
2.113966998E0,1.700647354E0,-1.936749816E-1,-2.999345660E-1,1.737720393E0
2.116412051E0,1.706755996E0,-1.814576834E-1,-3.042106032E-1,1.743125644E0
2.118857884E0,1.713475585E0,-1.735164374E-1,-3.072649539E-1,1.749433704E0
2.121302884E0,1.718362451E0,-1.643534601E-1,-3.084866703E-1,1.753552280E0
2.123747155E0,1.727525473E0,-1.600774080E-1,-3.109301329E-1,1.762568178E0
2.126192155E0,1.736077547E0,-1.564122289E-1,-3.115409911E-1,1.770730873E0
2.128637988E0,1.744629622E0,-1.551904976E-1,-3.109301329E-1,1.778902514E0
2.131083040E0,1.755625248E0,-1.564122289E-1,-3.121518493E-1,1.790006585E0
2.133527259E0,1.764788151E0,-1.576339602E-1,-3.103192747E-1,1.798783960E0
2.135972259E0,1.773951173E0,-1.570230871E-1,-3.115409911E-1,1.807931637E0
2.138418092E0,1.785557628E0,-1.576339602E-1,-3.139844537E-1,1.819794149E0
2.140863144E0,1.795331478E0,-1.606882811E-1,-3.158170581E-1,1.829966189E0
2.143307363E0,1.805105209E0,-1.582448184E-1,-3.176496327E-1,1.839659623E0
2.145752415E0,1.813657403E0,-1.588556916E-1,-3.207039535E-1,1.848631746E0
2.148198248E0,1.820987701E0,-1.551904976E-1,-3.268126249E-1,1.856579325E0
2.150643248E0,1.830150723E0,-1.527470350E-1,-3.310886621E-1,1.866119779E0
2.153087519E0,1.838702798E0,-1.441949308E-1,-3.384190500E-1,1.875139358E0
2.155532519E0,1.847254872E0,-1.356428266E-1,-3.433059454E-1,1.883775069E0
2.157978353E0,1.855196118E0,-1.228146628E-1,-3.512471914E-1,1.892144463E0
2.160423405E0,1.864969969E0,-1.099864915E-1,-3.573558629E-1,1.902081288E0
2.162867623E0,1.872300386E0,-9.654747695E-2,-3.646862209E-1,1.909928321E0
2.165312676E0,1.880852461E0,-8.310844749E-2,-3.701840043E-1,1.918736353E0
2.167758457E0,1.888182878E0,-7.211288065E-2,-3.756817877E-1,1.926543967E0
2.170203509E0,1.896734953E0,-6.111731753E-2,-3.824012876E-1,1.935864033E0
2.172647728E0,1.904065371E0,-5.073262006E-2,-3.878990710E-1,1.943837551E0
2.175092780E0,1.912617445E0,-4.462397099E-2,-3.927859962E-1,1.953043171E0
2.177538613E0,1.918115258E0,-4.095878452E-2,-3.958403170E-1,1.958962308E0
2.179983613E0,1.923613071E0,-3.790445998E-2,-4.007272422E-1,1.965275126E0
2.182427884E0,1.929721713E0,-3.546100110E-2,-4.050033092E-1,1.972082922E0
2.184872884E0,1.935219407E0,-3.729359433E-2,-4.092793465E-1,1.978376746E0
2.187318717E0,1.940717220E0,-3.973705322E-2,-4.141662717E-1,1.984816380E0
2.189763769E0,1.944382429E0,-4.828915745E-2,-4.166097343E-1,1.989099933E0
2.192207988E0,1.946825862E0,-5.623039976E-2,-4.227183759E-1,1.992983597E0
2.194652988E0,1.948658466E0,-7.089114934E-2,-4.282161593E-1,1.996412896E0
2.197098821E0,1.948658466E0,-8.860623091E-2,-4.324921966E-1,1.998041637E0
2.199543873E0,1.947436690E0,-1.087647602E-1,-4.398225844E-1,1.999445759E0
2.201988092E0,1.944382429E0,-1.289233118E-1,-4.459312260E-1,1.999024489E0
2.204433144E0,1.942549825E0,-1.490818411E-1,-4.532616138E-1,2.000292805E0
2.206878978E0,1.937662959E0,-1.625208706E-1,-4.618137181E-1,1.998555150E0
2.209323978E0,1.937052011E0,-1.686295271E-1,-4.691441059E-1,2.000175643E0
2.211768248E0,1.932775974E0,-1.698512435E-1,-4.764744639E-1,1.997873952E0
2.214213248E0,1.932775974E0,-1.649643332E-1,-4.838048518E-1,1.999225683E0
2.216659082E0,1.924223900E0,-1.558013558E-1,-4.917460978E-1,1.992166134E0
2.219104134E0,1.922391295E0,-1.405297369E-1,-4.984655976E-1,1.990930650E0
2.221548353E0,1.916282654E0,-1.252581179E-1,-5.070177317E-1,1.986176172E0
2.223993405E0,1.912617445E0,-1.038778499E-1,-5.131263733E-1,1.982976241E0
2.226439186E0,1.908341408E0,-8.005412668E-2,-5.216784477E-1,1.979980807E0
2.228884238E0,1.904065371E0,-5.378694087E-2,-5.277870893E-1,1.976592316E0
2.231328457E0,1.903454423E0,-2.690889314E-2,-5.338957310E-1,1.977095719E0
2.233773509E0,1.897345781E0,-3.084616037E-5,-5.412261486E-1,1.973029842E0
2.236219342E0,1.899178386E0,2.867979556E-2,-5.473347902E-1,1.976683193E0
2.238664342E0,1.898567557E0,5.433611199E-2,-5.534434319E-1,1.978335365E0
2.241108613E0,1.900400162E0,8.365761489E-2,-5.632172823E-1,1.983868211E0
2.243553613E0,1.899178386E0,1.111465320E-1,-5.705476403E-1,1.986141159E0
2.245999446E0,1.901010990E0,1.429114938E-1,-5.790997148E-1,1.992391267E0
2.248444498E0,1.898567557E0,1.716221273E-1,-5.870409608E-1,1.994650349E0
2.250888717E0,1.894902349E0,2.003327757E-1,-5.962039828E-1,1.996558870E0
2.253333769E0,1.894902349E0,2.314868569E-1,-6.047560573E-1,2.002491190E0
2.255779551E0,1.888182878E0,2.583649158E-1,-6.114755869E-1,2.001471810E0
2.258224603E0,1.886961102E0,2.876864374E-1,-6.181950569E-1,2.006377536E0
2.260668821E0,1.878409028E0,3.139536083E-1,-6.255254745E-1,2.004562163E0
2.263113873E0,1.876576424E0,3.432751298E-1,-6.304123998E-1,2.009178111E0
2.265559707E0,1.871689558E0,3.670988381E-1,-6.322449446E-1,2.009407134E0
2.268004707E0,1.869246006E0,3.939768970E-1,-6.340775490E-1,2.012797249E0
2.270448978E0,1.866191745E0,4.190223515E-1,-6.352993250E-1,2.015404821E0
2.272893978E0,1.862526536E0,4.404025972E-1,-6.322449446E-1,2.015612367E0
2.275339811E0,1.863748312E0,4.605611563E-1,-6.285797954E-1,2.020095767E0
2.277784863E0,1.857028723E0,4.752218723E-1,-6.230819821E-1,2.015594865E0
2.280229082E0,1.858250499E0,4.849957228E-1,-6.151407361E-1,2.016609504E0
2.282674134E0,1.849698424E0,4.837740064E-1,-6.065886617E-1,2.005834329E0
2.285119915E0,1.847254872E0,4.758327603E-1,-5.980365276E-1,1.999103566E0
2.287564967E0,1.839924574E0,4.568959475E-1,-5.876518488E-1,1.984794962E0
2.290009186E0,1.836870193E0,4.385700226E-1,-5.760453939E-1,1.974402205E0
2.292454238E0,1.833815932E0,4.129136801E-1,-5.644389987E-1,1.962643616E0
2.294900071E0,1.832594156E0,3.842030466E-1,-5.516108274E-1,1.951995857E0
2.297345071E0,1.835648537E0,3.554924130E-1,-5.387826562E-1,1.945833281E0
2.299789342E0,1.836259365E0,3.237274587E-1,-5.283979774E-1,1.938002153E0
2.302234342E0,1.839313626E0,2.876864374E-1,-5.180132985E-1,1.932401583E0
2.304680176E0,1.839313626E0,2.467584908E-1,-5.100720525E-1,1.924613693E0
2.307125228E0,1.841757178E0,1.972784400E-1,-5.045742393E-1,1.919787345E0
2.309569446E0,1.843589783E0,1.441332102E-1,-5.027416348E-1,1.916336823E0
2.312014498E0,1.845422387E0,8.793366700E-2,-5.039634109E-1,1.915018338E0
2.314460280E0,1.847254872E0,2.990152314E-2,-5.064068437E-1,1.915644162E0
2.316905332E0,1.849087477E0,-2.874148823E-2,-5.131263733E-1,1.919179315E0
2.319349551E0,1.852752686E0,-8.921709657E-2,-5.210676193E-1,1.926697607E0
2.321794603E0,1.854585290E0,-1.515253037E-1,-5.320631862E-1,1.935339182E0
2.324240436E0,1.853363633E0,-2.120009214E-1,-5.448912978E-1,1.943401058E0
2.326685436E0,1.850309253E0,-2.743090987E-1,-5.601629615E-1,1.952606554E0
2.329129707E0,1.846644044E0,-3.372281790E-1,-5.784888864E-1,1.964297956E0
2.331574707E0,1.841146231E0,-3.970929384E-1,-5.949822068E-1,1.975223043E0
2.334020540E0,1.834426761E0,-4.575685263E-1,-6.133081913E-1,1.987621049E0
2.336465592E0,1.828928947E0,-5.125463605E-1,-6.322449446E-1,2.001853775E0
2.338909811E0,1.823431253E0,-5.638589859E-1,-6.493492126E-1,2.016058752E0
2.341354863E0,1.820376873E0,-6.060086489E-1,-6.695077419E-1,2.032057838E0
2.343800696E0,1.817322612E0,-6.432713866E-1,-6.872227788E-1,2.046639856E0
2.346245696E0,1.812435627E0,-6.713711619E-1,-7.049378753E-1,2.057328255E0
2.348689915E0,1.810603023E0,-6.933622956E-1,-7.220420837E-1,2.068907767E0
2.351134967E0,1.808770418E0,-7.080230713E-1,-7.385354638E-1,2.078071636E0
2.353580801E0,1.805105209E0,-7.196295261E-1,-7.544178963E-1,2.084566582E0
2.356025801E0,1.800829172E0,-7.257381678E-1,-7.678569555E-1,2.087890299E0
2.358470071E0,1.798385739E0,-7.300142050E-1,-7.825176716E-1,2.092712573E0
2.360915071E0,1.788611889E0,-7.330685258E-1,-7.959567308E-1,2.090471016E0
2.363360905E0,1.781281590E0,-7.355119586E-1,-8.069522977E-1,2.089285513E0
2.365805957E0,1.769064188E0,-7.403988838E-1,-8.179478645E-1,2.084902232E0
2.368250176E0,1.756846905E0,-7.422314882E-1,-8.277216554E-1,2.079072333E0
2.370695228E0,1.744629622E0,-7.458966970E-1,-8.356629014E-1,2.073264789E0
2.373141061E0,1.733023167E0,-7.513944507E-1,-8.423824310E-1,2.068228971E0
2.375586061E0,1.722027659E0,-7.587248683E-1,-8.454367518E-1,2.062960491E0
2.378030332E0,1.710421205E0,-7.691095471E-1,-8.472693563E-1,2.057895905E0
2.380475332E0,1.699425697E0,-7.831594348E-1,-8.472693563E-1,2.054081732E0
2.382921165E0,1.690262675E0,-8.033179641E-1,-8.460476398E-1,2.053802394E0
2.385366165E0,1.675601959E0,-8.301960230E-1,-8.436041474E-1,2.051471501E0
2.387810436E0,1.663995504E0,-8.619610071E-1,-8.368846774E-1,2.052372719E0
2.390255436E0,1.648723841E0,-8.998345733E-1,-8.307760358E-1,2.053821166E0
2.392701269E0,1.634673953E0,-9.383190870E-1,-8.228347898E-1,2.056613414E0
2.395146321E0,1.622456670E0,-9.774144292E-1,-8.118392229E-1,2.060773528E0
2.397590540E0,1.610239387E0,-1.014066219E0,-8.002327681E-1,2.064357930E0
2.400035592E0,1.600465536E0,-1.045831084E0,-7.880154848E-1,2.067902559E0
2.402481426E0,1.588859200E0,-1.073930860E0,-7.751873136E-1,2.068505843E0
2.404926426E0,1.579085350E0,-1.097754598E0,-7.623591423E-1,2.068759812E0
2.407370696E0,1.569922328E0,-1.116080642E0,-7.476984262E-1,2.066239350E0
2.409815696E0,1.560759425E0,-1.131352186E0,-7.354810834E-1,2.063215979E0
2.412261530E0,1.551596403E0,-1.144791245E0,-7.238746881E-1,2.059609904E0
2.414706582E0,1.543655157E0,-1.152732491E0,-7.128791213E-1,2.054229803E0
2.417150801E0,1.537546515E0,-1.159451962E0,-7.043269873E-1,2.050476687E0
2.419595853E0,1.534492135E0,-1.161895394E0,-6.963857412E-1,2.046856155E0
2.422041634E0,1.529605269E0,-1.160673738E0,-6.902770996E-1,2.040426004E0
2.424486686E0,1.523496628E0,-1.153343320E0,-6.853901744E-1,2.030025241E0
2.426930905E0,1.517998815E0,-1.140515208E0,-6.829467416E-1,2.017798700E0
2.429375957E0,1.510057569E0,-1.124021769E0,-6.841684580E-1,2.002944152E0
2.431821790E0,1.500283718E0,-1.098976374E0,-6.853901744E-1,1.982009081E0
2.434266790E0,1.489899039E0,-1.069654822E0,-6.872227788E-1,1.958631087E0
2.436711061E0,1.477681756E0,-1.036668181E0,-6.927205920E-1,1.933413073E0
2.439156061E0,1.464242697E0,-9.957403541E-1,-7.006618381E-1,1.904319442E0
2.441601894E0,1.451414585E0,-9.517580867E-1,-7.098248005E-1,1.875179725E0
2.444046946E0,1.439808130E0,-9.028888941E-1,-7.202094793E-1,1.845794545E0
2.446491165E0,1.429423451E0,-8.534088731E-1,-7.312050462E-1,1.818301110E0
2.448936217E0,1.419649601E0,-8.051505685E-1,-7.422006130E-1,1.792912206E0
2.451381998E0,1.410486698E0,-7.581139803E-1,-7.562505007E-1,1.770910600E0
2.453827051E0,1.403156281E0,-7.135208249E-1,-7.684677839E-1,1.751714089E0
2.456271269E0,1.396436810E0,-6.744254827E-1,-7.800742388E-1,1.735915123E0
2.458716321E0,1.389717221E0,-6.426605582E-1,-7.910698056E-1,1.723403025E0
2.461162155E0,1.381165147E0,-6.157824993E-1,-8.008436561E-1,1.711185499E0
2.463607155E0,1.372613072E0,-5.950130820E-1,-8.093957305E-1,1.700949342E0
2.466051426E0,1.363450050E0,-5.766871572E-1,-8.167261481E-1,1.690741174E0
2.468496426E0,1.351843596E0,-5.614155531E-1,-8.197804689E-1,1.677709315E0
2.470942259E0,1.340848088E0,-5.473656654E-1,-8.234456182E-1,1.665996835E0
2.473387311E0,1.330463409E0,-5.320940018E-1,-8.252782226E-1,1.653584305E0
2.475831530E0,1.320689559E0,-5.168223977E-1,-8.246673346E-1,1.640549455E0
2.478276582E0,1.310304880E0,-4.991073310E-1,-8.240565062E-1,1.626369002E0
2.480722363E0,1.299309254E0,-4.771161973E-1,-8.203912973E-1,1.609001642E0
2.483167415E0,1.289535403E0,-4.551250637E-1,-8.167261481E-1,1.592822018E0
2.485611634E0,1.277928948E0,-4.343556762E-1,-8.124500513E-1,1.575386409E0
2.488056686E0,1.268766046E0,-4.184731841E-1,-8.063414097E-1,1.560472221E0
2.490502519E0,1.258381367E0,-4.056450427E-1,-8.026762605E-1,1.546725814E0
2.492947519E0,1.247996688E0,-4.025907218E-1,-7.959567308E-1,1.533988963E0
2.495391790E0,1.238222837E0,-4.050341547E-1,-7.922915220E-1,1.524786647E0
2.497836790E0,1.229670644E0,-4.166406095E-1,-7.886263132E-1,1.519082207E0
2.500282623E0,1.219285965E0,-4.361882806E-1,-7.849611640E-1,1.514292742E0
2.502727676E0,1.209512115E0,-4.612337351E-1,-7.825176716E-1,1.512610333E0
2.505171894E0,1.202181816E0,-4.911660850E-1,-7.788525224E-1,1.514297360E0
2.507616946E0,1.192407966E0,-5.223201513E-1,-7.770199180E-1,1.516052456E0
2.510062780E0,1.183244944E0,-5.553069115E-1,-7.757982016E-1,1.519966188E0
2.512507780E0,1.172860265E0,-5.895153284E-1,-7.757982016E-1,1.524792567E0
2.514951998E0,1.159421206E0,-6.170042157E-1,-7.751873136E-1,1.525079377E0
2.517397051E0,1.145982265E0,-6.408279538E-1,-7.776308060E-1,1.525990003E0
2.519842884E0,1.134375811E0,-6.579321623E-1,-7.788525224E-1,1.525219480E0
2.522287884E0,1.122158527E0,-6.683168411E-1,-7.831285596E-1,1.522884599E0
2.524732155E0,1.111773849E0,-6.701494455E-1,-7.867937684E-1,1.517954480E0
2.527177155E0,1.101999998E0,-6.652625203E-1,-7.941241264E-1,1.512485155E0
2.529622988E0,1.091615319E0,-6.560995579E-1,-8.026762605E-1,1.505450037E0
2.532068040E0,1.084284902E0,-6.408279538E-1,-8.124500513E-1,1.498802622E0
2.534512259E0,1.075732827E0,-6.231128573E-1,-8.222239017E-1,1.490477404E0
2.536957311E0,1.066569805E0,-6.035652161E-1,-8.332194686E-1,1.481930094E0
2.539403144E0,1.057406783E0,-5.827957988E-1,-8.478802443E-1,1.475351130E0
2.541848144E0,1.043356895E0,-5.601937771E-1,-8.625409603E-1,1.465055490E0
2.544292363E0,1.032361388E0,-5.400352478E-1,-8.772017360E-1,1.458386434E0
2.546737415E0,1.019533277E0,-5.223201513E-1,-8.924733400E-1,1.452162217E0
2.549183248E0,1.007315993E0,-5.058268309E-1,-9.101884365E-1,1.448788902E0
2.551628301E0,9.963203669E-1,-4.948312938E-1,-9.242383242E-1,1.446281011E0
2.554072519E0,9.853248000E-1,-4.838357270E-1,-9.364556074E-1,1.442882905E0
2.556517571E0,9.743292332E-1,-4.746727347E-1,-9.480620623E-1,1.439949073E0
2.558963353E0,9.657771587E-1,-4.673423767E-1,-9.590576291E-1,1.439071212E0
2.561408405E0,9.566141367E-1,-4.636771679E-1,-9.676097035E-1,1.437489360E0
2.563852623E0,9.480620623E-1,-4.569576681E-1,-9.755509496E-1,1.435037156E0
2.566297676E0,9.407317042E-1,-4.508490264E-1,-9.798269868E-1,1.431188984E0
2.568743509E0,9.346230626E-1,-4.441294968E-1,-9.822704792E-1,1.426753859E0
2.571188509E0,9.303469658E-1,-4.355773926E-1,-9.853248000E-1,1.423424780E0
2.573632780E0,9.279035330E-1,-4.288578928E-1,-9.859356284E-1,1.420208830E0
2.576077780E0,9.224057198E-1,-4.196949303E-1,-9.847139120E-1,1.413024287E0
2.578523613E0,9.199622869E-1,-4.117536843E-1,-9.828813076E-1,1.407809423E0
2.580968665E0,9.169079661E-1,-4.074776173E-1,-9.810487032E-1,1.403287136E0
2.583412884E0,9.138536453E-1,-4.007581174E-1,-9.786052704E-1,1.397642239E0
2.585857884E0,9.089667201E-1,-3.952603340E-1,-9.749400616E-1,1.390309086E0
2.588303717E0,9.034689069E-1,-3.946494758E-1,-9.724966288E-1,1.384829942E0
2.590748769E0,8.985820413E-1,-3.922060132E-1,-9.712749124E-1,1.380090648E0
2.593192988E0,8.943059444E-1,-3.934277296E-1,-9.706640244E-1,1.377228067E0
2.595638040E0,8.875864744E-1,-3.964820504E-1,-9.688314199E-1,1.372458410E0
2.598083873E0,8.826995492E-1,-4.038124382E-1,-9.669988155E-1,1.370149513E0
2.600528873E0,8.790343404E-1,-4.160297215E-1,-9.682205915E-1,1.372309446E0
2.602973144E0,8.778126240E-1,-4.319122136E-1,-9.676097035E-1,1.375998438E0
2.605418144E0,8.759800196E-1,-4.526816010E-1,-9.676097035E-1,1.381495626E0
2.607863978E0,8.753691316E-1,-4.765053391E-1,-9.676097035E-1,1.389099346E0
2.610309030E0,8.735365868E-1,-5.058268309E-1,-9.700531363E-1,1.399975014E0
2.612753248E0,8.735365868E-1,-5.375918150E-1,-9.694423079E-1,1.411343160E0
2.615198301E0,8.710930943E-1,-5.711893439E-1,-9.706640244E-1,1.423814979E0
2.617644082E0,8.662061691E-1,-6.072303653E-1,-9.706640244E-1,1.435698608E0
2.620089134E0,8.613192439E-1,-6.444931626E-1,-9.706640244E-1,1.448941312E0
2.622533353E0,8.558214903E-1,-6.793124080E-1,-9.700531363E-1,1.461129309E0
2.624978405E0,8.503236771E-1,-7.177969217E-1,-9.688314199E-1,1.475437934E0
2.627424238E0,8.436042070E-1,-7.556705475E-1,-9.669988155E-1,1.489225552E0
2.629869238E0,8.362737894E-1,-7.947658300E-1,-9.663879871E-1,1.504962563E0
2.632313509E0,8.289434314E-1,-8.363046646E-1,-9.651662707E-1,1.522530339E0
2.634758509E0,8.191695809E-1,-8.778434396E-1,-9.651662707E-1,1.540517393E0
2.637204342E0,8.087849021E-1,-9.230474234E-1,-9.608901739E-1,1.558672348E0
2.639649394E0,8.002327681E-1,-9.700840116E-1,-9.602793455E-1,1.582267959E0
2.642093613E0,7.904589772E-1,-1.018342257E0,-9.596684575E-1,1.607112284E0
2.644538665E0,7.819068432E-1,-1.070265770E0,-9.584467411E-1,1.635685570E0
2.646984498E0,7.745764852E-1,-1.125243545E0,-9.578358531E-1,1.668409808E0
2.649429498E0,7.672461271E-1,-1.187551737E0,-9.553924203E-1,1.706376402E0
2.651873717E0,7.586939931E-1,-1.254135966E0,-9.553924203E-1,1.749642327E0
2.654318769E0,7.489201427E-1,-1.324996352E0,-9.541707039E-1,1.796368126E0
2.656764603E0,7.360919714E-1,-1.396467447E0,-9.553924203E-1,1.845190342E0
2.659209603E0,7.226529717E-1,-1.466106057E0,-9.541707039E-1,1.892653170E0
2.661653873E0,7.067704797E-1,-1.535133839E0,-9.547815323E-1,1.941073978E0
2.664098873E0,6.927205920E-1,-1.603550673E0,-9.541707039E-1,1.990396521E0
2.666544707E0,6.750055552E-1,-1.667691469E0,-9.560032487E-1,2.037343748E0
2.668989759E0,6.579012871E-1,-1.729999661E0,-9.572250247E-1,2.083749668E0
2.671433978E0,6.389645338E-1,-1.789864421E0,-9.602793455E-1,2.129325419E0
2.673879030E0,6.194168329E-1,-1.846063972E0,-9.645553827E-1,2.173015528E0
2.676324863E0,6.010909081E-1,-1.899819970E0,-9.700531363E-1,2.216219593E0
2.678769863E0,5.827649832E-1,-1.946245790E0,-9.773835540E-1,2.254499126E0
2.681214134E0,5.650498867E-1,-1.988395452E0,-9.834921956E-1,2.289160272E0
2.683659134E0,5.461130738E-1,-2.022603989E0,-9.914334416E-1,2.317780545E0
2.686104967E0,5.302305818E-1,-2.051314354E0,-1.000596404E0,2.343123602E0
2.688550019E0,5.161806941E-1,-2.076970816E0,-1.010981202E0,2.366924855E0
2.690994238E0,5.015199780E-1,-2.095296621E0,-1.022587538E0,2.384842865E0
2.693439290E0,4.874700308E-1,-2.109957457E0,-1.036026597E0,2.400603801E0
2.695885071E0,4.770853221E-1,-2.120953083E0,-1.048854828E0,2.413741667E0
2.698330123E0,4.642571807E-1,-2.128283501E0,-1.065348148E0,2.424890114E0
2.700774342E0,4.514290094E-1,-2.130115986E0,-1.078176260E0,2.429742026E0
2.703219394E0,4.404334426E-1,-2.127061605E0,-1.091615319E0,2.431048477E0
2.705665228E0,4.294378757E-1,-2.120342255E0,-1.104443431E0,2.429004623E0
2.708110228E0,4.202749133E-1,-2.106903076E0,-1.118493319E0,2.422126933E0
2.710554498E0,4.111119509E-1,-2.090409756E0,-1.131321549E0,2.412201159E0
2.712999498E0,4.037815630E-1,-2.067196846E0,-1.143538833E0,2.396669233E0
2.715445332E0,3.933968544E-1,-2.039708138E0,-1.152701735E0,2.375687619E0
2.717890384E0,3.860664964E-1,-2.006110430E0,-1.161253929E0,2.349901505E0
2.720334603E0,3.781252503E-1,-1.965793371E0,-1.168584228E0,2.317954137E0
2.722779655E0,3.732383251E-1,-1.924865484E0,-1.174082041E0,2.285362689E0
2.725225436E0,3.652970791E-1,-1.874774575E0,-1.177747250E0,2.243949698E0
2.727670488E0,3.585775793E-1,-1.822240233E0,-1.178968906E0,2.199796589E0
2.730114707E0,3.536906540E-1,-1.767873287E0,-1.180190682E0,2.154837137E0
2.732559759E0,3.500254750E-1,-1.708008528E0,-1.179579854E0,2.105046222E0
2.735005592E0,3.481928706E-1,-1.648143768E0,-1.175914645E0,2.054359124E0
2.737450592E0,3.463602662E-1,-1.583392143E0,-1.171638608E0,1.999958285E0
2.739894863E0,3.463602662E-1,-1.521694779E0,-1.164919019E0,1.947448781E0
2.742339863E0,3.463602662E-1,-1.457553983E0,-1.156977773E0,1.892888431E0
2.744785696E0,3.463602662E-1,-1.389747977E0,-1.145982265E0,1.834295567E0
2.747230748E0,3.481928706E-1,-1.323163748E0,-1.134986758E0,1.777693877E0
2.749674967E0,3.481928706E-1,-1.252914310E0,-1.122769356E0,1.718034798E0
2.752120019E0,3.475820124E-1,-1.181443095E0,-1.108719468E0,1.657069673E0
2.754565801E0,3.426950872E-1,-1.105695844E0,-1.094058752E0,1.592786167E0
2.757010853E0,3.378081620E-1,-1.029948711E0,-1.078176260E0,1.528846869E0
2.759455071E0,3.316995203E-1,-9.523689747E-1,-1.062904716E0,1.465195437E0
2.761900123E0,3.304778039E-1,-8.754000068E-1,-1.047022223E0,1.404206640E0
2.764345957E0,3.286451995E-1,-7.990419269E-1,-1.030528784E0,1.344791896E0
2.766790957E0,3.286451995E-1,-7.257381678E-1,-1.016478896E0,1.291484766E0
2.769235228E0,3.316995203E-1,-6.518235207E-1,-1.001207352E0,1.239884928E0
2.771680228E0,3.353646994E-1,-5.815740824E-1,-9.877682328E-1,1.194313182E0
2.774126061E0,3.402516246E-1,-5.131571889E-1,-9.773835540E-1,1.155153704E0
2.776571113E0,3.433059454E-1,-4.441294968E-1,-9.657770991E-1,1.117065525E0
2.779015332E0,3.475820124E-1,-3.793778419E-1,-9.572250247E-1,1.086747694E0
2.781460384E0,3.530797958E-1,-3.127935827E-1,-9.505054951E-1,1.061115387E0
2.783906217E0,3.567449749E-1,-2.468202114E-1,-9.468402863E-1,1.041486304E0
2.786351217E0,3.604101539E-1,-1.814576834E-1,-9.431751370E-1,1.025866321E0
2.788795436E0,3.616319001E-1,-1.142625436E-1,-9.425642490E-1,1.016002423E0
2.791240488E0,3.622427583E-1,-4.340223968E-2,-9.437859654E-1,1.011847577E0
2.793686321E0,3.579667211E-1,2.806892991E-2,-9.425642490E-1,1.008640373E0
2.796131373E0,3.549123704E-1,9.770750254E-2,-9.456185699E-1,1.014743330E0
2.798575592E0,3.536906540E-1,1.649026126E-1,-9.474511743E-1,1.024672474E0
2.801020592E0,3.561341166E-1,2.314868569E-1,-9.511163831E-1,1.041652556E0
2.803466426E0,3.561341166E-1,2.901299000E-1,-9.541707039E-1,1.058984702E0
2.805911478E0,3.579667211E-1,3.451077044E-1,-9.578358531E-1,1.079207590E0
2.808355696E0,3.628536165E-1,3.951986134E-1,-9.590576291E-1,1.098925032E0
2.810800748E0,3.689622581E-1,4.361265600E-1,-9.602793455E-1,1.117352203E0
2.813246582E0,3.750709295E-1,4.727784395E-1,-9.602793455E-1,1.134166688E0
2.815691582E0,3.787361085E-1,5.014891028E-1,-9.602793455E-1,1.147636171E0
2.818135853E0,3.824012876E-1,5.247019529E-1,-9.566141367E-1,1.156137315E0
2.820580853E0,3.872882128E-1,5.424169898E-1,-9.529489279E-1,1.162892949E0
2.823026686E0,3.903425336E-1,5.521908402E-1,-9.462294579E-1,1.163027173E0
2.825471738E0,3.921751380E-1,5.570777655E-1,-9.370664954E-1,1.158546759E0
2.827915957E0,3.909533918E-1,5.564668775E-1,-9.260709286E-1,1.148959227E0
2.830360957E0,3.897316754E-1,5.546343327E-1,-9.156861901E-1,1.139294176E0
2.832806790E0,3.854556084E-1,5.479148030E-1,-9.053015113E-1,1.126213782E0
2.835251842E0,3.805687129E-1,5.381409526E-1,-8.936950564E-1,1.110458952E0
2.837696061E0,3.787361085E-1,5.253127813E-1,-8.814777732E-1,1.093799626E0
2.840141113E0,3.811795712E-1,5.063759685E-1,-8.710930943E-1,1.077273255E0
2.842586946E0,3.848447502E-1,4.825522900E-1,-8.600975275E-1,1.058645338E0
2.845031946E0,3.891208172E-1,4.562850893E-1,-8.509345651E-1,1.041009475E0
2.847476217E0,3.909533918E-1,4.269635677E-1,-8.423824310E-1,1.022130424E0
2.849921217E0,3.946186006E-1,3.970312178E-1,-8.368846774E-1,1.006843380E0
2.852367051E0,3.964511752E-1,3.652662337E-1,-8.332194686E-1,9.923949006E-1
2.854812103E0,3.970620632E-1,3.353338838E-1,-8.319977522E-1,9.809828517E-1
2.857256321E0,3.958403170E-1,3.078449667E-1,-8.301651478E-1,9.698619761E-1
2.859701373E0,3.927859962E-1,2.846321166E-1,-8.283325434E-1,9.599120184E-1
2.862147155E0,3.854556084E-1,2.675278783E-1,-8.283325434E-1,9.519884422E-1
2.864592207E0,3.750709295E-1,2.546997368E-1,-8.271108270E-1,9.432192101E-1
2.867036426E0,3.665188253E-1,2.412607074E-1,-8.271108270E-1,9.362986160E-1
2.869481478E0,3.543015122E-1,2.320977449E-1,-8.258891106E-1,9.281657975E-1
2.871927311E0,3.475820124E-1,2.217130363E-1,-8.246673346E-1,9.219794675E-1
2.874372311E0,3.426950872E-1,2.082740068E-1,-8.246673346E-1,9.170028339E-1
2.876816582E0,3.414733708E-1,1.936132610E-1,-8.234456182E-1,9.122241193E-1
2.879261582E0,3.426950872E-1,1.777307689E-1,-8.228347898E-1,9.088923150E-1
2.881707415E0,3.451385498E-1,1.636808813E-1,-8.216130137E-1,9.060684267E-1
2.884152467E0,3.488037288E-1,1.471875459E-1,-8.191695809E-1,9.024228594E-1
2.886596686E0,3.530797958E-1,1.361919791E-1,-8.203912973E-1,9.034685817E-1
2.889041738E0,3.555232584E-1,1.306941956E-1,-8.216130137E-1,9.047241040E-1
2.891487519E0,3.591884375E-1,1.264181435E-1,-8.234456182E-1,9.072268551E-1
2.893932571E0,3.604101539E-1,1.276398748E-1,-8.264999390E-1,9.106533730E-1
2.896376790E0,3.622427583E-1,1.343593746E-1,-8.283325434E-1,9.140060502E-1
2.898821842E0,3.628536165E-1,1.459658146E-1,-8.338303566E-1,9.210004504E-1
2.901267676E0,3.597992957E-1,1.600157022E-1,-8.368846774E-1,9.248981141E-1
2.903712676E0,3.561341166E-1,1.783416420E-1,-8.405498266E-1,9.301404525E-1
2.906156946E0,3.506363332E-1,1.985001713E-1,-8.448259234E-1,9.359909172E-1
2.908601946E0,3.469711542E-1,2.174369842E-1,-8.460476398E-1,9.399278870E-1
2.911047780E0,3.457494080E-1,2.345412076E-1,-8.491019607E-1,9.463225511E-1
2.913492832E0,3.463602662E-1,2.449258864E-1,-8.503236771E-1,9.502654785E-1
2.915937051E0,3.463602662E-1,2.528671324E-1,-8.491019607E-1,9.512525218E-1
2.918382103E0,3.475820124E-1,2.577540576E-1,-8.472693563E-1,9.513757258E-1
2.920827936E0,3.494145870E-1,2.583649158E-1,-8.460476398E-1,9.511254346E-1
2.923272936E0,3.512471914E-1,2.583649158E-1,-8.423824310E-1,9.485437150E-1
2.925717207E0,3.543015122E-1,2.571431994E-1,-8.381063938E-1,9.455551353E-1
2.928162207E0,3.549123704E-1,2.540888786E-1,-8.307760358E-1,9.384629831E-1
2.930608040E0,3.530797958E-1,2.534779906E-1,-8.246673346E-1,9.321977508E-1
2.933053092E0,3.494145870E-1,2.559214532E-1,-8.179478645E-1,9.255404113E-1
2.935497311E0,3.445276916E-1,2.608083785E-1,-8.093957305E-1,9.175193672E-1
2.937942311E0,3.384190500E-1,2.650844455E-1,-8.002327681E-1,9.083885180E-1
2.940388144E0,3.323103786E-1,2.724148035E-1,-7.898480892E-1,8.991662899E-1
2.942833196E0,3.262017369E-1,2.803560495E-1,-7.794633508E-1,8.902641197E-1
2.945277415E0,3.219256997E-1,2.901299000E-1,-7.715221047E-1,8.849055730E-1
2.947722467E0,3.182604909E-1,2.962385416E-1,-7.635808587E-1,8.786937700E-1
2.950168301E0,3.200930953E-1,3.005145788E-1,-7.568613887E-1,8.749901505E-1
2.952613301E0,3.219256997E-1,3.047906458E-1,-7.483092546E-1,8.697702194E-1
2.955057571E0,3.255908787E-1,3.078449667E-1,-7.434223294E-1,8.680176863E-1
2.957502571E0,3.286451995E-1,3.102884293E-1,-7.385354638E-1,8.658644281E-1
2.959948405E0,3.316995203E-1,3.108992875E-1,-7.360919714E-1,8.651672261E-1
2.962393457E0,3.335321248E-1,3.139536083E-1,-7.360919714E-1,8.669728581E-1
2.964837676E0,3.323103786E-1,3.188405335E-1,-7.360919714E-1,8.682861647E-1
2.967282728E0,3.310886621E-1,3.286143541E-1,-7.379245758E-1,8.730061715E-1
2.969728509E0,3.268125951E-1,3.420533836E-1,-7.415897846E-1,8.796376517E-1
2.972173561E0,3.237582743E-1,3.573250175E-1,-7.458658218E-1,8.881533722E-1
2.974617780E0,3.188713789E-1,3.762618005E-1,-7.495309711E-1,8.972449918E-1
2.977062832E0,3.145953119E-1,3.994746804E-1,-7.544178963E-1,9.097783207E-1
2.979508665E0,3.103192449E-1,4.257418513E-1,-7.574722171E-1,9.226691267E-1
2.981953665E0,3.066540658E-1,4.520090222E-1,-7.605265379E-1,9.363490199E-1
2.984397936E0,3.005454242E-1,4.813305140E-1,-7.623591423E-1,9.503673382E-1
2.986842936E0,2.993237078E-1,5.051542521E-1,-7.629700303E-1,9.627558193E-1
2.989288769E0,3.005454242E-1,5.253127813E-1,-7.629700303E-1,9.738605328E-1
2.991733821E0,3.017671406E-1,5.448604822E-1,-7.611374259E-1,9.834970937E-1
2.994178040E0,2.974911034E-1,5.644081235E-1,-7.593048215E-1,9.917667561E-1
2.996623092E0,2.901607156E-1,5.821232200E-1,-7.574722171E-1,9.984111597E-1
2.999068873E0,2.797760367E-1,6.016709208E-1,-7.556396723E-1,1.005621123E0
3.001513926E0,2.718347907E-1,6.163316369E-1,-7.550287843E-1,1.011843518E0
3.003958144E0,2.626717985E-1,6.303815246E-1,-7.531961799E-1,1.016701444E0
3.006403196E0,2.553414404E-1,6.419879794E-1,-7.538070679E-1,1.022532597E0
3.008849030E0,2.492327988E-1,6.462640166E-1,-7.562505007E-1,1.025518887E0
3.011294030E0,2.431241572E-1,6.419879794E-1,-7.562505007E-1,1.021358283E0
3.013738301E0,2.370155007E-1,6.322141290E-1,-7.580831051E-1,1.015165527E0
3.016183301E0,2.321285903E-1,6.138882041E-1,-7.568613887E-1,1.001789185E0
3.018629134E0,2.241873443E-1,5.888427496E-1,-7.550287843E-1,9.833942313E-1
3.021074186E0,2.138026506E-1,5.589103699E-1,-7.519744635E-1,9.610192343E-1
3.023518405E0,2.034179419E-1,5.259236693E-1,-7.464766502E-1,9.355222896E-1
3.025963457E0,1.912006587E-1,4.953804016E-1,-7.409788966E-1,9.115970378E-1
3.028409290E0,1.814268231E-1,4.623937309E-1,-7.318159342E-1,8.844649321E-1
3.030854290E0,1.728747040E-1,4.342939556E-1,-7.250964046E-1,8.627060328E-1
3.033298509E0,1.673769355E-1,4.055833220E-1,-7.171551585E-1,8.407284883E-1
3.035743561E0,1.643225998E-1,3.793161213E-1,-7.092139125E-1,8.208940311E-1
3.038189394E0,1.600465477E-1,3.609901965E-1,-7.037161589E-1,8.069357171E-1
3.040634446E0,1.582139581E-1,3.389990628E-1,-6.988292336E-1,7.926628028E-1
3.043078665E0,1.551596373E-1,3.249491751E-1,-6.957749128E-1,7.834342403E-1
3.045523665E0,1.502727121E-1,3.133427501E-1,-6.914988756E-1,7.739097247E-1
3.047969498E0,1.478292644E-1,3.041797876E-1,-6.884445548E-1,7.670298167E-1
3.050414551E0,1.429423392E-1,2.974602580E-1,-6.872227788E-1,7.623583574E-1
3.052858769E0,1.386662871E-1,2.968493998E-1,-6.847793460E-1,7.591249291E-1
3.055303821E0,1.343902349E-1,2.999037206E-1,-6.841684580E-1,7.590055703E-1
3.057749655E0,1.288924515E-1,3.078449667E-1,-6.792815328E-1,7.568389448E-1
3.060194655E0,1.252272576E-1,3.194513917E-1,-6.756163836E-1,7.577523048E-1
3.062638926E0,1.227838024E-1,3.359447420E-1,-6.707294583E-1,7.601399464E-1
3.065083926E0,1.203403547E-1,3.512163460E-1,-6.652316451E-1,7.618187871E-1
3.067529759E0,1.209512204E-1,3.701531589E-1,-6.579012871E-1,7.645107339E-1
3.069974759E0,1.215620860E-1,3.848139048E-1,-6.499600410E-1,7.650536824E-1
3.072419030E0,1.240055338E-1,3.933660090E-1,-6.420187950E-1,7.630873624E-1
3.074864082E0,1.270598620E-1,3.976420760E-1,-6.346884370E-1,7.596662696E-1
3.077309863E0,1.295033097E-1,3.982529342E-1,-6.279689074E-1,7.547989503E-1
3.079754915E0,1.331685036E-1,3.897008300E-1,-6.194168329E-1,7.438264584E-1
3.082199134E0,1.356119663E-1,3.750400841E-1,-6.145299077E-1,7.325931187E-1
3.084644186E0,1.356119663E-1,3.585467339E-1,-6.084212661E-1,7.191125105E-1
3.087090019E0,1.374445558E-1,3.383882046E-1,-6.035343409E-1,7.054440329E-1
3.089535019E0,1.368336976E-1,3.182296753E-1,-5.986474156E-1,6.916446452E-1
3.091979290E0,1.331685036E-1,3.023471832E-1,-5.931496024E-1,6.789507496E-1
3.094424290E0,1.313359141E-1,2.895190120E-1,-5.894844532E-1,6.697479386E-1
3.096870123E0,1.258381307E-1,2.791343331E-1,-5.833758116E-1,6.588463771E-1
3.099315176E0,1.215620860E-1,2.718039453E-1,-5.766562819E-1,6.489893627E-1
3.101759394E0,1.203403547E-1,2.687496245E-1,-5.693259239E-1,6.409681500E-1
3.104204446E0,1.203403547E-1,2.669170201E-1,-5.638281107E-1,6.353177433E-1
3.106650228E0,1.221729442E-1,2.675278783E-1,-5.589411855E-1,6.315953157E-1
3.109095280E0,1.246164069E-1,2.675278783E-1,-5.540542603E-1,6.277551575E-1
3.111539498E0,1.252272576E-1,2.705821991E-1,-5.497782230E-1,6.254220072E-1
3.113984551E0,1.288924515E-1,2.724148035E-1,-5.479456186E-1,6.253538920E-1
3.116430384E0,1.307250410E-1,2.754691243E-1,-5.479456186E-1,6.270699130E-1
3.118875384E0,1.325576454E-1,2.797451913E-1,-5.497782230E-1,6.309397721E-1
3.121319655E0,1.325576454E-1,2.834103703E-1,-5.516108274E-1,6.341667544E-1
3.123764655E0,1.307250410E-1,2.907407582E-1,-5.558868647E-1,6.408037384E-1
3.126210488E0,1.282815933E-1,2.980711162E-1,-5.577194691E-1,6.452546503E-1
3.128655540E0,1.258381307E-1,3.078449667E-1,-5.613846779E-1,6.525002032E-1
3.131099759E0,1.233946756E-1,3.182296753E-1,-5.638281107E-1,6.590891522E-1
3.133544811E0,1.191186234E-1,3.310578167E-1,-5.668824315E-1,6.671912886E-1
3.135990644E0,1.185077578E-1,3.420533836E-1,-5.681042075E-1,6.736371401E-1
3.138435644E0,1.160643026E-1,3.536598086E-1,-5.699367523E-1,6.807158616E-1
3.140879915E0,1.148425713E-1,3.616010547E-1,-5.705476403E-1,6.851778957E-1
3.143324915E0,1.142317057E-1,3.695423007E-1,-5.717693567E-1,6.903119526E-1
3.145770748E0,1.136208400E-1,3.744292259E-1,-5.717693567E-1,6.928399078E-1
3.148215801E0,1.130099744E-1,3.725966215E-1,-5.717693567E-1,6.917511792E-1
3.150660019E0,1.117882505E-1,3.658771217E-1,-5.705476403E-1,6.869405295E-1
3.153105019E0,1.130099744E-1,3.585467339E-1,-5.699367523E-1,6.827553854E-1
3.155550853E0,1.123991087E-1,3.487728834E-1,-5.699367523E-1,6.775721257E-1
3.157995905E0,1.130099744E-1,3.377773464E-1,-5.693259239E-1,6.715629514E-1
3.160440123E0,1.130099744E-1,3.249491751E-1,-5.668824315E-1,6.631130461E-1
3.162885176E0,1.111773849E-1,3.151753247E-1,-5.662716031E-1,6.575404358E-1
3.165331009E0,1.105665192E-1,3.078449667E-1,-5.650498271E-1,6.528972245E-1
3.167776009E0,1.093447879E-1,3.023471832E-1,-5.638281107E-1,6.490548823E-1
3.170220280E0,1.044578701E-1,3.029580414E-1,-5.619955063E-1,6.469420149E-1
3.172665280E0,1.032361388E-1,3.035688996E-1,-5.619955063E-1,6.470322452E-1
3.175111113E0,1.007926837E-1,3.102884293E-1,-5.607737899E-1,6.487721617E-1
3.177556165E0,9.651663154E-2,3.170079291E-1,-5.583303571E-1,6.492628704E-1
3.180000384E0,9.590576589E-2,3.255600333E-1,-5.577194691E-1,6.528692499E-1
3.182445384E0,9.346230328E-2,3.335012794E-1,-5.595520735E-1,6.580705345E-1
3.184891217E0,8.796451986E-2,3.396099210E-1,-5.607737899E-1,6.614679876E-1
3.187336269E0,8.307760209E-2,3.451077044E-1,-5.607737899E-1,6.636779784E-1
3.189780488E0,7.819068432E-2,3.499946296E-1,-5.619955063E-1,6.666700630E-1
3.192225540E0,7.574722916E-2,3.542706668E-1,-5.644389987E-1,6.706986890E-1
3.194671373E0,7.208204269E-2,3.548815548E-1,-5.662716031E-1,6.721608939E-1
3.197116373E0,6.963858008E-2,3.573250175E-1,-5.674933195E-1,6.742250126E-1
3.199560644E0,6.658425927E-2,3.579358757E-1,-5.693259239E-1,6.757836653E-1
3.202005644E0,6.169734150E-2,3.597684503E-1,-5.699367523E-1,6.768070636E-1
3.204451478E0,5.436696112E-2,3.634336591E-1,-5.699367523E-1,6.781354530E-1
3.206896530E0,4.642572254E-2,3.664879799E-1,-5.693259239E-1,6.786757656E-1
3.209340748E0,4.092793912E-2,3.725966215E-1,-5.674933195E-1,6.801117601E-1
3.211785801E0,3.054323792E-2,3.762618005E-1,-5.644389987E-1,6.790413943E-1
3.214231582E0,2.504545450E-2,3.793161213E-1,-5.607737899E-1,6.774771126E-1
3.216676634E0,1.710421406E-2,3.780944049E-1,-5.577194691E-1,6.740170171E-1
3.219120853E0,1.527161896E-2,3.768726885E-1,-5.534434319E-1,6.697506088E-1
3.221565905E0,1.038470119E-2,3.701531589E-1,-5.491673946E-1,6.623488736E-1
3.224011738E0,1.038470119E-2,3.634336591E-1,-5.467239022E-1,6.565812150E-1
3.226456738E0,9.162971750E-3,3.506054878E-1,-5.430587530E-1,6.464680792E-1
3.228901009E0,1.038470119E-2,3.347229958E-1,-5.400043726E-1,6.354148632E-1
3.231346009E0,1.099556684E-2,3.200622499E-1,-5.381718278E-1,6.262504791E-1
3.233791842E0,7.941242307E-3,3.023471832E-1,-5.375609398E-1,6.168051933E-1
3.236236894E0,9.773837402E-3,2.852429748E-1,-5.345066190E-1,6.059343267E-1
3.238681113E0,5.497783888E-3,2.675278783E-1,-5.314522982E-1,5.950150725E-1
3.241126165E0,4.886919167E-3,2.540888786E-1,-5.290088058E-1,5.868861532E-1
3.243571946E0,4.276054446E-3,2.437041700E-1,-5.241219401E-1,5.780257912E-1
3.246016998E0,3.054325003E-3,2.339303195E-1,-5.198458433E-1,5.700635264E-1
3.248461217E0,1.832595561E-3,2.253782153E-1,-5.161806941E-1,5.632416953E-1
3.250906269E0,-1.832592767E-3,2.198804319E-1,-5.106828809E-1,5.560105822E-1
3.253352103E0,-4.276051652E-3,2.131609321E-1,-5.045742393E-1,5.477691398E-1
3.255797155E0,-7.941240445E-3,2.046088278E-1,-4.990764856E-1,5.394489542E-1
3.258241373E0,-9.162969887E-3,1.985001713E-1,-4.954112768E-1,5.337776796E-1
3.260686373E0,-1.282815821E-2,1.887263358E-1,-4.899134934E-1,5.251641862E-1
3.263132207E0,-1.038469933E-2,1.777307689E-1,-4.850265682E-1,5.166689850E-1
3.265577259E0,-1.221729256E-2,1.649026126E-1,-4.813613892E-1,5.089704518E-1
3.268021478E0,-8.552104235E-3,1.496309936E-1,-4.758636057E-1,4.989075506E-1
3.270466530E0,-9.162969887E-3,1.368028373E-1,-4.721984267E-1,4.917014648E-1
3.272912363E0,-6.719510537E-3,1.178660467E-1,-4.691441059E-1,4.837703473E-1
3.275357363E0,-1.221728045E-3,1.001509652E-1,-4.636463225E-1,4.743412493E-1
3.277801634E0,-1.832592767E-3,8.426848799E-2,-4.593702555E-1,4.670391505E-1
3.280246634E0,3.665189724E-3,6.960772723E-2,-4.544833302E-1,4.597975280E-1
3.282692467E0,3.054325003E-3,5.494697765E-2,-4.502072930E-1,4.535582718E-1
3.285137519E0,7.941242307E-3,4.211882129E-2,-4.465420842E-1,4.485943506E-1
3.287581738E0,7.941242307E-3,3.112325445E-2,-4.428769052E-1,4.440401710E-1
3.290026738E0,1.099556684E-2,2.623633668E-2,-4.416551888E-1,4.425703940E-1
3.292472571E0,1.038470119E-2,2.134941891E-2,-4.392117262E-1,4.398529074E-1
3.294917623E0,7.941242307E-3,2.196028456E-2,-4.379899800E-1,4.386120609E-1
3.297361842E0,4.886919167E-3,2.623633668E-2,-4.367682636E-1,4.375828418E-1
3.299806894E0,-2.443457488E-3,3.295585141E-2,-4.343248010E-1,4.355801779E-1
3.302252728E0,-7.330375258E-3,4.150795564E-2,-4.337139428E-1,4.357573051E-1
3.304697728E0,-1.282815821E-2,4.883832857E-2,-4.337139428E-1,4.366434794E-1
3.307141998E0,-1.832594164E-2,5.616870895E-2,-4.324921966E-1,4.365091798E-1
3.309586998E0,-2.382372320E-2,6.349908561E-2,-4.337139428E-1,4.389846100E-1
3.312032832E0,-2.626718208E-2,6.960772723E-2,-4.343248010E-1,4.406509200E-1
3.314477884E0,-2.687804401E-2,7.449465245E-2,-4.361574054E-1,4.432890307E-1
3.316922103E0,-2.809977531E-2,7.999243587E-2,-4.373791218E-1,4.455209123E-1
3.319367155E0,-3.054323420E-2,8.549021930E-2,-4.392117262E-1,4.484957159E-1
3.321812936E0,-3.115409613E-2,8.976627141E-2,-4.392117262E-1,4.493723418E-1
3.324257988E0,-3.115409613E-2,9.831837565E-2,-4.398225844E-1,4.517532362E-1
3.326702207E0,-3.176496178E-2,1.068704799E-1,-4.392117262E-1,4.531415371E-1
3.329147259E0,-3.115409613E-2,1.160334423E-1,-4.404334426E-1,4.565259629E-1
3.331593092E0,-3.298669308E-2,1.282507330E-1,-4.392117262E-1,4.587410085E-1
3.334038092E0,-3.543015197E-2,1.416897625E-1,-4.367682636E-1,4.605407697E-1
3.336482363E0,-3.787361085E-2,1.526853293E-1,-4.343248010E-1,4.619364165E-1
3.338927363E0,-3.848447651E-2,1.642917544E-1,-4.324921966E-1,4.642438320E-1
3.341373196E0,-3.787361085E-2,1.746764481E-1,-4.306596220E-1,4.662767225E-1
3.343818248E0,-3.848447651E-2,1.844502836E-1,-4.288270175E-1,4.683968115E-1
3.346262467E0,-3.848447651E-2,1.905589402E-1,-4.269944131E-1,4.691673406E-1
3.348707519E0,-3.726274520E-2,1.930023879E-1,-4.263835549E-1,4.695118421E-1
3.351153353E0,-3.420842066E-2,1.930023879E-1,-4.251618385E-1,4.681695491E-1
3.353598353E0,-3.237582743E-2,1.917806715E-1,-4.227183759E-1,4.653158556E-1
3.356042571E0,-3.054323420E-2,1.875046194E-1,-4.221075177E-1,4.628883537E-1
3.358487623E0,-2.871064097E-2,1.820068359E-1,-4.214966297E-1,4.600110848E-1
3.360933457E0,-2.626718208E-2,1.734547168E-1,-4.184423089E-1,4.537295114E-1
3.363378509E0,-2.626718208E-2,1.673460752E-1,-4.166097343E-1,4.497314137E-1
3.365822728E0,-2.687804401E-2,1.594048291E-1,-4.141662717E-1,4.445964793E-1
3.368267728E0,-2.626718208E-2,1.526853293E-1,-4.105010927E-1,4.387640844E-1
3.370713561E0,-2.993236855E-2,1.477984041E-1,-4.068358839E-1,4.338844908E-1
3.373158613E0,-3.237582743E-2,1.423006207E-1,-4.025598466E-1,4.281963229E-1
3.375602832E0,-3.298669308E-2,1.386354268E-1,-3.995055258E-1,4.241610174E-1
3.378047884E0,-3.481928632E-2,1.368028373E-1,-3.933968544E-1,4.179575146E-1
3.380493717E0,-3.481928632E-2,1.325267851E-1,-3.891208172E-1,4.125418062E-1
3.382938717E0,-3.604101390E-2,1.294724643E-1,-3.848447502E-1,4.076365482E-1
3.385382988E0,-3.604101390E-2,1.270290017E-1,-3.793469667E-1,4.016708144E-1
3.387827988E0,-3.543015197E-2,1.221420988E-1,-3.744600713E-1,3.954672338E-1
3.390273821E0,-3.543015197E-2,1.184769049E-1,-3.701840043E-1,3.902925438E-1
3.392718873E0,-3.665187955E-2,1.148117110E-1,-3.634645045E-1,3.829249734E-1
3.395163092E0,-3.604101390E-2,1.093139425E-1,-3.604101837E-1,3.783437500E-1
3.397608092E0,-3.604101390E-2,1.013726965E-1,-3.567449749E-1,3.726155597E-1
3.400053926E0,-3.787361085E-2,9.343145043E-2,-3.549124002E-1,3.689534634E-1
3.402498978E0,-3.543015197E-2,8.426848799E-2,-3.524689376E-1,3.641302318E-1
3.404943196E0,-3.420842066E-2,7.449465245E-2,-3.518580794E-1,3.612807459E-1
3.407388248E0,-3.359755874E-2,6.655340642E-2,-3.506363332E-1,3.584745319E-1
3.409834082E0,-3.359755874E-2,5.372524634E-2,-3.512471914E-1,3.569170597E-1
3.412279082E0,-3.359755874E-2,4.272968695E-2,-3.518580794E-1,3.560319230E-1
3.414723353E0,-3.298669308E-2,3.417757526E-2,-3.524689376E-1,3.556551428E-1
3.417168353E0,-3.481928632E-2,2.501460537E-2,-3.524689376E-1,3.550668461E-1
3.419614186E0,-3.420842066E-2,1.585163549E-2,-3.524689376E-1,3.544796784E-1
3.422059238E0,-3.298669308E-2,1.096471678E-2,-3.530797958E-1,3.547868221E-1
3.424503457E0,-3.237582743E-2,6.077799015E-3,-3.530797958E-1,3.546131358E-1
3.426948509E0,-3.176496178E-2,4.245205782E-3,-3.518580794E-1,3.533145095E-1
3.429394290E0,-3.054323420E-2,5.466933362E-3,-3.524689376E-1,3.538320626E-1
3.431839342E0,-2.993236855E-2,9.132123552E-3,-3.512471914E-1,3.526385286E-1
3.434283561E0,-2.932150289E-2,1.401904132E-2,-3.481928706E-1,3.497063900E-1
3.436728613E0,-3.115409613E-2,2.257115021E-2,-3.469711542E-1,3.490974311E-1
3.439174446E0,-3.420842066E-2,3.356670961E-2,-3.463602960E-1,3.496603991E-1
3.441619446E0,-3.481928632E-2,4.578400776E-2,-3.439168334E-1,3.486937716E-1
3.444063717E0,-3.665187955E-2,6.044476107E-2,-3.408625126E-1,3.481151848E-1
3.446508717E0,-3.665187955E-2,7.632724196E-2,-3.384190500E-1,3.488504859E-1
3.448954551E0,-3.420842066E-2,9.526403993E-2,-3.365864456E-1,3.514767257E-1
3.451399603E0,-3.359755874E-2,1.154225841E-1,-3.335321248E-1,3.545346910E-1
3.453843821E0,-3.054323420E-2,1.374137104E-1,-3.292560577E-1,3.580851414E-1
3.456288873E0,-2.687804401E-2,1.624591649E-1,-3.262017369E-1,3.654079674E-1
3.458734707E0,-2.321285754E-2,1.862828881E-1,-3.207039535E-1,3.716062122E-1
3.461179707E0,-1.954766735E-2,2.113283426E-1,-3.194822371E-1,3.835501004E-1
3.463623926E0,-1.710421033E-2,2.345412076E-1,-3.139844537E-1,3.922860808E-1
3.466068978E0,-1.160642877E-2,2.571431994E-1,-3.103192747E-1,4.031815800E-1
3.468514811E0,-9.773833677E-3,2.766908705E-1,-3.048214912E-1,4.117881824E-1
3.470959811E0,-6.108645815E-3,2.919624746E-1,-3.017671704E-1,4.199319317E-1
3.473404082E0,-1.221728045E-3,3.011254370E-1,-2.987128496E-1,4.241549103E-1
3.475849082E0,3.665189724E-3,3.084558249E-1,-2.944367826E-1,4.264404395E-1
3.478294915E0,8.552107960E-3,3.096775413E-1,-2.926041782E-1,4.261343957E-1
3.480739967E0,1.160643063E-2,3.035688996E-1,-2.901607156E-1,4.200976397E-1
3.483184186E0,1.710421406E-2,2.974602580E-1,-2.871063948E-1,4.137695508E-1
3.485629238E0,2.138026804E-2,2.864646912E-1,-2.852738202E-1,4.048460048E-1
3.488075071E0,2.443459257E-2,2.724148035E-1,-2.816086113E-1,3.925688277E-1
3.490520071E0,2.626718581E-2,2.601975203E-1,-2.779434323E-1,3.816349908E-1
3.492964342E0,3.115410358E-2,2.467584908E-1,-2.718347907E-1,3.684487541E-1
3.495409342E0,3.237583116E-2,2.357629240E-1,-2.681696117E-1,3.585349235E-1
3.497855176E0,3.420842811E-2,2.241564989E-1,-2.645044029E-1,3.483947929E-1
3.500300228E0,3.665188700E-2,2.131609321E-1,-2.583957613E-1,3.369707898E-1
3.502744446E0,3.665188700E-2,2.058305591E-1,-2.516762614E-1,3.271857583E-1
3.505189498E0,3.787361458E-2,1.966675818E-1,-2.455676347E-1,3.168848555E-1
3.507635280E0,3.848448023E-2,1.899480671E-1,-2.406807095E-1,3.090121799E-1
3.510080332E0,3.787361458E-2,1.813959628E-1,-2.364046425E-1,3.003765320E-1
3.512524551E0,3.848448023E-2,1.728438586E-1,-2.333503217E-1,2.929307551E-1
3.514969603E0,3.787361458E-2,1.636808813E-1,-2.321285903E-1,2.865475947E-1
3.517415436E0,3.848448023E-2,1.508527249E-1,-2.290742695E-1,2.769704331E-1
3.519860436E0,3.543015569E-2,1.386354268E-1,-2.296851426E-1,2.706110534E-1
3.522304707E0,3.298669681E-2,1.221420988E-1,-2.315177321E-1,2.638319063E-1
3.524749707E0,3.054323792E-2,1.068704799E-1,-2.309068590E-1,2.562658120E-1
3.527195540E0,2.871064469E-2,8.915539831E-2,-2.321285903E-1,2.503131411E-1
3.529640592E0,2.932151034E-2,6.899686903E-2,-2.345720530E-1,2.462607702E-1
3.532084811E0,2.932151034E-2,5.006005988E-2,-2.357937843E-1,2.428260061E-1
3.534529863E0,3.115410358E-2,3.051238880E-2,-2.370155156E-1,2.409936486E-1
3.536975696E0,3.359756246E-2,1.279731374E-2,-2.370155156E-1,2.397267654E-1
3.539420696E0,3.726275265E-2,-3.085170640E-3,-2.382372469E-1,2.411535130E-1
3.541864915E0,4.092793912E-2,-1.835678890E-2,-2.382372469E-1,2.424232945E-1
3.544309967E0,4.642572254E-2,-3.240667656E-2,-2.376263738E-1,2.442781896E-1
3.546755801E0,5.009090900E-2,-4.523483664E-2,-2.376263738E-1,2.470254706E-1
3.549200801E0,5.436696112E-2,-5.378694087E-2,-2.376263738E-1,2.496299160E-1
3.551645071E0,5.681042373E-2,-5.928472430E-2,-2.376263738E-1,2.514128006E-1
3.554090071E0,5.803215131E-2,-5.867385864E-2,-2.370155156E-1,2.509715261E-1
3.556535905E0,5.864301696E-2,-5.439780653E-2,-2.382372469E-1,2.513068057E-1
3.558980957E0,6.047561020E-2,-4.340223968E-2,-2.388481051E-1,2.501788783E-1
3.561425176E0,6.047561020E-2,-2.874148823E-2,-2.400698364E-1,2.492326201E-1
3.563870228E0,6.108647585E-2,-9.804681875E-3,-2.437350303E-1,2.514646184E-1
3.566316061E0,6.047561020E-2,1.279731374E-2,-2.461784929E-1,2.538206474E-1
3.568761061E0,5.925387889E-2,4.028622434E-2,-2.486219555E-1,2.587409492E-1
3.571205332E0,5.497782677E-2,7.082945853E-2,-2.522871196E-1,2.677464554E-1
3.573650332E0,5.192350596E-2,1.038161591E-1,-2.547305822E-1,2.799312681E-1
3.576096165E0,4.764745012E-2,1.361919791E-1,-2.565631568E-1,2.943521498E-1
3.578541217E0,4.520399123E-2,1.704003960E-1,-2.565631568E-1,3.112946341E-1
3.580985436E0,3.909534588E-2,2.033870965E-1,-2.583957613E-1,3.311542338E-1
3.583430488E0,3.665188700E-2,2.351520658E-1,-2.602283657E-1,3.526452284E-1
3.585876269E0,3.298669681E-2,2.656953037E-1,-2.626718283E-1,3.750714678E-1
3.588321321E0,2.809977904E-2,2.895190120E-1,-2.632826865E-1,3.923373916E-1
3.590765540E0,2.260199562E-2,3.102884293E-1,-2.651152611E-1,4.087491421E-1
3.593210592E0,1.832594350E-2,3.292252421E-1,-2.663370073E-1,4.238637773E-1
3.595656426E0,1.466075517E-2,3.402207792E-1,-2.681696117E-1,4.334513317E-1
3.598101426E0,7.330378052E-3,3.487728834E-1,-2.706130445E-1,4.415061478E-1
3.600545696E0,4.886919167E-3,3.530489504E-1,-2.736673951E-1,4.467228296E-1
3.602990696E0,6.108661182E-4,3.542706668E-1,-2.773325741E-1,4.499126973E-1
3.605436530E0,-4.276051652E-3,3.542706668E-1,-2.803868949E-1,4.518216472E-1
3.607881582E0,-1.038469933E-2,3.554924130E-1,-2.828303576E-1,4.543959824E-1
3.610325801E0,-1.649334654E-2,3.536598086E-1,-2.858846784E-1,4.550575129E-1
3.612770853E0,-2.260199189E-2,3.506054878E-1,-2.907716036E-1,4.560517334E-1
3.615216686E0,-2.871064097E-2,3.469403088E-1,-2.932150662E-1,4.551559665E-1
3.617661686E0,-3.359755874E-2,3.414425254E-1,-2.962693870E-1,4.533071186E-1
3.620105905E0,-3.970620409E-2,3.347229958E-1,-2.999345660E-1,4.511948697E-1
3.622550957E0,-4.398225620E-2,3.273926377E-1,-3.011562824E-1,4.470072533E-1
3.624996790E0,-4.886917397E-2,3.170079291E-1,-3.035997450E-1,4.416503464E-1
3.627441790E0,-5.497782305E-2,3.108992875E-1,-3.042106032E-1,4.384347376E-1
3.629886061E0,-5.742128193E-2,2.999037206E-1,-3.048214912E-1,4.314575145E-1
3.632331061E0,-5.986474082E-2,2.895190120E-1,-3.066540658E-1,4.259598122E-1
3.634776894E0,-6.291906536E-2,2.760799825E-1,-3.060432076E-1,4.169429343E-1
3.637221946E0,-6.658425182E-2,2.626409829E-1,-3.048214912E-1,4.078356164E-1
3.639666165E0,-6.780598313E-2,2.504236698E-1,-3.054323494E-1,4.007475338E-1
3.642111217E0,-7.086030394E-2,2.345412076E-1,-3.054323494E-1,3.915605710E-1
3.644557051E0,-7.391462475E-2,2.211021781E-1,-3.048214912E-1,3.837521159E-1
3.647002051E0,-7.696895301E-2,2.052196860E-1,-3.042106032E-1,3.749445697E-1
3.649446321E0,-7.757981867E-2,1.917806715E-1,-3.035997450E-1,3.673843483E-1
3.651891321E0,-8.063413948E-2,1.789525002E-1,-3.060432076E-1,3.635770987E-1
3.654337155E0,-8.063413948E-2,1.661243439E-1,-3.060432076E-1,3.574375568E-1
3.656782207E0,-8.246673644E-2,1.563505083E-1,-3.060432076E-1,3.534242338E-1
3.659226426E0,-8.429932594E-2,1.459658146E-1,-3.072649539E-1,3.504627616E-1
3.661671426E0,-8.613192290E-2,1.392462999E-1,-3.072649539E-1,3.481666153E-1
3.664117259E0,-8.674278855E-2,1.349702477E-1,-3.084866703E-1,3.477144013E-1
3.666562311E0,-8.735365421E-2,1.313050538E-1,-3.066540658E-1,3.448309646E-1
3.669006530E0,-8.491019160E-2,1.288616061E-1,-3.060432076E-1,3.427499075E-1
3.671451582E0,-8.613192290E-2,1.264181435E-1,-3.042106032E-1,3.405060150E-1
3.673897415E0,-8.368846029E-2,1.251964122E-1,-3.011562824E-1,3.367090828E-1
3.676342415E0,-8.124500513E-2,1.264181435E-1,-3.005454242E-1,3.360206093E-1
3.678786686E0,-7.635808736E-2,1.282507330E-1,-2.974911034E-1,3.328359425E-1
3.681231686E0,-7.452549040E-2,1.313050538E-1,-2.926041782E-1,3.292601874E-1
3.683677519E0,-7.086030394E-2,1.392462999E-1,-2.871063948E-1,3.268651046E-1
3.686122571E0,-6.597338617E-2,1.502418667E-1,-2.809977531E-1,3.253995136E-1
3.688566790E0,-6.414078921E-2,1.630700231E-1,-2.761108279E-1,3.270215017E-1
3.691011842E0,-6.230819970E-2,1.777307689E-1,-2.675587237E-1,3.271975070E-1
3.693457623E0,-6.047560275E-2,1.972784400E-1,-2.602283657E-1,3.321067354E-1
3.695902676E0,-5.925387517E-2,2.186587155E-1,-2.504545152E-1,3.377130731E-1
3.698346894E0,-5.681041628E-2,2.375955284E-1,-2.419024259E-1,3.437962218E-1
3.700791946E0,-5.864300951E-2,2.608083785E-1,-2.345720530E-1,3.556459769E-1
3.703237780E0,-5.558868498E-2,2.803560495E-1,-2.272416800E-1,3.651416130E-1
3.705682780E0,-5.436695740E-2,3.017363250E-1,-2.186895758E-1,3.765975391E-1
3.708127051E0,-5.314522982E-2,3.182296753E-1,-2.119700611E-1,3.860386619E-1
3.710572051E0,-4.948003963E-2,3.292252421E-1,-2.058614194E-1,3.914287399E-1
3.713017884E0,-4.581484944E-2,3.389990628E-1,-1.997527629E-1,3.961319620E-1
3.715462936E0,-4.459312186E-2,3.451077044E-1,-1.960875839E-1,3.994223513E-1
3.717907155E0,-4.031706974E-2,3.487728834E-1,-1.936441213E-1,4.009564017E-1
3.720352207E0,-3.726274520E-2,3.475511670E-1,-1.893680692E-1,3.975431945E-1
3.722797988E0,-3.481928632E-2,3.444968462E-1,-1.869246066E-1,3.934860459E-1
3.725243040E0,-3.054323420E-2,3.408316672E-1,-1.857028753E-1,3.893387630E-1
3.727687259E0,-2.626718208E-2,3.341121376E-1,-1.832594126E-1,3.819749961E-1
3.730132311E0,-2.260199189E-2,3.286143541E-1,-1.802050918E-1,3.754625399E-1
3.732578144E0,-1.893680543E-2,3.231165707E-1,-1.759290397E-1,3.683937403E-1
3.735023144E0,-1.466075145E-2,3.182296753E-1,-1.734855771E-1,3.627427592E-1
3.737467415E0,-1.038469933E-2,3.121210039E-1,-1.716529876E-1,3.563595252E-1
3.739912415E0,-6.108645815E-3,3.060123622E-1,-1.692095250E-1,3.497323902E-1
3.742358248E0,-4.276051652E-3,2.992928624E-1,-1.661552042E-1,3.423478552E-1
3.744803301E0,-1.221728045E-3,2.907407582E-1,-1.643226147E-1,3.339664695E-1
3.747247519E0,1.832595561E-3,2.846321166E-1,-1.618791521E-1,3.274502406E-1
3.749692571E0,4.886919167E-3,2.766908705E-1,-1.618791521E-1,3.206034617E-1
3.752138405E0,5.497783888E-3,2.687496245E-1,-1.612682939E-1,3.134709698E-1
3.754583405E0,6.719513331E-3,2.608083785E-1,-1.612682939E-1,3.067142395E-1
3.757027676E0,6.108648609E-3,2.546997368E-1,-1.606574208E-1,3.011977397E-1
3.759472676E0,6.108648609E-3,2.461476326E-1,-1.600465626E-1,2.936679669E-1
3.761918509E0,6.719513331E-3,2.412607074E-1,-1.612682939E-1,2.902746000E-1
3.764363561E0,6.108648609E-3,2.382063866E-1,-1.624900252E-1,2.884139498E-1
3.766807780E0,3.665189724E-3,2.351520658E-1,-1.643226147E-1,2.869004171E-1
3.769252832E0,1.221730839E-3,2.351520658E-1,-1.667660773E-1,2.882861620E-1
3.771698613E0,-1.221728045E-3,2.357629240E-1,-1.692095250E-1,2.902025367E-1
3.774143665E0,-3.054322209E-3,2.369846404E-1,-1.722638458E-1,2.929946778E-1
3.776587884E0,-7.941240445E-3,2.430933118E-1,-1.747073084E-1,2.994663005E-1
3.779032936E0,-1.221729256E-2,2.455367744E-1,-1.783725023E-1,3.037339616E-1
3.781478769E0,-1.527161710E-2,2.522562742E-1,-1.814268231E-1,3.110982840E-1
3.783923769E0,-2.015853301E-2,2.589757740E-1,-1.857028753E-1,3.193123485E-1
3.786368040E0,-2.382372320E-2,2.675278783E-1,-1.912006587E-1,3.296914123E-1
3.788813040E0,-2.809977531E-2,2.748582661E-1,-1.942549795E-1,3.377449643E-1
3.791258873E0,-3.359755874E-2,2.852429748E-1,-1.985310316E-1,3.491517165E-1
3.793703926E0,-3.604101390E-2,2.937950790E-1,-2.034179568E-1,3.591564677E-1
3.796148144E0,-3.848447651E-2,3.017363250E-1,-2.083048671E-1,3.686689334E-1
3.798593196E0,-4.031706974E-2,3.096775413E-1,-2.131917924E-1,3.781221840E-1
3.801038978E0,-4.276052862E-2,3.188405335E-1,-2.174678445E-1,3.883040201E-1
3.803484030E0,-4.520398751E-2,3.280034959E-1,-2.229656279E-1,3.991783625E-1
3.805928248E0,-4.764744639E-2,3.371664584E-1,-2.272416800E-1,4.093779195E-1
3.808373301E0,-5.070176721E-2,3.463294506E-1,-2.290742695E-1,4.183177961E-1
3.810819134E0,-5.375609174E-2,3.548815548E-1,-2.321285903E-1,4.274509537E-1
3.813264186E0,-5.619955063E-2,3.658771217E-1,-2.351829261E-1,4.385606758E-1
3.815708405E0,-5.864300951E-2,3.756509423E-1,-2.382372469E-1,4.486754048E-1
3.818153405E0,-5.986474082E-2,3.848139048E-1,-2.388481051E-1,4.568522144E-1
3.820599238E0,-6.291906536E-2,3.951986134E-1,-2.431241572E-1,4.682415067E-1
3.823044290E0,-6.475165486E-2,4.043615758E-1,-2.455676347E-1,4.774981927E-1
3.825488509E0,-6.658425182E-2,4.147462845E-1,-2.467893511E-1,4.871888001E-1
3.827933561E0,-6.902771443E-2,4.239092469E-1,-2.492328137E-1,4.965690993E-1
3.830379394E0,-6.719511747E-2,4.312396348E-1,-2.492328137E-1,5.025930778E-1
3.832824394E0,-6.780598313E-2,4.373482764E-1,-2.516762614E-1,5.091287723E-1
3.835268665E0,-6.719511747E-2,4.410134852E-1,-2.504545152E-1,5.116009599E-1
3.837713665E0,-6.658425182E-2,4.422352016E-1,-2.486219555E-1,5.116818473E-1
3.840159498E0,-6.658425182E-2,4.416243434E-1,-2.480110973E-1,5.108571500E-1
3.842604551E0,-6.719511747E-2,4.404025972E-1,-2.461784929E-1,5.089926147E-1
3.845048769E0,-6.597338617E-2,4.355157018E-1,-2.443458885E-1,5.037175075E-1
3.847493821E0,-6.597338617E-2,4.306287766E-1,-2.425132990E-1,4.986043833E-1
3.849939603E0,-6.414078921E-2,4.208549261E-1,-2.412915677E-1,4.893409142E-1
3.852384655E0,-6.291906536E-2,4.129136801E-1,-2.382372469E-1,4.808466510E-1
3.854828873E0,-6.169733405E-2,4.019181430E-1,-2.357937843E-1,4.700462354E-1
3.857273926E0,-6.047560275E-2,3.866465092E-1,-2.339611948E-1,4.559502848E-1
3.859719759E0,-6.047560275E-2,3.756509423E-1,-2.315177321E-1,4.453890314E-1
3.862164759E0,-5.986474082E-2,3.616010547E-1,-2.266308069E-1,4.309299625E-1
3.864609030E0,-5.925387517E-2,3.481620252E-1,-2.247982174E-1,4.186431130E-1
3.867054030E0,-5.803214759E-2,3.365556002E-1,-2.217438966E-1,4.071949875E-1
3.869499863E0,-5.864300951E-2,3.255600333E-1,-2.156352550E-1,3.948758046E-1
3.871944915E0,-5.925387517E-2,3.182296753E-1,-2.107483298E-1,3.862589888E-1
3.874389134E0,-6.291906536E-2,3.102884293E-1,-2.064722776E-1,3.779795227E-1
3.876834186E0,-6.352993101E-2,3.029580414E-1,-2.015853673E-1,3.693999016E-1
3.879280019E0,-6.414078921E-2,2.974602580E-1,-1.973093003E-1,3.626673488E-1
3.881725019E0,-6.597338617E-2,2.907407582E-1,-1.912006587E-1,3.541756175E-1
3.884169238E0,-6.597338617E-2,2.846321166E-1,-1.875354648E-1,3.471850803E-1
3.886614290E0,-6.597338617E-2,2.766908705E-1,-1.850920171E-1,3.393661449E-1
3.889060123E0,-6.719511747E-2,2.656953037E-1,-1.826485544E-1,3.293473435E-1
3.891505123E0,-6.780598313E-2,2.534779906E-1,-1.820376962E-1,3.193531993E-1
3.893949394E0,-6.536252052E-2,2.400389910E-1,-1.808159649E-1,3.075473776E-1
3.896394394E0,-6.414078921E-2,2.247673571E-1,-1.789833605E-1,2.943967544E-1
3.898840228E0,-6.352993101E-2,2.119392008E-1,-1.777616292E-1,2.838194387E-1
3.901285280E0,-6.230819970E-2,2.003327757E-1,-1.789833605E-1,2.757726892E-1
3.903729498E0,-6.291906536E-2,1.887263358E-1,-1.771507710E-1,2.663809946E-1
3.906174551E0,-6.352993101E-2,1.801742315E-1,-1.759290397E-1,2.597110565E-1
3.908620384E0,-6.352993101E-2,1.710112691E-1,-1.747073084E-1,2.525936458E-1
3.911065384E0,-6.230819970E-2,1.649026126E-1,-1.734855771E-1,2.473306064E-1
3.913509655E0,-5.986474082E-2,1.624591649E-1,-1.704312563E-1,2.429476910E-1
3.915954655E0,-5.986474082E-2,1.600157022E-1,-1.679877937E-1,2.396011498E-1
3.918400488E0,-5.986474082E-2,1.612374336E-1,-1.649334729E-1,2.382946656E-1
3.920845540E0,-5.619955063E-2,1.600157022E-1,-1.624900252E-1,2.348753345E-1
3.923289759E0,-5.375609174E-2,1.612374336E-1,-1.606574208E-1,2.338761087E-1
3.925734759E0,-5.131263286E-2,1.649026126E-1,-1.582139581E-1,2.342168108E-1
3.928180592E0,-4.825831205E-2,1.667352170E-1,-1.545487791E-1,2.324108913E-1
3.930625644E0,-4.459312186E-2,1.685678065E-1,-1.527161747E-1,2.317884422E-1
3.933069863E0,-4.153879732E-2,1.728438586E-1,-1.502727270E-1,2.327710541E-1
3.935514915E0,-4.031706974E-2,1.789525002E-1,-1.490509957E-1,2.363591817E-1
3.937960748E0,-3.909533843E-2,1.856720150E-1,-1.447749436E-1,2.386678171E-1
3.940405748E0,-3.543015197E-2,1.942241192E-1,-1.411097497E-1,2.426731662E-1
3.942850019E0,-3.298669308E-2,2.027762234E-1,-1.386662871E-1,2.478601579E-1
3.945295019E0,-3.115409613E-2,2.143826634E-1,-1.350011081E-1,2.552563481E-1
3.947740853E0,-2.871064097E-2,2.265999615E-1,-1.319467872E-1,2.637836199E-1
3.950185905E0,-2.443458512E-2,2.375955284E-1,-1.270598620E-1,2.705418500E-1
3.952630123E0,-2.138026431E-2,2.504236698E-1,-1.258381307E-1,2.810771518E-1
3.955075176E0,-1.893680543E-2,2.626409829E-1,-1.233946756E-1,2.908008501E-1
3.957521009E0,-1.710421033E-2,2.730256617E-1,-1.221729442E-1,2.996027274E-1
3.959966009E0,-1.404988766E-2,2.834103703E-1,-1.215620711E-1,3.087007848E-1
3.962410228E0,-9.773833677E-3,2.907407582E-1,-1.197294816E-1,3.145804588E-1
3.964855280E0,-7.330375258E-3,2.956276536E-1,-1.215620711E-1,3.197292309E-1
3.967301113E0,-4.276051652E-3,2.999037206E-1,-1.215620711E-1,3.236322966E-1
3.969746113E0,-6.108633243E-4,2.999037206E-1,-1.203403547E-1,3.231476687E-1
3.972190384E0,3.054325003E-3,3.017363250E-1,-1.203403547E-1,3.248629553E-1
3.974635384E0,7.941242307E-3,3.017363250E-1,-1.197294816E-1,3.247199131E-1
3.977081217E0,1.160643063E-2,3.023471832E-1,-1.203403547E-1,3.256229866E-1
3.979526269E0,1.343902573E-2,3.029580414E-1,-1.185077578E-1,3.255891137E-1
3.981970488E0,1.710421406E-2,3.023471832E-1,-1.166751608E-1,3.245296080E-1
3.984415540E0,1.832594350E-2,3.023471832E-1,-1.166751608E-1,3.245962917E-1
3.986861373E0,2.076940238E-2,3.023471832E-1,-1.142317057E-1,3.238735399E-1
3.989306373E0,2.015853673E-2,3.035688996E-1,-1.148425713E-1,3.251911124E-1
3.991750644E0,2.076940238E-2,3.041797876E-1,-1.154534370E-1,3.260156551E-1
3.994195644E0,2.076940238E-2,3.072341084E-1,-1.166751608E-1,3.292981303E-1
3.996641478E0,2.138026804E-2,3.090666831E-1,-1.191186234E-1,3.319165210E-1
