"Time (s)","Gyroscope x (rad/s)","Gyroscope y (rad/s)","Gyroscope z (rad/s)","Absolute (rad/s)"
8.639558900E-2,-4.906007089E-3,1.597029343E-2,6.501890253E-3,1.792745812E-2
8.884064100E-2,-1.851683715E-3,1.108337566E-2,6.501890253E-3,1.298246993E-2
9.128642200E-2,1.202639891E-3,6.196458358E-3,7.112754975E-3,9.509664674E-3
9.373147400E-2,3.646098776E-3,4.974730778E-3,5.891025532E-3,8.529136206E-3
9.617569300E-2,6.700422615E-3,-1.133918297E-3,5.280160811E-3,8.605901005E-3
9.862069300E-2,6.700422615E-3,-2.966511529E-3,6.501890253E-3,9.796449905E-3
1.010665260E-1,9.143881500E-3,-5.409970414E-3,6.501890253E-3,1.245603972E-2
1.035115780E-1,1.158734038E-2,-8.464295417E-3,6.501890253E-3,1.575389891E-2
1.059557970E-1,1.341993455E-2,-1.029688865E-2,7.723619696E-3,1.859502246E-2
1.084007970E-1,1.525252778E-2,-1.090775430E-2,8.334483951E-3,2.052029070E-2
1.108466300E-1,1.647425815E-2,-1.151861809E-2,6.501890253E-3,2.112709922E-2
1.132916300E-1,1.647425815E-2,-1.579467207E-2,7.723619696E-3,2.409413100E-2
1.157358490E-1,1.769598573E-2,-1.884899475E-2,8.334483951E-3,2.716424372E-2
1.181809010E-1,1.708512194E-2,-2.129245363E-2,8.945349604E-3,2.872784804E-2
1.206266820E-1,1.891771704E-2,-2.617937140E-2,8.945349604E-3,3.351505310E-2
1.230717340E-1,1.830685139E-2,-2.740110084E-2,8.945349604E-3,3.414645538E-2
1.255159530E-1,1.891771704E-2,-2.984455973E-2,8.945349604E-3,3.644992514E-2
1.279609530E-1,1.769598573E-2,-3.106628917E-2,8.945349604E-3,3.685487096E-2
1.304067870E-1,1.952858269E-2,-3.289888427E-2,8.334483951E-3,3.915566052E-2
1.328517870E-1,1.952858269E-2,-3.473147750E-2,1.138880849E-2,4.144087391E-2
1.352960570E-1,1.708512194E-2,-3.412061185E-2,1.077794284E-2,3.965200621E-2
1.377410570E-1,1.708512194E-2,-3.595320880E-2,1.138880849E-2,4.140337636E-2
1.401868910E-1,1.769598573E-2,-3.656407073E-2,1.199967228E-2,4.235647901E-2
1.426318910E-1,1.769598573E-2,-3.717493638E-2,1.138880849E-2,4.271801453E-2
1.450761090E-1,1.647425815E-2,-3.534234315E-2,1.261053793E-2,4.098180167E-2
1.475211620E-1,1.525252778E-2,-3.473147750E-2,1.322140172E-2,4.017114134E-2
1.499669430E-1,1.341993455E-2,-3.045542538E-2,1.383226737E-2,3.604107655E-2
1.524119950E-1,1.341993455E-2,-2.617937140E-2,1.505399682E-2,3.304658758E-2
1.548562140E-1,1.219820511E-2,-1.884899475E-2,1.444313116E-2,2.669615794E-2
1.573012140E-1,1.219820511E-2,-1.457294077E-2,1.383226737E-2,2.350528517E-2
1.597470470E-1,1.158734038E-2,-9.686022997E-3,1.261053793E-2,1.967514080E-2
1.621920990E-1,1.036561094E-2,-3.577377182E-3,1.322140172E-2,1.717698988E-2
1.646363180E-1,7.922152057E-3,-1.744782086E-3,1.199967228E-2,1.448436718E-2
1.670813180E-1,7.922152057E-3,2.531271894E-3,1.077794284E-2,1.361366528E-2
1.695271510E-1,7.311287336E-3,5.585592706E-3,1.077794284E-2,1.417102043E-2
1.719721510E-1,5.478693172E-3,7.418189663E-3,1.077794284E-2,1.418483939E-2
1.744163700E-1,5.478693172E-3,1.047251001E-2,1.016707905E-2,1.559035090E-2
1.768614220E-1,3.035234055E-3,1.352683455E-2,8.334483951E-3,1.617564593E-2
1.793072550E-1,3.646098776E-3,1.169424132E-2,8.945349604E-3,1.516801225E-2
1.817522550E-1,1.813504612E-3,1.352683455E-2,8.334483951E-3,1.599148757E-2
1.841964740E-1,1.202639891E-3,1.535942778E-2,8.334483951E-3,1.751633487E-2
1.866415260E-1,1.202639891E-3,1.535942778E-2,9.556213394E-3,1.812952230E-2
1.890873070E-1,1.202639891E-3,1.597029343E-2,1.138880849E-2,1.965201195E-2
1.915323590E-1,2.424369333E-3,1.535942778E-2,1.077794284E-2,1.891966279E-2
1.939765780E-1,1.202639891E-3,1.597029343E-2,1.077794284E-2,1.930442091E-2
1.964215780E-1,1.813504612E-3,1.413770020E-2,1.383226737E-2,1.986189786E-2
1.988674120E-1,1.202639891E-3,1.291597262E-2,1.566486061E-2,2.033854836E-2
2.013124120E-1,1.202639891E-3,9.861648083E-3,1.688659005E-2,1.959222726E-2
2.037566300E-1,2.424369333E-3,1.047251001E-2,1.871918514E-2,2.158608174E-2
2.062016820E-1,4.256963730E-3,8.029054850E-3,2.238437161E-2,2.415879869E-2
2.086475160E-1,3.646098776E-3,6.807324011E-3,2.238437161E-2,2.367897356E-2
2.110925160E-1,4.256963730E-3,5.585592706E-3,2.482783049E-2,2.580197188E-2
2.135367340E-1,5.478693172E-3,3.752999473E-3,2.604956180E-2,2.688272222E-2
2.159817340E-1,4.867828451E-3,1.309540588E-3,2.971474826E-2,3.013929188E-2
2.184275680E-1,6.700422615E-3,8.781295037E-5,3.093647957E-2,3.165389616E-2
2.208726200E-1,7.922152057E-3,-2.355645876E-3,3.093647957E-2,3.202148230E-2
2.233168390E-1,8.533016779E-3,-1.744782086E-3,3.032561392E-2,3.155153719E-2
2.257618390E-1,8.533016779E-3,-2.355645876E-3,3.276907280E-2,3.394368240E-2
2.282076720E-1,8.533016779E-3,-2.966511529E-3,3.337993845E-2,3.458081632E-2
2.306526720E-1,9.754746221E-3,-4.188240971E-3,3.276907280E-2,3.444573368E-2
2.330968910E-1,9.754746221E-3,-6.631699856E-3,3.215820715E-2,3.425324516E-2
2.355419430E-1,8.533016779E-3,-7.853429765E-3,3.215820715E-2,3.418536268E-2
2.379877760E-1,1.097647566E-2,-9.075159207E-3,3.215820715E-2,3.517089450E-2
2.404327760E-1,9.754746221E-3,-1.090775430E-2,3.215820715E-2,3.533106940E-2
2.428769950E-1,9.143881500E-3,-1.212948188E-2,3.032561392E-2,3.391721921E-2
2.453220470E-1,1.036561094E-2,-1.335121319E-2,2.910388447E-2,3.365615657E-2
2.477678280E-1,9.143881500E-3,-1.640553586E-2,2.849302068E-2,3.412630076E-2
2.502128800E-1,1.097647566E-2,-1.640553586E-2,2.727128938E-2,3.366523205E-2
2.526570990E-1,8.533016779E-3,-1.823813096E-2,2.727128938E-2,3.389933658E-2
2.551020990E-1,8.533016779E-3,-2.007072419E-2,2.482783049E-2,3.304644477E-2
2.575479320E-1,8.533016779E-3,-2.068158984E-2,2.543869615E-2,3.387724598E-2
2.599929320E-1,7.922152057E-3,-2.312504873E-2,2.482783049E-2,3.484177864E-2
2.624372030E-1,1.036561094E-2,-2.434677631E-2,2.543869615E-2,3.670611214E-2
2.648822030E-1,5.478693172E-3,-2.556850761E-2,2.360610291E-2,3.522801094E-2
2.673280370E-1,1.158734038E-2,-2.373591252E-2,2.360610291E-2,3.542468200E-2
2.697730370E-1,7.922152057E-3,-2.556850761E-2,2.360610291E-2,3.568973479E-2
2.722172550E-1,9.754746221E-3,-2.495764196E-2,2.482783049E-2,3.653026325E-2
2.746623070E-1,6.700422615E-3,-2.679023519E-2,2.543869615E-2,3.754649952E-2
2.771080890E-1,7.311287336E-3,-2.617937140E-2,2.604956180E-2,3.764829451E-2
2.795531410E-1,7.922152057E-3,-2.617937140E-2,2.666042559E-2,3.819552687E-2
2.819973590E-1,4.867828451E-3,-2.495764196E-2,2.604956180E-2,3.640273775E-2
2.844423590E-1,6.700422615E-3,-2.434677631E-2,2.788215503E-2,3.761749259E-2
2.868881930E-1,4.256963730E-3,-2.556850761E-2,2.849302068E-2,3.851911927E-2
2.893331930E-1,7.922152057E-3,-2.373591252E-2,2.788215503E-2,3.746423101E-2
2.917774640E-1,4.256963730E-3,-2.373591252E-2,2.788215503E-2,3.686366575E-2
2.942224640E-1,6.089557894E-3,-2.373591252E-2,2.788215503E-2,3.711995188E-2
2.966682970E-1,3.035234055E-3,-2.312504873E-2,2.727128938E-2,3.588458929E-2
2.991132970E-1,3.035234055E-3,-2.129245363E-2,2.727128938E-2,3.473189387E-2
3.015575160E-1,4.256963730E-3,-2.129245363E-2,2.788215503E-2,3.533984849E-2
3.040025680E-1,2.424369333E-3,-2.251418307E-2,2.727128938E-2,3.544699184E-2
3.064483490E-1,4.256963730E-3,-1.884899475E-2,2.666042559E-2,3.292695910E-2
3.088934010E-1,-1.908955164E-5,-2.068158984E-2,2.482783049E-2,3.231330515E-2
3.113376200E-1,2.424369333E-3,-1.823813096E-2,2.482783049E-2,3.090191183E-2
3.137826200E-1,-1.851683715E-3,-1.884899475E-2,2.482783049E-2,3.122714368E-2
3.162284530E-1,1.202639891E-3,-1.518380642E-2,2.421696670E-2,2.860866646E-2
3.186734530E-1,-1.851683715E-3,-1.396207698E-2,2.177350782E-2,2.593171743E-2
3.211177240E-1,-1.908955164E-5,-1.029688865E-2,2.177350782E-2,2.408551272E-2
3.235627240E-1,5.917751696E-4,-9.686022997E-3,2.116264403E-2,2.328146777E-2
3.260085570E-1,-2.462548437E-3,-7.853429765E-3,2.116264403E-2,2.270678326E-2
3.284535570E-1,-1.908955164E-5,-5.409970414E-3,1.994091272E-2,2.066175560E-2
3.308977760E-1,-4.295142367E-3,-5.409970414E-3,1.871918514E-2,1.995304288E-2
3.333428280E-1,-1.240818994E-3,-1.133918297E-3,1.810831949E-2,1.818616610E-2
3.357886090E-1,-3.684277879E-3,-2.355645876E-3,1.688659005E-2,1.744362045E-2
3.382336620E-1,-1.240818994E-3,8.781295037E-5,1.627572626E-2,1.632319234E-2
3.406778800E-1,-3.073413158E-3,-1.133918297E-3,1.505399682E-2,1.540631232E-2
3.431228800E-1,-3.073413158E-3,1.309540588E-3,1.444313116E-2,1.482446636E-2
3.455687140E-1,-2.462548437E-3,2.531271894E-3,1.383226737E-2,1.427596242E-2
3.480137660E-1,-3.073413158E-3,3.142137546E-3,1.322140172E-2,1.393285184E-2
3.504579840E-1,-1.908955164E-5,4.974730778E-3,1.261053793E-2,1.355632611E-2
3.529029840E-1,-4.295142367E-3,5.585592706E-3,1.261053793E-2,1.444551005E-2
3.553488180E-1,-1.908955164E-5,7.418189663E-3,1.138880849E-2,1.359172031E-2
3.577938180E-1,-5.516871810E-3,4.363865126E-3,1.016707905E-2,1.236319901E-2
3.602380370E-1,-1.851683715E-3,4.974730778E-3,1.016707905E-2,1.146935810E-2
3.626830890E-1,-4.295142367E-3,4.974730778E-3,1.077794284E-2,1.262379682E-2
3.651288700E-1,-3.073413158E-3,4.363865126E-3,9.556213394E-3,1.094579379E-2
3.675739220E-1,-3.684277879E-3,3.752999473E-3,8.334483951E-3,9.855076421E-3
3.700181410E-1,-5.516871810E-3,3.142137546E-3,8.334483951E-3,1.047723846E-2
3.724631930E-1,-1.851683715E-3,4.363865126E-3,7.112754975E-3,8.547709327E-3
3.749089740E-1,-5.516871810E-3,3.752999473E-3,7.723619696E-3,1.020662436E-2
3.773539740E-1,-1.240818994E-3,7.418189663E-3,8.334483951E-3,1.122643275E-2
3.797982450E-1,-6.127736531E-3,9.250782430E-3,7.723619696E-3,1.351963135E-2
3.822432450E-1,-2.462548437E-3,1.352683455E-2,7.723619696E-3,1.577002533E-2
3.846890780E-1,-4.295142367E-3,1.474856585E-2,7.112754975E-3,1.692807508E-2
3.871340780E-1,-3.684277879E-3,1.780289039E-2,7.112754975E-3,1.952198999E-2
3.895782970E-1,-1.240818994E-3,1.963548362E-2,4.669296090E-3,2.022113189E-2
3.920233490E-1,-3.073413158E-3,1.963548362E-2,4.669296090E-3,2.041569033E-2
3.944691300E-1,-1.240818994E-3,2.024634555E-2,7.112754975E-3,2.149524187E-2
3.969141820E-1,-4.906007089E-3,1.963548362E-2,5.891025532E-3,2.107902523E-2
3.993584010E-1,1.202639891E-3,2.207894251E-2,4.669296090E-3,2.259930023E-2
4.018034010E-1,-3.073413158E-3,1.841375232E-2,4.669296090E-3,1.924355655E-2
4.042492340E-1,-1.240818994E-3,2.024634555E-2,5.280160811E-3,2.096030148E-2
4.066942870E-1,-3.073413158E-3,1.719202474E-2,6.501890253E-3,1.863561536E-2
4.091385050E-1,-6.299542729E-4,1.597029343E-2,5.280160811E-3,1.683232643E-2
4.115835050E-1,5.917751696E-4,1.413770020E-2,4.669296090E-3,1.490057350E-2
4.140293390E-1,-1.851683715E-3,1.352683455E-2,5.280160811E-3,1.463844540E-2
4.164743390E-1,1.813504612E-3,1.352683455E-2,4.669296090E-3,1.442450616E-2
4.189185570E-1,-1.851683715E-3,1.108337566E-2,5.280160811E-3,1.241571773E-2
4.213636090E-1,3.035234055E-3,1.291597262E-2,5.280160811E-3,1.427988420E-2
4.238094430E-1,-1.908955164E-5,9.861648083E-3,5.891025532E-3,1.148723853E-2
4.262544430E-1,4.867828451E-3,1.169424132E-2,7.723619696E-3,1.483594739E-2
4.286986620E-1,1.813504612E-3,9.250782430E-3,7.723619696E-3,1.218688130E-2
4.311437140E-1,3.035234055E-3,9.250782430E-3,9.556213394E-3,1.364224453E-2
4.335894950E-1,4.867828451E-3,6.807324011E-3,1.077794284E-2,1.364549251E-2
4.360345470E-1,3.035234055E-3,7.418189663E-3,1.016707905E-2,1.294649296E-2
4.384787660E-1,5.478693172E-3,5.585592706E-3,1.199967228E-2,1.432505007E-2
4.409237660E-1,5.917751696E-4,4.363865126E-3,1.077794284E-2,1.164291924E-2
4.433695990E-1,4.867828451E-3,4.363865126E-3,1.261053793E-2,1.420439156E-2
4.458145990E-1,1.202639891E-3,1.309540588E-3,1.261053793E-2,1.273526231E-2
4.482588180E-1,4.867828451E-3,1.309540588E-3,1.383226737E-2,1.472216937E-2
4.507038700E-1,3.035234055E-3,-1.744782086E-3,1.383226737E-2,1.426844529E-2
4.531497030E-1,4.867828451E-3,-2.355645876E-3,1.383226737E-2,1.485181612E-2
4.555947030E-1,4.867828451E-3,-4.188240971E-3,1.383226737E-2,1.525020449E-2
4.580389220E-1,4.256963730E-3,-4.188240971E-3,1.444313116E-2,1.562904797E-2
4.604839740E-1,7.922152057E-3,-6.020836066E-3,1.505399682E-2,1.804532572E-2
4.629297550E-1,3.646098776E-3,-7.853429765E-3,1.505399682E-2,1.736643934E-2
4.653748070E-1,6.700422615E-3,-7.242563646E-3,1.505399682E-2,1.799925586E-2
4.678190260E-1,3.035234055E-3,-1.029688865E-2,1.383226737E-2,1.750914568E-2
4.702640260E-1,6.700422615E-3,-8.464295417E-3,1.627572626E-2,1.953046915E-2
4.727098590E-1,3.646098776E-3,-1.029688865E-2,1.444313116E-2,1.810867168E-2
4.751548590E-1,4.256963730E-3,-8.464295417E-3,1.383226737E-2,1.676596725E-2
4.775990780E-1,3.035234055E-3,-8.464295417E-3,1.261053793E-2,1.548814416E-2
4.800441300E-1,4.256963730E-3,-6.631699856E-3,1.322140172E-2,1.539177204E-2
4.824899640E-1,6.089557894E-3,-4.188240971E-3,1.199967228E-2,1.409312643E-2
4.849349640E-1,1.202639891E-3,-3.577377182E-3,1.138880849E-2,1.199787185E-2
4.873791820E-1,5.478693172E-3,1.309540588E-3,1.077794284E-2,1.216120994E-2
4.898242340E-1,1.813504612E-3,6.986748776E-4,9.556213394E-3,9.751828546E-3
4.922700160E-1,6.089557894E-3,5.585592706E-3,1.016707905E-2,1.310156699E-2
4.947150680E-1,2.424369333E-3,6.196458358E-3,8.334483951E-3,1.066476843E-2
4.971592870E-1,2.424369333E-3,8.639916778E-3,5.891025532E-3,1.073451957E-2
4.996042870E-1,2.424369333E-3,1.047251001E-2,6.501890253E-3,1.256286629E-2
5.020501200E-1,1.202639891E-3,1.047251001E-2,5.280160811E-3,1.178982217E-2
5.044951200E-1,3.646098776E-3,1.291597262E-2,5.280160811E-3,1.442208318E-2
5.069393910E-1,-2.462548437E-3,1.413770020E-2,4.058431368E-3,1.491340259E-2
5.093843910E-1,1.813504612E-3,1.658115909E-2,3.447566647E-3,1.703259673E-2
5.118302240E-1,-3.073413158E-3,1.474856585E-2,2.225837205E-3,1.522893346E-2
5.142752240E-1,1.813504612E-3,1.780289039E-2,2.836701926E-3,1.811845973E-2
5.167194430E-1,-1.851683715E-3,1.780289039E-2,2.225837205E-3,1.803679545E-2
5.191644950E-1,1.202639891E-3,1.902461797E-2,2.836701926E-3,1.927250138E-2
5.216102760E-1,-1.240818994E-3,1.658115909E-2,3.447566647E-3,1.698117146E-2
5.240553280E-1,-1.851683715E-3,1.719202474E-2,2.225837205E-3,1.743412741E-2
5.264995470E-1,1.202639891E-3,1.597029343E-2,3.447566647E-3,1.638237867E-2
5.289445470E-1,-1.851683715E-3,1.352683455E-2,5.280160811E-3,1.463844540E-2
5.313903800E-1,3.035234055E-3,1.474856585E-2,4.669296090E-3,1.576499814E-2
5.338354320E-1,-1.851683715E-3,1.230510697E-2,7.112754975E-3,1.433302736E-2
5.362796510E-1,3.035234055E-3,1.352683455E-2,8.334483951E-3,1.617564593E-2
5.387246510E-1,1.813504612E-3,1.108337566E-2,8.334483951E-3,1.398547953E-2
5.411704840E-1,3.646098776E-3,1.169424132E-2,1.016707905E-2,1.591913354E-2
5.436154840E-1,3.035234055E-3,1.108337566E-2,1.261053793E-2,1.706105298E-2
5.460597030E-1,3.646098776E-3,9.250782430E-3,1.383226737E-2,1.703533482E-2
5.485047550E-1,5.478693172E-3,8.029054850E-3,1.322140172E-2,1.640997453E-2
5.509505370E-1,2.424369333E-3,6.196458358E-3,1.444313116E-2,1.590212881E-2
5.533955890E-1,8.533016779E-3,5.585592706E-3,1.505399682E-2,1.818334516E-2
5.558398070E-1,4.256963730E-3,3.142137546E-3,1.566486061E-2,1.653428639E-2
5.582848070E-1,7.922152057E-3,3.142137546E-3,1.627572626E-2,1.837206539E-2
5.607306410E-1,4.256963730E-3,-5.230527022E-4,1.810831949E-2,1.860931377E-2
5.631756410E-1,7.922152057E-3,8.781295037E-5,1.627572626E-2,1.810158749E-2
5.656199120E-1,6.089557894E-3,-4.188240971E-3,1.688659005E-2,1.843314952E-2
5.680649120E-1,4.867828451E-3,-5.409970414E-3,1.566486061E-2,1.727285129E-2
5.705107450E-1,9.754746221E-3,-5.409970414E-3,1.627572626E-2,1.973124727E-2
5.729557450E-1,6.089557894E-3,-7.242563646E-3,1.505399682E-2,1.778089603E-2
5.753999640E-1,9.754746221E-3,-4.799104761E-3,1.444313116E-2,1.807734821E-2
5.778450160E-1,6.089557894E-3,-6.631699856E-3,1.322140172E-2,1.599586265E-2
5.802907970E-1,9.143881500E-3,-7.242563646E-3,1.322140172E-2,1.763152746E-2
5.827358490E-1,5.478693172E-3,-9.686022997E-3,1.138880849E-2,1.592294191E-2
5.851800680E-1,7.311287336E-3,-8.464295417E-3,1.077794284E-2,1.553265178E-2
5.876250680E-1,7.922152057E-3,-1.212948188E-2,9.556213394E-3,1.735528848E-2
5.900709010E-1,7.311287336E-3,-1.151861809E-2,8.945349604E-3,1.631418906E-2
5.925159530E-1,8.533016779E-3,-1.274034753E-2,7.723619696E-3,1.716924960E-2
5.949601720E-1,6.700422615E-3,-1.457294077E-2,5.891025532E-3,1.708714276E-2
5.974051720E-1,9.143881500E-3,-1.274034753E-2,7.723619696E-3,1.748088457E-2
5.998510050E-1,4.867828451E-3,-1.151861809E-2,5.891025532E-3,1.382311464E-2
6.022960050E-1,9.143881500E-3,-9.075159207E-3,7.723619696E-3,1.502076512E-2
6.047402240E-1,4.867828451E-3,-9.686022997E-3,7.112754975E-3,1.296557282E-2
6.071852760E-1,4.867828451E-3,-3.577377182E-3,7.112754975E-3,9.331916451E-3
6.096310570E-1,4.867828451E-3,-5.409970414E-3,5.891025532E-3,9.363103947E-3
6.120761090E-1,4.256963730E-3,-2.355645876E-3,6.501890253E-3,8.120676361E-3
6.145203280E-1,6.089557894E-3,-5.230527022E-4,5.280160811E-3,8.076905203E-3
6.169653280E-1,3.035234055E-3,-1.133918297E-3,4.669296090E-3,5.683374213E-3
6.194111620E-1,4.867828451E-3,6.986748776E-4,6.501890253E-3,8.152206896E-3
6.218562140E-1,-1.908955164E-5,-1.744782086E-3,4.669296090E-3,4.984671996E-3
6.243004320E-1,4.256963730E-3,1.309540588E-3,4.669296090E-3,6.452825949E-3
6.267454320E-1,5.917751696E-4,-1.133918297E-3,4.669296090E-3,4.841311240E-3
6.291912660E-1,1.202639891E-3,-1.133918297E-3,6.501890253E-3,6.708702578E-3
6.316362660E-1,-1.908955164E-5,6.986748776E-4,6.501890253E-3,6.539349192E-3
6.340804840E-1,-1.908955164E-5,2.531271894E-3,6.501890253E-3,6.977268712E-3
6.365255370E-1,1.202639891E-3,3.142137546E-3,7.112754975E-3,7.868332377E-3
6.389713180E-1,-2.462548437E-3,5.585592706E-3,7.112754975E-3,9.373061080E-3
6.414163700E-1,1.813504612E-3,6.807324011E-3,9.556213394E-3,1.187222277E-2
6.438605890E-1,-3.073413158E-3,4.974730778E-3,8.334483951E-3,1.018122967E-2
6.463056410E-1,5.917751696E-4,8.029054850E-3,8.945349604E-3,1.203474965E-2
6.487514220E-1,-3.073413158E-3,4.974730778E-3,1.138880849E-2,1.280229564E-2
6.511964740E-1,-1.908955164E-5,7.418189663E-3,1.138880849E-2,1.359172031E-2
6.536406930E-1,-1.240818994E-3,6.196458358E-3,1.016707905E-2,1.197101601E-2
6.560856930E-1,-6.299542729E-4,4.363865126E-3,1.138880849E-2,1.221249852E-2
6.585315260E-1,1.202639891E-3,3.142137546E-3,1.261053793E-2,1.305162971E-2
6.609765260E-1,-3.073413158E-3,-5.230527022E-4,1.261053793E-2,1.299019320E-2
6.634207450E-1,1.813504612E-3,8.781295037E-5,1.383226737E-2,1.395091864E-2
6.658657970E-1,-3.684277879E-3,-1.744782086E-3,1.322140172E-2,1.383559292E-2
6.683116300E-1,5.917751696E-4,1.309540588E-3,1.444313116E-2,1.451444564E-2
6.707566300E-1,-1.851683715E-3,-2.355645876E-3,1.505399682E-2,1.534928729E-2
6.732008490E-1,-1.908955164E-5,-1.744782086E-3,1.566486061E-2,1.576174123E-2
6.756458490E-1,-1.851683715E-3,-2.966511529E-3,1.627572626E-2,1.664716758E-2
6.780916820E-1,-2.462548437E-3,-2.966511529E-3,1.627572626E-2,1.672613526E-2
6.805367340E-1,-6.299542729E-4,-5.409970414E-3,1.688659005E-2,1.774321126E-2
6.829809530E-1,-3.684277879E-3,-6.631699856E-3,1.688659005E-2,1.851243555E-2
6.854259530E-1,-1.908955164E-5,-5.409970414E-3,1.688659005E-2,1.773203507E-2
6.878717870E-1,-4.295142367E-3,-9.686022997E-3,1.566486061E-2,1.891177272E-2
6.903167870E-1,-6.299542729E-4,-6.020836066E-3,1.566486061E-2,1.679390268E-2
6.927610050E-1,-3.684277879E-3,-6.020836066E-3,1.566486061E-2,1.718174113E-2
6.952060570E-1,-6.299542729E-4,-1.744782086E-3,1.444313116E-2,1.456176997E-2
6.976518910E-1,-2.462548437E-3,2.531271894E-3,1.505399682E-2,1.546267449E-2
7.000968910E-1,-2.462548437E-3,8.029054850E-3,1.261053793E-2,1.515109018E-2
7.025411090E-1,-1.908955164E-5,1.108337566E-2,1.261053793E-2,1.678890251E-2
7.049861620E-1,-3.073413158E-3,1.535942778E-2,9.556213394E-3,1.834881753E-2
7.074319430E-1,-1.240818994E-3,1.963548362E-2,9.556213394E-3,2.187265561E-2
7.098769950E-1,-6.127736531E-3,2.024634555E-2,9.556213394E-3,2.321174008E-2
7.123212140E-1,-3.073413158E-3,2.513326332E-2,7.112754975E-3,2.630053378E-2
7.147662140E-1,-7.960330695E-3,2.513326332E-2,5.280160811E-3,2.688731835E-2
7.172120470E-1,-5.516871810E-3,2.574412897E-2,4.669296090E-3,2.673945357E-2
7.196570470E-1,-4.906007089E-3,2.513326332E-2,4.058431368E-3,2.592721921E-2
7.221012660E-1,-3.684277879E-3,2.452240139E-2,2.225837205E-3,2.489731762E-2
7.245463180E-1,-3.684277879E-3,2.452240139E-2,2.225837205E-3,2.489731762E-2
7.269921510E-1,-5.516871810E-3,2.146807685E-2,2.225837205E-3,2.227708575E-2
7.294371510E-1,-2.462548437E-3,2.085721120E-2,3.932430409E-4,2.100576216E-2
7.318813700E-1,-5.516871810E-3,2.085721120E-2,3.932430409E-4,2.157808550E-2
7.343264220E-1,-1.240818994E-3,2.207894251E-2,2.225837205E-3,2.222551879E-2
7.367722030E-1,-4.906007089E-3,1.719202474E-2,1.614972483E-3,1.795112131E-2
7.392172550E-1,-1.908955164E-5,1.780289039E-2,2.225837205E-3,1.794150556E-2
7.416614740E-1,-1.851683715E-3,1.474856585E-2,2.836701926E-3,1.513260735E-2
7.441064740E-1,1.202639891E-3,1.413770020E-2,2.836701926E-3,1.446954690E-2
7.465523070E-1,2.424369333E-3,1.352683455E-2,5.280160811E-3,1.472185171E-2
7.489973070E-1,-1.908955164E-5,1.108337566E-2,6.501890253E-3,1.284975320E-2
7.514415260E-1,3.646098776E-3,1.230510697E-2,7.112754975E-3,1.467313794E-2
7.538865780E-1,3.646098776E-3,9.250782430E-3,1.016707905E-2,1.422112894E-2
7.563324120E-1,3.646098776E-3,9.861648083E-3,1.077794284E-2,1.505689845E-2
7.587774120E-1,4.256963730E-3,8.639916778E-3,1.016707905E-2,1.400497763E-2
7.612216300E-1,4.256963730E-3,6.196458358E-3,1.199967228E-2,1.416015435E-2
7.636666820E-1,6.089557894E-3,4.363865126E-3,1.138880849E-2,1.363198419E-2
7.661124640E-1,6.089557894E-3,3.142137546E-3,1.138880849E-2,1.329137700E-2
7.685575160E-1,5.478693172E-3,-1.744782086E-3,1.261053793E-2,1.385950974E-2
7.710017340E-1,6.700422615E-3,-2.355645876E-3,1.261053793E-2,1.447309219E-2
7.734467340E-1,7.922152057E-3,-4.799104761E-3,1.383226737E-2,1.664702738E-2
7.758925680E-1,7.922152057E-3,-6.631699856E-3,1.322140172E-2,1.677931464E-2
7.783375680E-1,9.143881500E-3,-7.853429765E-3,1.199967228E-2,1.700820575E-2
7.807817870E-1,9.754746221E-3,-7.853429765E-3,1.077794284E-2,1.652257500E-2
7.832268390E-1,9.143881500E-3,-9.686022997E-3,1.199967228E-2,1.792823876E-2
7.856726720E-1,9.143881500E-3,-1.090775430E-2,1.199967228E-2,1.861670775E-2
7.881176720E-1,1.036561094E-2,-1.396207698E-2,1.138880849E-2,2.078678529E-2
7.905618910E-1,7.922152057E-3,-1.457294077E-2,9.556213394E-3,1.914294414E-2
7.930069430E-1,9.143881500E-3,-1.518380642E-2,9.556213394E-3,2.013652802E-2
7.954527240E-1,7.311287336E-3,-1.579467207E-2,1.016707905E-2,2.015678756E-2
7.978977760E-1,7.311287336E-3,-1.518380642E-2,1.016707905E-2,1.968177828E-2
8.003419950E-1,7.311287336E-3,-1.518380642E-2,9.556213394E-3,1.937328352E-2
8.027869950E-1,7.311287336E-3,-1.396207698E-2,9.556213394E-3,1.843137896E-2
8.052328280E-1,5.478693172E-3,-1.396207698E-2,1.016707905E-2,1.811974527E-2
8.076778280E-1,6.089557894E-3,-1.274034753E-2,8.945349604E-3,1.671581437E-2
8.101220990E-1,6.089557894E-3,-1.274034753E-2,9.556213394E-3,1.705052448E-2
8.125670990E-1,5.478693172E-3,-1.335121319E-2,8.945349604E-3,1.697911223E-2
8.150129320E-1,5.478693172E-3,-1.090775430E-2,8.945349604E-3,1.513322379E-2
8.174579320E-1,4.256963730E-3,-1.090775430E-2,8.334483951E-3,1.437235078E-2
8.199021510E-1,4.867828451E-3,-8.464295417E-3,8.334483951E-3,1.283758830E-2
8.223472030E-1,3.035234055E-3,-7.242563646E-3,8.945349604E-3,1.190322030E-2
8.247929840E-1,2.424369333E-3,-6.020836066E-3,7.723619696E-3,1.008872315E-2
8.272380370E-1,2.424369333E-3,-3.577377182E-3,6.501890253E-3,7.807033433E-3
8.296822550E-1,1.202639891E-3,-2.966511529E-3,5.280160811E-3,6.174676635E-3
8.321272550E-1,-1.908955164E-5,-2.966511529E-3,5.280160811E-3,6.056455502E-3
8.345730890E-1,-6.299542729E-4,-1.744782086E-3,4.058431368E-3,4.462283282E-3
8.370180890E-1,5.917751696E-4,8.781295037E-5,3.447566647E-3,3.499089132E-3
8.394623590E-1,-6.299542729E-4,1.920406241E-3,1.614972483E-3,2.587071441E-3
8.419073590E-1,-1.908955164E-5,1.920406241E-3,1.004107762E-3,2.167154111E-3
8.443531930E-1,-1.908955164E-5,4.974730778E-3,-2.176221460E-4,4.979525091E-3
8.467981930E-1,-6.299542729E-4,6.196458358E-3,-1.439351588E-3,6.392548128E-3
8.492424120E-1,-1.908955164E-5,8.029054850E-3,-2.050215378E-3,8.286704369E-3
8.516874640E-1,-1.240818994E-3,1.047251001E-2,-3.271944821E-3,1.104168106E-2
8.541332450E-1,-1.240818994E-3,1.108337566E-2,-4.493674263E-3,1.202389106E-2
8.565782970E-1,-1.908955164E-5,1.169424132E-2,-5.104539916E-3,1.275977947E-2
8.590225160E-1,-6.299542729E-4,1.230510697E-2,-6.326269358E-3,1.385042179E-2
8.614675160E-1,-1.851683715E-3,1.535942778E-2,-4.493674263E-3,1.611005471E-2
8.639133490E-1,-2.462548437E-3,1.719202474E-2,-5.715403706E-3,1.828375505E-2
8.663583490E-1,-1.851683715E-3,1.597029343E-2,-3.882810473E-3,1.653950489E-2
8.688026200E-1,-3.073413158E-3,1.474856585E-2,-3.882810473E-3,1.555770807E-2
8.712476200E-1,-3.073413158E-3,1.658115909E-2,-3.882810473E-3,1.730482367E-2
8.736934530E-1,-3.684277879E-3,1.719202474E-2,-3.271944821E-3,1.788421765E-2
8.761384530E-1,-3.073413158E-3,1.719202474E-2,-1.439351588E-3,1.752379285E-2
8.785826720E-1,-6.299542729E-4,1.658115909E-2,-8.284859359E-4,1.661379150E-2
8.810277240E-1,-2.462548437E-3,1.658115909E-2,3.932430409E-4,1.676763613E-2
8.834735050E-1,-2.462548437E-3,1.658115909E-2,2.225837205E-3,1.691015472E-2
8.859185570E-1,-1.240818994E-3,1.780289039E-2,2.836701926E-3,1.807012495E-2
8.883627760E-1,-2.462548437E-3,1.780289039E-2,2.836701926E-3,1.819488744E-2
8.908077760E-1,-2.462548437E-3,1.719202474E-2,3.447566647E-3,1.770637103E-2
8.932536090E-1,-3.073413158E-3,1.719202474E-2,4.669296090E-3,1.807799516E-2
8.956986620E-1,-1.851683715E-3,1.719202474E-2,6.501890253E-3,1.847346811E-2
8.981428800E-1,-1.851683715E-3,1.535942778E-2,5.280160811E-3,1.634689122E-2
9.005878800E-1,-1.851683715E-3,1.413770020E-2,5.891025532E-3,1.542749109E-2
9.030337140E-1,-6.299542729E-4,1.047251001E-2,5.280160811E-3,1.174522909E-2
9.054787140E-1,-1.240818994E-3,9.250782430E-3,5.891025532E-3,1.103724554E-2
9.079229320E-1,-1.240818994E-3,8.639916778E-3,6.501890253E-3,1.088404201E-2
9.103679840E-1,-1.240818994E-3,5.585592706E-3,7.723619696E-3,9.612116253E-3
9.128137660E-1,-1.240818994E-3,4.363865126E-3,6.501890253E-3,7.928273928E-3
9.152588180E-1,-6.299542729E-4,3.752999473E-3,5.891025532E-3,7.013275216E-3
9.177030370E-1,1.813504612E-3,1.920406241E-3,4.669296090E-3,5.364614160E-3
9.201480370E-1,1.202639891E-3,3.142137546E-3,5.891025532E-3,6.784066103E-3
9.225938700E-1,1.202639891E-3,2.531271894E-3,4.058431368E-3,4.931992019E-3
9.250388700E-1,3.035234055E-3,6.986748776E-4,4.669296090E-3,5.612763876E-3
9.274831410E-1,5.917751696E-4,6.986748776E-4,3.447566647E-3,3.567080069E-3
9.299281410E-1,-1.908955164E-5,1.920406241E-3,2.836701926E-3,3.425668162E-3
9.323739740E-1,1.202639891E-3,6.986748776E-4,2.836701926E-3,3.159330168E-3
9.348189740E-1,1.202639891E-3,8.781295037E-5,1.614972483E-3,2.015487520E-3
9.372631930E-1,5.917751696E-4,8.781295037E-5,3.932430409E-4,7.159253137E-4
9.397082450E-1,-1.908955164E-5,6.986748776E-4,1.004107762E-3,1.223414645E-3
9.421540260E-1,5.917751696E-4,8.781295037E-5,3.932430409E-4,7.159253137E-4
9.445990780E-1,5.917751696E-4,8.781295037E-5,-8.284859359E-4,1.021908955E-3
9.470432970E-1,1.202639891E-3,1.309540588E-3,-1.439351588E-3,2.287569071E-3
9.494882970E-1,1.202639891E-3,3.142137546E-3,-1.439351588E-3,3.659385749E-3
9.519341300E-1,1.202639891E-3,1.309540588E-3,-1.439351588E-3,2.287569071E-3
9.543791820E-1,1.813504612E-3,2.531271894E-3,-2.050215378E-3,3.728205932E-3
9.568234010E-1,2.424369333E-3,1.920406241E-3,-1.439351588E-3,3.411342813E-3
9.592684010E-1,1.813504612E-3,3.142137546E-3,-3.271944821E-3,4.885432452E-3
9.617142340E-1,5.917751696E-4,4.363865126E-3,-3.271944821E-3,5.486268276E-3
9.641592340E-1,1.202639891E-3,1.920406241E-3,-3.882810473E-3,4.495611194E-3
9.666034530E-1,1.202639891E-3,3.142137546E-3,-4.493674263E-3,5.613597728E-3
9.690485050E-1,-1.908955164E-5,1.920406241E-3,-3.271944821E-3,3.793935615E-3
9.714942870E-1,5.917751696E-4,1.920406241E-3,-4.493674263E-3,4.922526421E-3
9.739393390E-1,5.917751696E-4,1.920406241E-3,-4.493674263E-3,4.922526421E-3
9.763835570E-1,1.202639891E-3,3.142137546E-3,-4.493674263E-3,5.613597728E-3
9.788285570E-1,-1.908955164E-5,6.196458358E-3,-3.882810473E-3,7.312501471E-3
9.812743910E-1,-2.462548437E-3,7.418189663E-3,-3.882810473E-3,8.727536872E-3
9.837194430E-1,-6.299542729E-4,9.250782430E-3,-2.050215378E-3,9.496167704E-3
9.861636620E-1,-6.299542729E-4,1.169424132E-2,-3.271944821E-3,1.215967702E-2
9.886086620E-1,-1.908955164E-5,1.169424132E-2,-2.050215378E-3,1.187261671E-2
9.910544950E-1,-6.299542729E-4,1.291597262E-2,-1.439351588E-3,1.301118458E-2
9.934994950E-1,-1.240818994E-3,1.413770020E-2,-1.439351588E-3,1.426484952E-2
9.959437140E-1,-1.240818994E-3,1.474856585E-2,-2.176221460E-4,1.480226962E-2
9.983887660E-1,-1.851683715E-3,1.719202474E-2,-2.176221460E-4,1.729282529E-2
1.000834599E0,-2.462548437E-3,1.780289039E-2,1.004107762E-3,1.800042454E-2
1.003279599E0,-3.073413158E-3,1.597029343E-2,2.225837205E-3,1.641494721E-2
1.005723818E0,-3.073413158E-3,1.658115909E-2,1.614972483E-3,1.694074500E-2
1.008168870E0,-3.073413158E-3,1.780289039E-2,2.225837205E-3,1.820283291E-2
1.010614651E0,-3.073413158E-3,1.658115909E-2,4.058431368E-3,1.734507337E-2
1.013059703E0,-3.073413158E-3,1.597029343E-2,4.058431368E-3,1.676207045E-2
1.015503922E0,-3.073413158E-3,1.535942778E-2,5.280160811E-3,1.652991193E-2
1.017948922E0,-2.462548437E-3,1.535942778E-2,5.891025532E-3,1.663371120E-2
1.020394755E0,-3.073413158E-3,1.474856585E-2,5.280160811E-3,1.596390182E-2
1.022839755E0,-3.073413158E-3,1.169424132E-2,5.280160811E-3,1.319398524E-2
1.025284026E0,-3.073413158E-3,1.047251001E-2,5.280160811E-3,1.212433225E-2
1.027729026E0,-1.851683715E-3,8.029054850E-3,5.891025532E-3,1.012909849E-2
1.030174859E0,-1.851683715E-3,5.585592706E-3,7.112754975E-3,9.231406273E-3
1.032619859E0,-1.851683715E-3,4.363865126E-3,6.501890253E-3,8.046528959E-3
1.035064078E0,-3.073413158E-3,3.142137546E-3,7.112754975E-3,8.361230778E-3
1.037509130E0,-1.240818994E-3,2.531271894E-3,7.112754975E-3,7.651029506E-3
1.039954912E0,-6.299542729E-4,1.309540588E-3,7.112754975E-3,7.259684722E-3
1.042399964E0,-1.851683715E-3,8.781295037E-5,7.112754975E-3,7.350355571E-3
1.044844182E0,-1.851683715E-3,8.781295037E-5,8.334483951E-3,8.538153573E-3
1.047289182E0,-1.240818994E-3,8.781295037E-5,7.723619696E-3,7.823147966E-3
1.049735016E0,-1.851683715E-3,-5.230527022E-4,6.501890253E-3,6.780626341E-3
1.052180016E0,-1.851683715E-3,-1.744782086E-3,6.501890253E-3,6.981946289E-3
1.054624287E0,-1.851683715E-3,-3.577377182E-3,6.501890253E-3,7.648590520E-3
1.057069287E0,-1.240818994E-3,-4.188240971E-3,6.501890253E-3,7.832979706E-3
1.059515120E0,-2.462548437E-3,-4.799104761E-3,5.280160811E-3,7.548221612E-3
1.061960120E0,-1.851683715E-3,-6.631699856E-3,3.447566647E-3,7.700252681E-3
1.064404339E0,-1.240818994E-3,-7.242563646E-3,4.669296090E-3,8.706129216E-3
1.066849391E0,-6.299542729E-4,-7.853429765E-3,5.280160811E-3,9.484371336E-3
1.069295172E0,-1.908955164E-5,-9.075159207E-3,2.836701926E-3,9.508194195E-3
1.071740224E0,-1.240818994E-3,-9.686022997E-3,2.836701926E-3,1.016885200E-2
1.074184443E0,-3.684277879E-3,-8.464295417E-3,3.447566647E-3,9.854131935E-3
1.076629443E0,-2.462548437E-3,-7.853429765E-3,1.614972483E-3,8.387409611E-3
1.079075276E0,-1.851683715E-3,-7.853429765E-3,1.004107762E-3,8.131010026E-3
1.081520276E0,-2.462548437E-3,-6.020836066E-3,2.225837205E-3,6.875242760E-3
1.083964547E0,-3.073413158E-3,-6.020836066E-3,1.614972483E-3,6.950141833E-3
1.086409547E0,-2.462548437E-3,-2.966511529E-3,3.932430409E-4,3.875432304E-3
1.088855380E0,-3.073413158E-3,-1.744782086E-3,-2.176221460E-4,3.540832157E-3
1.091300380E0,-2.462548437E-3,-5.230527022E-4,-1.439351588E-3,2.899907227E-3
1.093744599E0,-3.073413158E-3,6.986748776E-4,-2.176221460E-4,3.159331325E-3
1.096189651E0,-1.240818994E-3,4.974730778E-3,-2.176221460E-4,5.131757739E-3
1.098635432E0,-2.462548437E-3,7.418189663E-3,-8.284859359E-4,7.860030002E-3
1.101080484E0,-3.684277879E-3,1.047251001E-2,3.932430409E-4,1.110864571E-2
1.103524703E0,-2.462548437E-3,1.230510697E-2,-2.050215378E-3,1.271547032E-2
1.105969703E0,-3.073413158E-3,1.352683455E-2,-2.176221460E-4,1.387330100E-2
1.108415537E0,-4.906007089E-3,1.413770020E-2,-8.284859359E-4,1.498765697E-2
1.110860537E0,-3.684277879E-3,1.474856585E-2,-8.284859359E-4,1.522433864E-2
1.113304807E0,-3.684277879E-3,1.780289039E-2,-2.176221460E-4,1.818142374E-2
1.115749807E0,-2.462548437E-3,1.719202474E-2,-8.284859359E-4,1.738724384E-2
1.118195641E0,-3.073413158E-3,1.780289039E-2,1.004107762E-3,1.809411526E-2
1.120640641E0,-2.462548437E-3,1.902461797E-2,3.932430409E-4,1.918736235E-2
1.123084859E0,-1.851683715E-3,2.024634555E-2,-2.176221460E-4,2.033200925E-2
1.125529912E0,-2.462548437E-3,2.268980816E-2,1.004107762E-3,2.284512577E-2
1.127975693E0,-2.462548437E-3,2.330067009E-2,1.004107762E-3,2.345194243E-2
1.130420745E0,-1.240818994E-3,2.452240139E-2,3.932430409E-4,2.455692248E-2
1.132864964E0,-1.851683715E-3,2.635499462E-2,1.614972483E-3,2.646927673E-2
1.135309964E0,-1.851683715E-3,2.574412897E-2,1.614972483E-3,2.586111067E-2
1.137755797E0,-2.462548437E-3,2.574412897E-2,1.614972483E-3,2.591201377E-2
1.140200797E0,-3.073413158E-3,2.513326332E-2,1.614972483E-3,2.537193193E-2
1.142645068E0,-1.851683715E-3,2.268980816E-2,1.614972483E-3,2.282245086E-2
1.145090068E0,-3.073413158E-3,2.024634555E-2,-2.176221460E-4,2.047944667E-2
1.147535901E0,-2.462548437E-3,1.780289039E-2,1.004107762E-3,1.800042454E-2
1.149980901E0,-1.240818994E-3,1.597029343E-2,1.004107762E-3,1.604986406E-2
1.152425120E0,-1.240818994E-3,1.230510697E-2,3.932430409E-4,1.237375971E-2
1.154870172E0,5.917751696E-4,9.861648083E-3,1.004107762E-3,9.930283639E-3
1.157315953E0,1.202639891E-3,8.639916778E-3,2.225837205E-3,9.002713807E-3
1.159761005E0,1.202639891E-3,5.585592706E-3,2.225837205E-3,6.131846365E-3
1.162205224E0,5.917751696E-4,4.974730778E-3,2.836701926E-3,5.757171353E-3
1.164650224E0,1.202639891E-3,6.986748776E-4,2.836701926E-3,3.159330168E-3
1.167096057E0,-1.908955164E-5,-2.355645876E-3,2.836701926E-3,3.687317415E-3
1.169541109E0,5.917751696E-4,-4.799104761E-3,2.836701926E-3,5.606111146E-3
1.171985328E0,2.424369333E-3,-8.464295417E-3,3.447566647E-3,9.455558120E-3
1.174430328E0,2.424369333E-3,-1.090775430E-2,4.669296090E-3,1.211028474E-2
1.176876162E0,3.035234055E-3,-1.151861809E-2,5.280160811E-3,1.302963187E-2
1.179321162E0,2.424369333E-3,-1.457294077E-2,5.280160811E-3,1.568847563E-2
1.181765380E0,2.424369333E-3,-1.518380642E-2,4.058431368E-3,1.590271704E-2
1.184210432E0,3.035234055E-3,-1.640553586E-2,5.280160811E-3,1.749955288E-2
1.186656214E0,4.867828451E-3,-1.823813096E-2,5.891025532E-3,1.977446223E-2
1.189101266E0,4.867828451E-3,-2.007072419E-2,5.891025532E-3,2.147635689E-2
1.191545484E0,4.256963730E-3,-2.129245363E-2,5.280160811E-3,2.234659750E-2
1.193990484E0,6.089557894E-3,-2.129245363E-2,5.891025532E-3,2.291627105E-2
1.196436318E0,4.867828451E-3,-2.129245363E-2,5.280160811E-3,2.247096869E-2
1.198881318E0,6.089557894E-3,-2.068158984E-2,4.669296090E-3,2.205931095E-2
1.201325589E0,5.478693172E-3,-1.762726530E-2,5.280160811E-3,1.919939216E-2
1.203770589E0,6.089557894E-3,-1.701639965E-2,6.501890253E-3,1.920716401E-2
1.206216422E0,6.089557894E-3,-1.457294077E-2,6.501890253E-3,1.708004376E-2
1.208661422E0,6.700422615E-3,-1.090775430E-2,5.280160811E-3,1.384755810E-2
1.211105641E0,6.089557894E-3,-8.464295417E-3,3.447566647E-3,1.098238262E-2
1.213550693E0,7.311287336E-3,-7.242563646E-3,6.501890253E-3,1.217309441E-2
1.215996474E0,6.700422615E-3,-7.242563646E-3,6.501890253E-3,1.181630095E-2
1.218441526E0,6.700422615E-3,-6.020836066E-3,6.501890253E-3,1.110948725E-2
1.220885745E0,6.700422615E-3,-4.799104761E-3,5.280160811E-3,9.788113604E-3
1.223330745E0,6.089557894E-3,-6.020836066E-3,4.669296090E-3,9.753743294E-3
1.225776578E0,6.089557894E-3,-5.409970414E-3,5.891025532E-3,1.005259554E-2
1.228221630E0,9.143881500E-3,-4.799104761E-3,6.501890253E-3,1.220313698E-2
1.230665849E0,4.256963730E-3,-4.188240971E-3,7.112754975E-3,9.287323940E-3
1.233110849E0,7.922152057E-3,-3.577377182E-3,7.112754975E-3,1.123162517E-2
1.235556682E0,3.646098776E-3,-4.188240971E-3,7.112754975E-3,9.023673423E-3
1.238001682E0,9.143881500E-3,-1.133918297E-3,7.112754975E-3,1.163991507E-2
1.240445901E0,3.035234055E-3,-1.744782086E-3,6.501890253E-3,7.384543802E-3
1.242890953E0,6.700422615E-3,6.986748776E-4,7.723619696E-3,1.024881022E-2
1.245336734E0,5.478693172E-3,1.309540588E-3,8.945349604E-3,1.057119932E-2
1.247781787E0,5.478693172E-3,4.363865126E-3,8.334483951E-3,1.088682784E-2
1.250226005E0,6.700422615E-3,4.363865126E-3,8.334483951E-3,1.155000454E-2
1.252671005E0,4.867828451E-3,4.974730778E-3,8.945349604E-3,1.133415103E-2
1.255116839E0,7.311287336E-3,8.029054850E-3,1.016707905E-2,1.487582403E-2
1.257561891E0,3.646098776E-3,8.639916778E-3,8.945349604E-3,1.295999528E-2
1.260006109E0,6.089557894E-3,1.169424132E-2,8.334483951E-3,1.559812867E-2
1.262451109E0,3.035234055E-3,9.861648083E-3,7.723619696E-3,1.288871793E-2
1.264896943E0,6.089557894E-3,1.169424132E-2,6.501890253E-3,1.470076774E-2
1.267341943E0,3.646098776E-3,9.861648083E-3,5.891025532E-3,1.205198411E-2
1.269786162E0,4.256963730E-3,1.047251001E-2,4.058431368E-3,1.201108119E-2
1.272231214E0,4.256963730E-3,9.861648083E-3,3.447566647E-3,1.128093786E-2
1.274676995E0,-1.908955164E-5,1.108337566E-2,1.614972483E-3,1.120043377E-2
1.277122047E0,5.478693172E-3,1.169424132E-2,1.614972483E-3,1.301458777E-2
1.279566266E0,-6.299542729E-4,9.250782430E-3,-2.176221460E-4,9.274760232E-3
1.282011318E0,3.035234055E-3,1.108337566E-2,-2.176221460E-4,1.149352954E-2
1.284457099E0,-1.908955164E-5,7.418189663E-3,-1.439351588E-3,7.556562399E-3
1.286902151E0,1.202639891E-3,9.250782430E-3,-2.661081031E-3,9.700756183E-3
1.289346370E0,-1.851683715E-3,6.807324011E-3,-2.661081031E-3,7.539876990E-3
1.291791370E0,-1.851683715E-3,4.974730778E-3,-4.493674263E-3,6.954839127E-3
1.294237203E0,-1.851683715E-3,4.363865126E-3,-4.493674263E-3,6.531857301E-3
1.296682203E0,-2.462548437E-3,1.309540588E-3,-3.882810473E-3,4.780717365E-3
1.299126422E0,5.917751696E-4,1.309540588E-3,-1.439351588E-3,2.033919221E-3
1.301571474E0,-3.684277879E-3,-2.355645876E-3,-2.661081031E-3,5.119015847E-3
1.304017307E0,1.202639891E-3,-3.577377182E-3,-3.271944821E-3,4.994956768E-3
1.306462307E0,-2.462548437E-3,-1.029688865E-2,-1.439351588E-3,1.068465225E-2
1.308906526E0,5.917751696E-4,-1.212948188E-2,-1.439351588E-3,1.222891089E-2
1.311351526E0,-1.851683715E-3,-1.457294077E-2,3.932430409E-4,1.469537258E-2
1.313797359E0,-1.908955164E-5,-1.579467207E-2,2.225837205E-3,1.595074862E-2
1.316242412E0,5.917751696E-4,-1.701639965E-2,2.836701926E-3,1.726137112E-2
1.318686630E0,-6.299542729E-4,-1.945985854E-2,3.447566647E-3,1.977292726E-2
1.321131630E0,1.813504612E-3,-1.945985854E-2,4.058431368E-3,1.996110614E-2
1.323577464E0,-1.240818994E-3,-2.068158984E-2,5.280160811E-3,2.138101701E-2
1.326022464E0,4.256963730E-3,-1.884899475E-2,6.501890253E-3,2.038825446E-2
1.328466734E0,2.424369333E-3,-1.884899475E-2,7.112754975E-3,2.029170897E-2
1.330911734E0,3.035234055E-3,-1.884899475E-2,9.556213394E-3,2.134990546E-2
1.333357568E0,3.646098776E-3,-1.701639965E-2,8.945349604E-3,1.956709414E-2
1.335802568E0,2.424369333E-3,-1.396207698E-2,9.556213394E-3,1.709205589E-2
1.338246787E0,3.646098776E-3,-1.151861809E-2,9.556213394E-3,1.540434398E-2
1.340691839E0,4.867828451E-3,-9.686022997E-3,8.945349604E-3,1.405468160E-2
1.343137620E0,3.035234055E-3,-5.409970414E-3,8.334483951E-3,1.038961252E-2
1.345582672E0,4.256963730E-3,-5.409970414E-3,6.501890253E-3,9.469112785E-3
1.348026891E0,3.035234055E-3,-3.577377182E-3,6.501890253E-3,8.017783368E-3
1.350471891E0,3.646098776E-3,-2.355645876E-3,5.280160811E-3,6.835437218E-3
1.352917724E0,3.646098776E-3,-4.188240971E-3,5.280160811E-3,7.662603794E-3
1.355362724E0,4.867828451E-3,-3.577377182E-3,4.669296090E-3,7.635162559E-3
1.357806943E0,4.256963730E-3,-1.744782086E-3,2.836701926E-3,5.404894314E-3
1.360251995E0,5.478693172E-3,-1.744782086E-3,2.836701926E-3,6.411491341E-3
1.362697828E0,5.478693172E-3,-5.230527022E-4,2.225837205E-3,5.936666932E-3
1.365142828E0,5.478693172E-3,-1.744782086E-3,2.225837205E-3,6.165605783E-3
1.367587047E0,5.478693172E-3,-2.355645876E-3,2.225837205E-3,6.365492725E-3
1.370032099E0,4.867828451E-3,-1.744782086E-3,1.614972483E-3,5.417393698E-3
1.372477880E0,5.478693172E-3,-1.744782086E-3,2.836701926E-3,6.411491341E-3
1.374922932E0,4.867828451E-3,-1.744782086E-3,2.225837205E-3,5.629775273E-3
1.377367151E0,4.256963730E-3,-2.355645876E-3,3.932430409E-4,4.881131814E-3
1.379812151E0,4.867828451E-3,-3.577377182E-3,-8.284859359E-4,6.097521650E-3
1.382257984E0,4.256963730E-3,-4.799104761E-3,3.932430409E-4,6.427113411E-3
1.384702984E0,3.646098776E-3,-3.577377182E-3,-2.176221460E-4,5.112633683E-3
1.387147203E0,3.646098776E-3,-5.409970414E-3,-8.284859359E-4,6.576336754E-3
1.389592255E0,3.646098776E-3,-6.020836066E-3,-1.439351588E-3,7.184444044E-3
1.392038089E0,3.646098776E-3,-4.799104761E-3,-8.284859359E-4,6.083735016E-3
1.394483089E0,1.813504612E-3,-4.799104761E-3,-2.050215378E-3,5.524815706E-3
1.396927307E0,-1.908955164E-5,-4.799104761E-3,-8.284859359E-4,4.870129348E-3
1.399372359E0,-6.299542729E-4,-6.020836066E-3,-1.439351588E-3,6.222462721E-3
1.401818141E0,-1.908955164E-5,-6.631699856E-3,-1.439351588E-3,6.786128527E-3
1.404263193E0,1.202639891E-3,-7.242563646E-3,-8.284859359E-4,7.388332682E-3
1.406707412E0,3.646098776E-3,-7.853429765E-3,-2.050215378E-3,8.897964849E-3
1.409152412E0,6.089557894E-3,-8.464295417E-3,-2.661081031E-3,1.076142948E-2
1.411598245E0,7.311287336E-3,-7.853429765E-3,-3.271944821E-3,1.121770496E-2
1.414043245E0,6.700422615E-3,-7.853429765E-3,-2.050215378E-3,1.052498957E-2
1.416487516E0,6.700422615E-3,-9.075159207E-3,-8.284859359E-4,1.131108159E-2
1.418932516E0,6.089557894E-3,-1.029688865E-2,3.932430409E-4,1.196926361E-2
1.421378349E0,4.867828451E-3,-1.212948188E-2,3.932430409E-4,1.307573037E-2
1.423823349E0,3.646098776E-3,-1.212948188E-2,3.932430409E-4,1.267174049E-2
1.426267568E0,3.035234055E-3,-1.396207698E-2,2.836701926E-3,1.456705588E-2
1.428712620E0,1.813504612E-3,-1.457294077E-2,4.058431368E-3,1.523582183E-2
1.431158401E0,2.424369333E-3,-1.579467207E-2,4.669296090E-3,1.664786949E-2
1.433603453E0,4.256963730E-3,-1.396207698E-2,4.058431368E-3,1.515032009E-2
1.436047672E0,4.256963730E-3,-1.335121319E-2,3.447566647E-3,1.443129757E-2
1.438492672E0,4.256963730E-3,-1.335121319E-2,3.447566647E-3,1.443129757E-2
1.440938505E0,5.478693172E-3,-1.396207698E-2,4.669296090E-3,1.570853266E-2
1.443383505E0,6.089557894E-3,-1.396207698E-2,5.280160811E-3,1.612148898E-2
1.445827776E0,4.867828451E-3,-1.457294077E-2,5.280160811E-3,1.624642898E-2
1.448272776E0,4.867828451E-3,-1.579467207E-2,4.058431368E-3,1.701876273E-2
1.450718609E0,4.867828451E-3,-1.579467207E-2,4.058431368E-3,1.701876273E-2
1.453163609E0,3.646098776E-3,-1.762726530E-2,5.891025532E-3,1.893987065E-2
1.455607828E0,3.035234055E-3,-1.762726530E-2,5.280160811E-3,1.864975137E-2
1.458052880E0,3.035234055E-3,-1.640553586E-2,4.669296090E-3,1.732502752E-2
1.460498662E0,3.646098776E-3,-1.518380642E-2,5.891025532E-3,1.668970328E-2
1.462943714E0,4.867828451E-3,-1.274034753E-2,6.501890253E-3,1.510916232E-2
1.465387932E0,4.867828451E-3,-1.029688865E-2,8.334483951E-3,1.411330197E-2
1.467832932E0,4.867828451E-3,-8.464295417E-3,7.723619696E-3,1.244967276E-2
1.470278766E0,4.256963730E-3,-6.020836066E-3,7.112754975E-3,1.024516913E-2
1.472723766E0,4.256963730E-3,-4.799104761E-3,1.016707905E-2,1.202175707E-2
1.475168037E0,3.646098776E-3,-4.188240971E-3,9.556213394E-3,1.105244829E-2
1.477613037E0,3.646098776E-3,-6.020836066E-3,1.077794284E-2,1.287278350E-2
1.480058870E0,2.424369333E-3,-7.853429765E-3,1.077794284E-2,1.355426049E-2
1.482503870E0,2.424369333E-3,-7.853429765E-3,1.077794284E-2,1.355426049E-2
1.484948089E0,3.646098776E-3,-1.151861809E-2,9.556213394E-3,1.540434398E-2
1.487393141E0,3.646098776E-3,-1.518380642E-2,9.556213394E-3,1.830746373E-2
1.489838922E0,5.478693172E-3,-1.884899475E-2,7.112754975E-3,2.087802589E-2
1.492283974E0,6.700422615E-3,-2.190331742E-2,4.058431368E-3,2.326202576E-2
1.494728193E0,6.700422615E-3,-2.434677631E-2,4.058431368E-3,2.557600526E-2
1.497173193E0,9.143881500E-3,-2.740110084E-2,2.836701926E-3,2.902546768E-2
1.499619026E0,1.036561094E-2,-2.923369408E-2,2.225837205E-3,3.109677010E-2
1.502064026E0,1.158734038E-2,-3.045542538E-2,-2.176221460E-4,3.258599011E-2
1.504508297E0,1.097647566E-2,-3.106628917E-2,-1.439351588E-3,3.297982829E-2
1.506953297E0,1.158734038E-2,-3.045542538E-2,-1.439351588E-3,3.261703735E-2
1.509399130E0,1.341993455E-2,-3.167715296E-2,-2.050215378E-3,3.446360466E-2
1.511844130E0,1.280906890E-2,-3.045542538E-2,-8.284859359E-4,3.304983465E-2
1.514288349E0,1.403080020E-2,-3.106628917E-2,-1.439351588E-3,3.411816833E-2
1.516733401E0,1.525252778E-2,-3.412061185E-2,-1.439351588E-3,3.740223910E-2
1.519179182E0,1.708512194E-2,-3.656407073E-2,-8.284859359E-4,4.036730173E-2
1.521624234E0,1.708512194E-2,-3.595320880E-2,-1.439351588E-3,3.983222751E-2
1.524068453E0,2.013944462E-2,-3.534234315E-2,-2.176221460E-4,4.067832111E-2
1.526513453E0,2.136117592E-2,-3.595320880E-2,-2.176221460E-4,4.182081323E-2
1.528959287E0,2.380463481E-2,-3.473147750E-2,3.932430409E-4,4.210808483E-2
1.531404287E0,2.380463481E-2,-3.289888427E-2,1.004107762E-3,4.062025919E-2
1.533848557E0,2.563722804E-2,-2.923369408E-2,-2.176221460E-4,3.888346294E-2
1.536293557E0,2.563722804E-2,-2.495764196E-2,-8.284859359E-4,3.578879354E-2
1.538739391E0,2.685895935E-2,-2.007072419E-2,-1.439351588E-3,3.356053336E-2
1.541184391E0,2.746982127E-2,-1.518380642E-2,-2.050215378E-3,3.145381442E-2
1.543628609E0,2.685895935E-2,-7.853429765E-3,-3.882810473E-3,2.825165966E-2
1.546073662E0,2.808068693E-2,-4.799104761E-3,-6.326269358E-3,2.918181058E-2
1.548519443E0,2.808068693E-2,-4.188240971E-3,-6.326269358E-3,2.908759228E-2
1.550964495E0,2.808068693E-2,-2.966511529E-3,-8.158862591E-3,2.939204327E-2
1.553408714E0,2.869155258E-2,-3.577377182E-3,-8.158862591E-3,3.004280040E-2
1.555853714E0,2.991328016E-2,-3.577377182E-3,-1.060232148E-2,3.193761384E-2
1.558299547E0,3.052414581E-2,-2.355645876E-3,-1.243491657E-2,3.304390557E-2
1.560744547E0,2.991328016E-2,-1.744782086E-3,-1.243491657E-2,3.244188257E-2
1.563188818E0,2.930241823E-2,-1.133918297E-3,-1.182405092E-2,3.161843869E-2
1.565633818E0,2.991328016E-2,-5.230527022E-4,-1.182405092E-2,3.216964554E-2
1.568079651E0,2.869155258E-2,1.309540588E-3,-1.243491657E-2,3.129771934E-2
1.570524651E0,2.685895935E-2,1.920406241E-3,-1.182405092E-2,2.940917948E-2
1.572968870E0,2.685895935E-2,1.309540588E-3,-1.182405092E-2,2.937561529E-2
1.575413922E0,2.502636239E-2,4.363865126E-3,-1.060232148E-2,2.752764708E-2
1.577859703E0,2.502636239E-2,8.639916778E-3,-9.991457686E-3,2.829834276E-2
1.580304755E0,2.380463481E-2,6.807324011E-3,-8.769728243E-3,2.626610805E-2
1.582748974E0,2.502636239E-2,6.807324011E-3,-8.769728243E-3,2.737821411E-2
1.585193974E0,2.258290350E-2,1.047251001E-2,-7.547998801E-3,2.601217566E-2
1.587639807E0,2.258290350E-2,1.169424132E-2,-8.158862591E-3,2.670786119E-2
1.590084807E0,2.075031027E-2,1.413770020E-2,-7.547998801E-3,2.621873813E-2
1.592529078E0,1.952858269E-2,1.413770020E-2,-8.769728243E-3,2.565440006E-2
1.594974078E0,1.830685139E-2,1.535942778E-2,-9.380592033E-3,2.567193675E-2
1.597419912E0,1.647425815E-2,1.535942778E-2,-9.380592033E-3,2.439894896E-2
1.599864912E0,1.525252778E-2,1.658115909E-2,-1.060232148E-2,2.489947110E-2
1.602309130E0,1.525252778E-2,1.780289039E-2,-1.121318713E-2,2.598688276E-2
1.604754182E0,1.403080020E-2,1.719202474E-2,-1.304578036E-2,2.574143458E-2
1.607199964E0,1.341993455E-2,1.902461797E-2,-1.548923925E-2,2.796331999E-2
1.609645016E0,1.219820511E-2,2.268980816E-2,-1.671097055E-2,3.070635340E-2
1.612089234E0,9.754746221E-3,2.452240139E-2,-1.671097055E-2,3.123715385E-2
1.614534234E0,8.533016779E-3,2.513326332E-2,-1.793269813E-2,3.203240488E-2
1.616980068E0,9.143881500E-3,2.757672593E-2,-1.854356378E-2,3.446665257E-2
1.619425120E0,6.089557894E-3,2.818758786E-2,-1.976529323E-2,3.496125914E-2
1.621869339E0,5.478693172E-3,2.696586028E-2,-2.159788832E-2,3.498060147E-2
1.624314339E0,5.478693172E-3,2.757672593E-2,-2.281961590E-2,3.621086524E-2
1.626760172E0,3.035234055E-3,2.818758786E-2,-2.281961590E-2,3.639351075E-2
1.629205172E0,1.202639891E-3,2.635499462E-2,-2.404134534E-2,3.569339393E-2
1.631649391E0,5.917751696E-4,2.696586028E-2,-2.281961590E-2,3.533047818E-2
1.634094443E0,-1.240818994E-3,2.818758786E-2,-2.343047969E-2,3.667515671E-2
1.636540224E0,-1.908955164E-5,3.124191239E-2,-2.343047969E-2,3.905182240E-2
1.638985276E0,-1.240818994E-3,3.307450935E-2,-2.404134534E-2,4.090781205E-2
1.641429495E0,-1.851683715E-3,3.673969582E-2,-2.343047969E-2,4.361446274E-2
1.643874495E0,-2.462548437E-3,3.857229277E-2,-2.343047969E-2,4.519815586E-2
1.646320328E0,-3.684277879E-3,4.101574793E-2,-2.343047969E-2,4.737987823E-2
1.648765328E0,-3.684277879E-3,4.101574793E-2,-2.281961590E-2,4.708078538E-2
1.651209599E0,-3.073413158E-3,4.101574793E-2,-1.976529323E-2,4.563336787E-2
1.653654599E0,-3.684277879E-3,3.857229277E-2,-1.915442944E-2,4.322369536E-2
1.656100432E0,-3.684277879E-3,3.551796451E-2,-1.732183434E-2,3.968810466E-2
1.658545432E0,-2.462548437E-3,3.124191239E-2,-1.610010490E-2,3.523257885E-2
1.660989651E0,-2.462548437E-3,2.757672593E-2,-1.243491657E-2,3.035073488E-2
1.663434703E0,-3.073413158E-3,2.391153574E-2,-1.243491657E-2,2.712627066E-2
1.665880484E0,-3.684277879E-3,2.146807685E-2,-1.060232148E-2,2.422522338E-2
1.668325537E0,-2.462548437E-3,1.841375232E-2,-6.326269358E-3,1.962529244E-2
1.670769755E0,-3.684277879E-3,1.719202474E-2,-5.104539916E-3,1.830835727E-2
1.673214755E0,-3.684277879E-3,1.658115909E-2,-3.271944821E-3,1.729781382E-2
1.675660589E0,-3.073413158E-3,1.474856585E-2,-2.050215378E-3,1.520425750E-2
1.678105641E0,-2.462548437E-3,1.291597262E-2,-8.284859359E-4,1.317470616E-2
1.680549859E0,-3.684277879E-3,1.291597262E-2,-2.050215378E-3,1.358674484E-2
1.682994859E0,-3.073413158E-3,1.291597262E-2,-8.284859359E-4,1.330242858E-2
1.685440693E0,-3.684277879E-3,1.352683455E-2,-2.176221460E-4,1.402128795E-2
1.687885693E0,-3.684277879E-3,1.352683455E-2,-2.176221460E-4,1.402128795E-2
1.690329912E0,-5.516871810E-3,1.352683455E-2,-8.284859359E-4,1.463207150E-2
1.692774964E0,-6.127736531E-3,1.535942778E-2,-1.439351588E-3,1.659918401E-2
1.695220745E0,-5.516871810E-3,1.597029343E-2,-2.661081031E-3,1.710460462E-2
1.697665797E0,-7.349465974E-3,1.597029343E-2,-2.661081031E-3,1.778050266E-2
1.700110016E0,-8.571195416E-3,1.597029343E-2,-3.271944821E-3,1.841796096E-2
1.702555016E0,-1.040378958E-2,1.658115909E-2,-4.493674263E-3,2.008399319E-2
1.705000849E0,-1.101465430E-2,1.535942778E-2,-4.493674263E-3,1.942749957E-2
1.707445849E0,-1.162551902E-2,1.535942778E-2,-5.104539916E-3,1.992789608E-2
1.709890120E0,-1.162551902E-2,1.597029343E-2,-5.104539916E-3,2.040243350E-2
1.712335120E0,-1.284724846E-2,1.535942778E-2,-5.104539916E-3,2.066446570E-2
1.714780953E0,-1.590157300E-2,1.719202474E-2,-4.493674263E-3,2.384573016E-2
1.717225953E0,-1.590157300E-2,1.780289039E-2,-3.882810473E-3,2.418427480E-2
1.719670172E0,-1.529070735E-2,1.597029343E-2,-4.493674263E-3,2.256211674E-2
1.722115224E0,-1.590157300E-2,1.719202474E-2,-3.882810473E-3,2.373819613E-2
1.724561005E0,-1.651243679E-2,1.780289039E-2,-3.271944821E-3,2.450120605E-2
1.727006057E0,-1.712330058E-2,1.658115909E-2,-3.271944821E-3,2.405925773E-2
1.729450276E0,-1.712330058E-2,1.597029343E-2,-2.661081031E-3,2.356563276E-2
1.731895276E0,-1.834503189E-2,1.597029343E-2,-2.661081031E-3,2.446777104E-2
1.734341109E0,-1.834503189E-2,1.413770020E-2,-2.050215378E-3,2.325119664E-2
1.736786162E0,-1.834503189E-2,1.230510697E-2,-1.439351588E-3,2.213656670E-2
1.739230380E0,-1.895589568E-2,1.230510697E-2,-8.284859359E-4,2.261477454E-2
1.741675380E0,-1.834503189E-2,1.169424132E-2,-1.439351588E-3,2.180291742E-2
1.744121214E0,-1.773416623E-2,8.639916778E-3,-1.439351588E-3,1.977929592E-2
1.746566214E0,-1.834503189E-2,8.639916778E-3,-2.176221460E-4,2.027894761E-2
1.749010432E0,-1.834503189E-2,9.250782430E-3,-2.050215378E-3,2.064753142E-2
1.751455484E0,-1.773416623E-2,6.807324011E-3,-2.176221460E-4,1.899704376E-2
1.753901266E0,-1.834503189E-2,6.196458358E-3,-8.284859359E-4,1.938098759E-2
1.756346318E0,-1.712330058E-2,4.974730778E-3,-8.284859359E-4,1.785053943E-2
1.758790537E0,-1.773416623E-2,3.752999473E-3,-8.284859359E-4,1.814585479E-2
1.761235537E0,-1.712330058E-2,1.309540588E-3,-2.176221460E-4,1.717468133E-2
1.763681370E0,-1.712330058E-2,6.986748776E-4,1.004107762E-3,1.716693921E-2
1.766126422E0,-1.712330058E-2,-2.355645876E-3,3.932430409E-4,1.728904654E-2
1.768570641E0,-1.834503189E-2,-4.188240971E-3,3.932430409E-4,1.882116355E-2
1.771015641E0,-1.895589568E-2,-6.631699856E-3,1.004107762E-3,2.010755222E-2
1.773461474E0,-1.773416623E-2,-6.020836066E-3,3.932430409E-4,1.873247872E-2
1.775906474E0,-1.834503189E-2,-9.075159207E-3,3.932430409E-4,2.047079260E-2
1.778350693E0,-1.834503189E-2,-1.151861809E-2,-2.176221460E-4,2.166255103E-2
1.780795745E0,-1.834503189E-2,-1.151861809E-2,1.004107762E-3,2.168471789E-2
1.783241526E0,-1.651243679E-2,-1.212948188E-2,2.225837205E-3,2.060920306E-2
1.785686578E0,-1.773416623E-2,-1.212948188E-2,-8.284859359E-4,2.150142720E-2
1.788130797E0,-1.834503189E-2,-1.090775430E-2,-1.439351588E-3,2.139137751E-2
1.790575797E0,-1.834503189E-2,-9.075159207E-3,-8.284859359E-4,2.048377647E-2
1.793021630E0,-1.773416623E-2,-7.242563646E-3,-8.284859359E-4,1.917398678E-2
1.795466682E0,-1.712330058E-2,-4.188240971E-3,-2.661081031E-3,1.782779116E-2
1.797910901E0,-1.834503189E-2,-2.355645876E-3,-3.271944821E-3,1.878283486E-2
1.800355901E0,-1.956675947E-2,-2.355645876E-3,-3.271944821E-3,1.997780685E-2
1.802801734E0,-2.078849077E-2,8.781295037E-5,-2.661081031E-3,2.095830174E-2
1.805246734E0,-2.139935642E-2,6.986748776E-4,-3.882810473E-3,2.175998206E-2
1.807690953E0,-2.139935642E-2,2.531271894E-3,-6.326269358E-3,2.245799361E-2
1.810136005E0,-2.201021835E-2,3.752999473E-3,-6.937133148E-3,2.338072996E-2
1.812581839E0,-2.262108400E-2,6.196458358E-3,-5.715403706E-3,2.414074103E-2
1.815026839E0,-2.201021835E-2,6.196458358E-3,-5.715403706E-3,2.356929459E-2
1.817471057E0,-2.384281531E-2,9.250782430E-3,-6.326269358E-3,2.634536964E-2
1.819916109E0,-2.384281531E-2,1.230510697E-2,-6.937133148E-3,2.771316142E-2
1.822361891E0,-2.445367724E-2,1.474856585E-2,-7.547998801E-3,2.953768459E-2
1.824806943E0,-2.506454289E-2,1.902461797E-2,-7.547998801E-3,3.235953778E-2
1.827251162E0,-2.445367724E-2,2.146807685E-2,-6.326269358E-3,3.314939424E-2
1.829696162E0,-2.384281531E-2,2.268980816E-2,-8.158862591E-3,3.390979615E-2
1.832141995E0,-2.323194966E-2,2.330067009E-2,-6.937133148E-3,3.362690185E-2
1.834586995E0,-2.262108400E-2,2.452240139E-2,-5.104539916E-3,3.375082131E-2
1.837031214E0,-2.323194966E-2,2.452240139E-2,-4.493674263E-3,3.407733504E-2
1.839476266E0,-2.506454289E-2,2.574412897E-2,-4.493674263E-3,3.621028300E-2
1.841922047E0,-2.384281531E-2,2.391153574E-2,-4.493674263E-3,3.406515069E-2
1.844367099E0,-2.384281531E-2,2.452240139E-2,-4.493674263E-3,3.449668274E-2
1.846811318E0,-2.506454289E-2,2.513326332E-2,-3.271944821E-3,3.564572707E-2
1.849256370E0,-2.445367724E-2,2.391153574E-2,-2.050215378E-3,3.426291370E-2
1.851702151E0,-2.506454289E-2,2.513326332E-2,-1.439351588E-3,3.552441369E-2
1.854147203E0,-2.445367724E-2,2.574412897E-2,-1.439351588E-3,3.553609770E-2
1.856591422E0,-2.506454289E-2,2.635499462E-2,-8.284859359E-4,3.637998682E-2
1.859036422E0,-2.262108400E-2,2.696586028E-2,-1.439351588E-3,3.522701797E-2
1.861482255E0,-2.506454289E-2,2.574412897E-2,-2.176221460E-4,3.593102902E-2
1.863927255E0,-2.323194966E-2,2.513326332E-2,3.932430409E-4,3.422804479E-2
1.866371474E0,-2.384281531E-2,2.330067009E-2,-2.176221460E-4,3.333839270E-2
1.868816526E0,-2.384281531E-2,1.963548362E-2,1.614972483E-3,3.092960063E-2
1.871262359E0,-2.201021835E-2,1.658115909E-2,1.614972483E-3,2.760421498E-2
1.873707359E0,-2.201021835E-2,1.291597262E-2,1.614972483E-3,2.557108126E-2
1.876151578E0,-2.201021835E-2,1.169424132E-2,1.614972483E-3,2.497625128E-2
1.878596578E0,-2.139935642E-2,8.029054850E-3,3.932430409E-4,2.285941419E-2
1.881042412E0,-2.078849077E-2,6.196458358E-3,1.004107762E-3,2.171556302E-2
1.883487464E0,-2.017762512E-2,3.142137546E-3,1.614972483E-3,2.048457273E-2
1.885931682E0,-2.078849077E-2,1.920406241E-3,-2.176221460E-4,2.087813852E-2
1.888376682E0,-2.017762512E-2,8.781295037E-5,-8.284859359E-4,2.019481754E-2
1.890822516E0,-2.017762512E-2,-1.133918297E-3,-1.439351588E-3,2.026065298E-2
1.893267516E0,-2.017762512E-2,-2.966511529E-3,-8.284859359E-4,2.041134819E-2
1.895711734E0,-2.078849077E-2,-2.355645876E-3,-2.050215378E-3,2.102174586E-2
1.898156787E0,-1.834503189E-2,-4.188240971E-3,-3.882810473E-3,1.921347898E-2
1.900602620E0,-1.895589568E-2,-5.409970414E-3,-5.104539916E-3,2.036295874E-2
1.903047620E0,-1.956675947E-2,-6.631699856E-3,-6.326269358E-3,2.160692489E-2
1.905491839E0,-1.956675947E-2,-7.853429765E-3,-6.937133148E-3,2.219590619E-2
1.907936839E0,-1.956675947E-2,-9.075159207E-3,-6.937133148E-3,2.265701673E-2
1.910382672E0,-1.834503189E-2,-1.151861809E-2,-8.158862591E-3,2.314704725E-2
1.912827724E0,-1.834503189E-2,-1.335121319E-2,-1.060232148E-2,2.504404738E-2
1.915271943E0,-1.712330058E-2,-1.518380642E-2,-1.182405092E-2,2.575972788E-2
1.917716943E0,-1.712330058E-2,-1.701639965E-2,-1.243491657E-2,2.715497063E-2
1.920162776E0,-1.712330058E-2,-1.701639965E-2,-1.243491657E-2,2.715497063E-2
1.922607776E0,-1.712330058E-2,-1.823813096E-2,-1.243491657E-2,2.793678567E-2
1.925051995E0,-1.590157300E-2,-1.640553586E-2,-1.182405092E-2,2.572566444E-2
1.927497047E0,-1.529070735E-2,-1.396207698E-2,-1.121318713E-2,2.354741791E-2
1.929942880E0,-1.529070735E-2,-1.212948188E-2,-1.060232148E-2,2.221124226E-2
1.932387880E0,-1.651243679E-2,-9.686022997E-3,-1.060232148E-2,2.188352876E-2
1.934832099E0,-1.529070735E-2,-7.242563646E-3,-9.380592033E-3,1.934569633E-2
1.937277151E0,-1.467984170E-2,-4.799104761E-3,-8.769728243E-3,1.776055439E-2
1.939722932E0,-1.590157300E-2,-2.355645876E-3,-8.158862591E-3,1.802709434E-2
1.942167984E0,-1.590157300E-2,-5.230527022E-4,-7.547998801E-3,1.760982379E-2
1.944612203E0,-1.406897791E-2,-5.230527022E-4,-8.769728243E-3,1.658667709E-2
1.947057203E0,-1.406897791E-2,1.309540588E-3,-6.937133148E-3,1.574086568E-2
1.949503037E0,-1.406897791E-2,2.531271894E-3,-6.326269358E-3,1.563218349E-2
1.951948037E0,-1.406897791E-2,4.363865126E-3,-6.937133148E-3,1.628199234E-2
1.954392307E0,-1.467984170E-2,4.363865126E-3,-5.715403706E-3,1.634646477E-2
1.956837307E0,-1.529070735E-2,5.585592706E-3,-5.715403706E-3,1.725312774E-2
1.959283141E0,-1.467984170E-2,4.363865126E-3,-5.104539916E-3,1.614302942E-2
1.961728141E0,-1.467984170E-2,6.807324011E-3,-5.104539916E-3,1.696743175E-2
1.964172359E0,-1.467984170E-2,7.418189663E-3,-4.493674263E-3,1.705052488E-2
1.966617359E0,-1.284724846E-2,8.639916778E-3,-3.271944821E-3,1.582420860E-2
1.969063193E0,-1.345811319E-2,9.861648083E-3,-3.882810473E-3,1.713035699E-2
1.971508245E0,-1.162551902E-2,1.108337566E-2,-1.439351588E-3,1.612655083E-2
1.973952464E0,-1.162551902E-2,1.047251001E-2,-2.176221460E-4,1.564843500E-2
1.976397464E0,-1.101465430E-2,9.861648083E-3,-2.176221460E-4,1.478587406E-2
1.978843297E0,-9.182060137E-3,9.250782430E-3,1.004107762E-3,1.307269813E-2
1.981288297E0,-9.792924859E-3,8.029054850E-3,2.836701926E-3,1.297744108E-2
1.983732516E0,-7.960330695E-3,7.418189663E-3,4.669296090E-3,1.184055441E-2
1.986177568E0,-7.349465974E-3,5.585592706E-3,5.280160811E-3,1.063454720E-2
1.988623401E0,-6.738601252E-3,3.752999473E-3,4.669296090E-3,9.016433766E-3
1.991068401E0,-4.906007089E-3,1.309540588E-3,6.501890253E-3,8.249750237E-3
1.993512620E0,-4.295142367E-3,-1.744782086E-3,8.334483951E-3,9.537092598E-3
1.995957672E0,-3.073413158E-3,-4.188240971E-3,8.334483951E-3,9.820939548E-3
1.998403453E0,-1.851683715E-3,-6.631699856E-3,8.334483951E-3,1.081072608E-2
2.000848505E0,-1.908955164E-5,-9.075159207E-3,9.556213394E-3,1.317877435E-2
2.003292724E0,-1.908955164E-5,-9.075159207E-3,8.334483951E-3,1.232162740E-2
2.005737724E0,5.917751696E-4,-1.274034753E-2,7.723619696E-3,1.491043106E-2
2.008183557E0,1.202639891E-3,-1.090775430E-2,7.112754975E-3,1.307733650E-2
2.010628557E0,2.424369333E-3,-1.151861809E-2,6.501890253E-3,1.344733082E-2
2.013072828E0,2.424369333E-3,-1.029688865E-2,6.501890253E-3,1.241684579E-2
2.015517828E0,3.646098776E-3,-1.090775430E-2,5.280160811E-3,1.265516647E-2
2.017963662E0,3.035234055E-3,-1.090775430E-2,4.058431368E-3,1.202757726E-2
2.020408662E0,3.646098776E-3,-1.029688865E-2,5.280160811E-3,1.213260278E-2
2.022852880E0,3.035234055E-3,-1.090775430E-2,4.669296090E-3,1.224720685E-2
2.025297932E0,4.867828451E-3,-9.075159207E-3,2.836701926E-3,1.068181381E-2
2.027743714E0,5.478693172E-3,-7.242563646E-3,2.225837205E-3,9.350142154E-3
2.030188766E0,5.478693172E-3,-5.409970414E-3,1.004107762E-3,7.764798204E-3
2.032632984E0,5.478693172E-3,-2.966511529E-3,1.004107762E-3,6.310665728E-3
2.035077984E0,6.700422615E-3,-2.966511529E-3,3.932430409E-4,7.338289580E-3
2.037523818E0,6.089557894E-3,-1.744782086E-3,-1.439351588E-3,6.496053638E-3
2.039968818E0,7.922152057E-3,1.309540588E-3,-1.439351588E-3,8.157641986E-3
2.042413037E0,9.754746221E-3,2.531271894E-3,-8.284859359E-4,1.011181488E-2
2.044858089E0,7.922152057E-3,4.363865126E-3,-2.176221460E-4,9.047163724E-3
2.047303922E0,7.311287336E-3,5.585592706E-3,-2.176221460E-4,9.203321563E-3
2.049748922E0,1.036561094E-2,6.196458358E-3,-8.284859359E-4,1.210489055E-2
2.052193141E0,1.097647566E-2,6.807324011E-3,-2.050215378E-3,1.307769327E-2
2.054638193E0,1.097647566E-2,6.807324011E-3,-1.439351588E-3,1.299593826E-2
2.057083974E0,1.219820511E-2,1.169424132E-2,-1.439351588E-3,1.695945815E-2
2.059529026E0,1.280906890E-2,1.535942778E-2,-8.284859359E-4,2.001675939E-2
2.061973245E0,1.403080020E-2,1.963548362E-2,-2.176221460E-4,2.413426881E-2
2.064418245E0,1.403080020E-2,2.452240139E-2,-8.284859359E-4,2.826478221E-2
2.066864078E0,1.586339250E-2,3.002018109E-2,3.932430409E-4,3.395604710E-2
2.069309078E0,1.464166399E-2,3.796142712E-2,3.932430409E-4,4.068910067E-2
2.071753349E0,1.586339250E-2,4.468093440E-2,-1.439351588E-3,4.743527014E-2
2.074198349E0,1.647425815E-2,5.201131478E-2,-1.439351588E-3,5.457700779E-2
2.076644182E0,1.525252778E-2,5.750909820E-2,-1.439351588E-3,5.951476886E-2
2.079089182E0,1.586339250E-2,6.117428467E-2,-8.284859359E-4,6.320305938E-2
2.081533401E0,1.708512194E-2,6.606120616E-2,-2.661081031E-3,6.828664367E-2
2.083978453E0,1.830685139E-2,6.972638518E-2,-2.661081031E-3,7.213869246E-2
2.086424234E0,1.830685139E-2,7.400243729E-2,-3.271944821E-3,7.630338889E-2
2.088869287E0,1.647425815E-2,7.766763121E-2,-5.104539916E-3,7.955952770E-2
2.091313505E0,1.891771704E-2,8.194368333E-2,-5.104539916E-3,8.425380456E-2
2.093758505E0,1.708512194E-2,8.560887724E-2,-5.715403706E-3,8.748398193E-2
2.096204339E0,1.769598573E-2,8.988492936E-2,-5.715403706E-3,9.178842126E-2
2.098649339E0,1.891771704E-2,9.416098148E-2,-6.937133148E-3,9.629275293E-2
2.101093609E0,2.075031027E-2,9.782616049E-2,-7.547998801E-3,1.002871145E-1
2.103538609E0,2.136117592E-2,1.014913544E-1,-7.547998801E-3,1.039892646E-1
2.105984443E0,2.258290350E-2,1.063782647E-1,-8.158862591E-3,1.090545266E-1
2.108429443E0,2.441550046E-2,1.130977795E-1,-8.158862591E-3,1.159904799E-1
2.110873662E0,2.563722804E-2,1.192064211E-1,-9.380592033E-3,1.222924110E-1
2.113318714E0,2.746982127E-2,1.271476746E-1,-8.158862591E-3,1.303368300E-1
2.115764495E0,2.930241823E-2,1.356997788E-1,-6.326269358E-3,1.389715200E-1
2.118209547E0,3.052414581E-2,1.442518830E-1,-7.547998801E-3,1.476390921E-1
2.120653766E0,2.991328016E-2,1.528040022E-1,-6.937133148E-3,1.558588824E-1
2.123098766E0,3.052414581E-2,1.595235020E-1,-8.158862591E-3,1.626223792E-1
2.125544599E0,3.113501146E-2,1.699082106E-1,-8.769728243E-3,1.729598136E-1
2.127989599E0,3.235673904E-2,1.778494418E-1,-9.991457686E-3,1.810447782E-1
2.130433870E0,3.663279489E-2,1.845689565E-1,-8.769728243E-3,1.883734841E-1
2.132878870E0,3.846538812E-2,1.925102025E-1,-1.121318713E-2,1.966354488E-1
2.135324703E0,4.335230589E-2,1.992297173E-1,-1.243491657E-2,2.042707268E-1
2.137769703E0,4.762835801E-2,2.083926797E-1,-1.426750980E-2,2.142417589E-1
2.140213922E0,4.946095124E-2,2.169447839E-1,-1.732183434E-2,2.231848358E-1
2.142658974E0,5.679133162E-2,2.254968882E-1,-1.915442944E-2,2.333259396E-1
2.145104755E0,6.106738374E-2,2.316055298E-1,-2.037615702E-2,2.403862196E-1
2.147549807E0,6.595430523E-2,2.401576638E-1,-2.465221100E-2,2.502666685E-1
2.149994026E0,6.961949170E-2,2.468771636E-1,-2.709566988E-2,2.579329038E-1
2.152439026E0,7.450640947E-2,2.529858053E-1,-3.076085635E-2,2.655169543E-1
2.154884859E0,8.000419289E-2,2.590944469E-1,-3.442604840E-2,2.733418301E-1
2.157329859E0,8.489111066E-2,2.633705139E-1,-3.442604840E-2,2.788470568E-1
2.159774130E0,8.977802843E-2,2.676465511E-1,-3.748036921E-2,2.847798251E-1
2.162219130E0,9.344321489E-2,2.731443346E-1,-3.931296617E-2,2.913502552E-1
2.164664964E0,9.771926701E-2,2.761986554E-1,-4.114555568E-2,2.958508224E-1
2.167109964E0,1.026061848E-1,2.768095434E-1,-4.236728698E-2,2.982390643E-1
2.169554182E0,1.081039682E-1,2.761986554E-1,-4.297815263E-2,2.996986599E-1
2.171999234E0,1.129908860E-1,2.737552226E-1,-4.419988394E-2,2.994369582E-1
2.174445016E0,1.166560724E-1,2.688682973E-1,-4.603247344E-2,2.966779216E-1
2.176890068E0,1.258190423E-1,2.609270513E-1,-4.419988394E-2,2.930306934E-1
2.179334287E0,1.325385571E-1,2.480988801E-1,-4.358901829E-2,2.846392909E-1
2.181779287E0,1.392580569E-1,2.340489924E-1,-4.419988394E-2,2.759082583E-1
2.184225120E0,1.435341239E-1,2.145013362E-1,-4.236728698E-2,2.615489533E-1
2.186670120E0,1.478101760E-1,1.906776130E-1,-4.236728698E-2,2.449505812E-1
2.189114391E0,1.514753550E-1,1.595235020E-1,-4.175642133E-2,2.239109859E-1
2.191559391E0,1.575840116E-1,1.271476746E-1,-4.358901829E-2,2.071213518E-1
2.194005224E0,1.618600637E-1,9.110666066E-2,-4.419988394E-2,1.909259898E-1
2.196450224E0,1.698012948E-1,5.750909820E-2,-4.481074214E-2,1.847911759E-1
2.198894443E0,1.746882200E-1,2.452240139E-2,-4.603247344E-2,1.823082856E-1
2.201339495E0,1.783533990E-1,-6.631699856E-3,-4.725420475E-2,1.846263098E-1
2.203785276E0,1.838511825E-1,-3.350974619E-2,-4.786507040E-2,1.929124811E-1
2.206230328E0,1.911815703E-1,-5.977693200E-2,-4.969765991E-2,2.063820046E-1
2.208674547E0,1.960684806E-1,-8.298978955E-2,-5.091939121E-2,2.189130847E-1
2.211119547E0,2.009554058E-1,-1.025374606E-1,-5.397371948E-2,2.319701885E-1
2.213565380E0,2.058423162E-1,-1.220851317E-1,-5.519544333E-2,2.456061389E-1
2.216010432E0,2.119509578E-1,-1.434653848E-1,-5.702804029E-2,2.622169379E-1
2.218454651E0,2.162270248E-1,-1.599587351E-1,-5.947149545E-2,2.754592201E-1
2.220899651E0,2.217248082E-1,-1.801172793E-1,-6.191495806E-2,2.922970867E-1
2.223345484E0,2.296660393E-1,-2.002758086E-1,-6.435842067E-2,3.114464568E-1
2.225790484E0,2.363855541E-1,-2.216560841E-1,-6.802360713E-2,3.311144227E-1
2.228234703E0,2.467702478E-1,-2.405928820E-1,-7.046706229E-2,3.517756344E-1
2.230679755E0,2.534897625E-1,-2.607514262E-1,-7.291052490E-2,3.708966307E-1
2.233125537E0,2.675396502E-1,-2.821316719E-1,-7.291052490E-2,3.955903049E-1
2.235570589E0,2.748700380E-1,-3.053445518E-1,-7.535398006E-2,4.176925370E-1
2.238014807E0,2.883090675E-1,-3.230596185E-1,-7.535398006E-2,4.395086550E-1
2.240459859E0,2.968611717E-1,-3.450507522E-1,-7.657571137E-2,4.615738472E-1
2.242905641E0,3.127436340E-1,-3.609332442E-1,-7.535398006E-2,4.834869282E-1
2.245350693E0,3.206848800E-1,-3.804809153E-1,-7.352139056E-2,5.030009086E-1
2.247794912E0,3.316804469E-1,-3.969742656E-1,-7.291052490E-2,5.224140417E-1
2.250239912E0,3.408434093E-1,-4.128567278E-1,-7.046706229E-2,5.399912168E-1
2.252685745E0,3.493955135E-1,-4.287392199E-1,-6.985620409E-2,5.574714637E-1
2.255130745E0,3.628345430E-1,-4.427891076E-1,-6.863447279E-2,5.765603093E-1
2.257574964E0,3.683323264E-1,-4.550063908E-1,-6.680187583E-2,5.892045561E-1
2.260020016E0,3.799387515E-1,-4.647802413E-1,-6.435842067E-2,6.037517154E-1
2.262465797E0,3.848256767E-1,-4.769975245E-1,-6.252582371E-2,6.160575610E-1
2.264910849E0,3.988755643E-1,-4.867713749E-1,-6.191495806E-2,6.323618816E-1
2.267355068E0,4.068168104E-1,-4.983778000E-1,-6.252582371E-2,6.463666354E-1
2.269800120E0,4.172015190E-1,-5.087624788E-1,-6.130409241E-2,6.607984254E-1
2.272245901E0,4.257536232E-1,-5.234232545E-1,-6.069322675E-2,6.774376125E-1
2.274690953E0,4.330839813E-1,-5.350297093E-1,-5.947149545E-2,6.909090993E-1
2.277135172E0,4.434686899E-1,-5.448035002E-1,-5.886063725E-2,7.049396480E-1
2.279580172E0,4.471338689E-1,-5.576316714E-1,-6.069322675E-2,7.173321724E-1
2.282026005E0,4.593511820E-1,-5.655729175E-1,-6.008236110E-2,7.310855788E-1
2.284471005E0,4.617946446E-1,-5.777902007E-1,-5.824977160E-2,7.419493552E-1
2.286915224E0,4.727902114E-1,-5.845097303E-1,-5.641717464E-2,7.538999313E-1
2.289360276E0,4.758445323E-1,-5.973379016E-1,-5.458457768E-2,7.656500922E-1
2.291806057E0,4.856183529E-1,-6.046682596E-1,-5.336285383E-2,7.773650899E-1
2.294251109E0,4.905052781E-1,-6.150529385E-1,-4.908680171E-2,7.882227217E-1
2.296695328E0,4.960030615E-1,-6.229941845E-1,-4.603247344E-2,7.976589369E-1
2.299140380E0,5.051659942E-1,-6.327680349E-1,-4.175642133E-2,8.107599314E-1
2.301586162E0,5.088312030E-1,-6.443744898E-1,-3.870210052E-2,8.219644328E-1
2.304031214E0,5.186050534E-1,-6.547591686E-1,-3.503690660E-2,8.359954277E-1
2.306475432E0,5.222702026E-1,-6.645330191E-1,-3.198258579E-2,8.458091888E-1
2.308920432E0,5.326549411E-1,-6.688090563E-1,-2.587393858E-2,8.553924834E-1
2.311366266E0,5.381526947E-1,-6.749176979E-1,-2.281961590E-2,8.635061995E-1
2.313811266E0,5.473156571E-1,-6.736959815E-1,-1.793269813E-2,8.681833249E-1
2.316255537E0,5.528134704E-1,-6.736959815E-1,-1.304578036E-2,8.715728317E-1
2.318700537E0,5.564786196E-1,-6.688090563E-1,-1.182405092E-2,8.701228741E-1
2.321146370E0,5.638090372E-1,-6.614786983E-1,-9.991457686E-3,8.692148917E-1
2.323591370E0,5.662524700E-1,-6.553700566E-1,-8.769728243E-3,8.661574216E-1
2.326035589E0,5.754154325E-1,-6.413201690E-1,-8.158862591E-3,8.616617933E-1
2.328480641E0,5.748046041E-1,-6.297137141E-1,-8.158862591E-3,8.526466218E-1
2.330926422E0,5.803023577E-1,-6.162747145E-1,-1.121318713E-2,8.465642832E-1
2.333371474E0,5.833566785E-1,-6.052791476E-1,-1.365664601E-2,8.407463142E-1
2.335815693E0,5.876327157E-1,-5.955052972E-1,-1.732183434E-2,8.368027327E-1
2.338260693E0,5.925196409E-1,-5.863423347E-1,-2.159788832E-2,8.338724886E-1
2.340706526E0,5.937413573E-1,-5.784010887E-1,-2.709566988E-2,8.293435923E-1
2.343151526E0,6.004608870E-1,-5.729032755E-1,-3.259345144E-2,8.305623233E-1
2.345595797E0,6.071804166E-1,-5.674055219E-1,-3.686950356E-2,8.318512156E-1
2.348040797E0,6.126781702E-1,-5.612968802E-1,-4.114555568E-2,8.319385102E-1
2.350486630E0,6.169542670E-1,-5.582425594E-1,-4.603247344E-2,8.332984528E-1
2.352931630E0,6.224520206E-1,-5.527447462E-1,-4.969765991E-2,8.339323293E-1
2.355375849E0,6.279498339E-1,-5.478578210E-1,-5.153025687E-2,8.349398501E-1
2.357820901E0,6.310041547E-1,-5.429708958E-1,-5.397371948E-2,8.342042911E-1
2.360266682E0,6.346693039E-1,-5.399165750E-1,-5.275198817E-2,8.349238321E-1
2.362711734E0,6.371127963E-1,-5.350297093E-1,-5.214112252E-2,8.335995452E-1
2.365155953E0,6.419997215E-1,-5.307536125E-1,-5.030852556E-2,8.345022393E-1
2.367600953E0,6.462757587E-1,-5.301427245E-1,-4.786507040E-2,8.372662239E-1
2.370046787E0,6.511626840E-1,-5.295318961E-1,-4.419988394E-2,8.404585057E-1
2.372491787E0,6.572713256E-1,-5.270884037E-1,-3.992382437E-2,8.434581747E-1
2.374936005E0,6.627690792E-1,-5.276992917E-1,-3.564777225E-2,8.479387705E-1
2.377381057E0,6.688777208E-1,-5.295318961E-1,-3.076085635E-2,8.536671862E-1
2.379826891E0,6.743755341E-1,-5.319753289E-1,-2.770653181E-2,8.593880168E-1
2.382271891E0,6.786515713E-1,-5.374731421E-1,-2.343047969E-2,8.660221251E-1
2.384716109E0,6.847602129E-1,-5.399165750E-1,-1.915442944E-2,8.722232221E-1
2.387161162E0,6.920906305E-1,-5.460252166E-1,-1.487837546E-2,8.816770067E-1
2.389606943E0,6.981992722E-1,-5.466361046E-1,-1.243491657E-2,8.868189678E-1
2.392051995E0,7.067513466E-1,-5.466361046E-1,-1.121318713E-2,8.935514715E-1
2.394496214E0,7.134708762E-1,-5.411383510E-1,-9.991457686E-3,8.955284671E-1
2.396941214E0,7.226338387E-1,-5.325862169E-1,-1.121318713E-2,8.977602569E-1
2.399387047E0,7.293533683E-1,-5.246449709E-1,-1.243491657E-2,8.985339774E-1
2.401832047E0,7.360728383E-1,-5.130385160E-1,-1.487837546E-2,8.973478190E-1
2.404276318E0,7.421815395E-1,-5.026538372E-1,-1.854356378E-2,8.965702323E-1
2.406721318E0,7.495118976E-1,-4.916582704E-1,-2.465221100E-2,8.967182785E-1
2.409167151E0,7.568422556E-1,-4.824953079E-1,-2.831739746E-2,8.980054549E-1
2.411612151E0,7.629508972E-1,-4.733323455E-1,-3.564777225E-2,8.985590379E-1
2.414056370E0,7.702813148E-1,-4.653910995E-1,-4.175642133E-2,9.009249570E-1
2.416501422E0,7.763899565E-1,-4.580607116E-1,-4.786507040E-2,9.027137115E-1
2.418947203E0,7.861637473E-1,-4.513412118E-1,-5.336285383E-2,9.080803495E-1
2.421392255E0,7.953267694E-1,-4.452325702E-1,-5.886063725E-2,9.133681001E-1
2.423836474E0,8.032680154E-1,-4.397347867E-1,-6.496927887E-2,9.180562044E-1
2.426281474E0,8.130418062E-1,-4.342370033E-1,-7.046706229E-2,9.244265036E-1
2.428727307E0,8.246482611E-1,-4.324043989E-1,-7.596484572E-2,9.342317574E-1
2.431172307E0,8.368655443E-1,-4.311826825E-1,-8.024089783E-2,9.448285806E-1
2.433616578E0,8.484719992E-1,-4.311826825E-1,-8.329522610E-2,9.553854373E-1
2.436061578E0,8.594675660E-1,-4.336261451E-1,-8.573868126E-2,9.664715476E-1
2.438507412E0,8.716848493E-1,-4.366804659E-1,-8.879300952E-2,9.789834035E-1
2.440952412E0,8.845130205E-1,-4.415673912E-1,-9.123646468E-2,9.928087111E-1
2.443396630E0,8.948976994E-1,-4.488977492E-1,-9.306906164E-2,1.005491388E0
2.445841682E0,9.046715498E-1,-4.580607116E-1,-9.367992729E-2,1.018344813E0
2.448287464E0,9.150562286E-1,-4.684454203E-1,-9.490165114E-2,1.032363956E0
2.450732516E0,9.254409075E-1,-4.794409871E-1,-9.734511375E-2,1.046795398E0
2.453176734E0,9.358256459E-1,-4.910474122E-1,-9.673424810E-2,1.061251485E0
2.455621734E0,9.480429292E-1,-5.063190460E-1,-9.795597941E-2,1.079231090E0
2.458067568E0,9.578167796E-1,-5.185363293E-1,-1.003994346E-1,1.093788350E0
2.460512620E0,9.694231749E-1,-5.319753289E-1,-1.034537628E-1,1.110622224E0
2.462956839E0,9.810296297E-1,-5.435817838E-1,-1.046754867E-1,1.126435638E0
2.465401839E0,9.901925921E-1,-5.521339178E-1,-1.071189493E-1,1.138774649E0
2.467847672E0,1.000577331E0,-5.594642758E-1,-1.089515463E-1,1.151531897E0
2.470292672E0,1.008518577E0,-5.667946339E-1,-1.144493222E-1,1.162525064E0
2.472736891E0,1.017681599E0,-5.716815591E-1,-1.175036430E-1,1.173159302E0
2.475181943E0,1.028066278E0,-5.753467679E-1,-1.236122847E-1,1.184577634E0
2.477627724E0,1.035396695E0,-5.777902007E-1,-1.303317994E-1,1.192842911E0
2.480072776E0,1.046392202E0,-5.808445215E-1,-1.364404410E-1,1.204546800E0
2.482516995E0,1.054944277E0,-5.838988423E-1,-1.413273662E-1,1.214009353E0
2.484961995E0,1.064718127E0,-5.869531631E-1,-1.474360079E-1,1.224694281E0
2.487407828E0,1.074491978E0,-5.900074840E-1,-1.547663957E-1,1.235554320E0
2.489852880E0,1.084876657E0,-5.936726928E-1,-1.614858955E-1,1.247189769E0
2.492297099E0,1.098315716E0,-5.985596180E-1,-1.657619476E-1,1.261763865E0
2.494742099E0,1.110532999E0,-6.046682596E-1,-1.737031937E-1,1.276354201E0
2.497187932E0,1.125193715E0,-6.101660132E-1,-1.816444397E-1,1.292810180E0
2.499632932E0,1.138021946E0,-6.174964309E-1,-1.883639544E-1,1.308387088E0
2.502077151E0,1.152682662E0,-6.266593933E-1,-1.944725960E-1,1.326347958E0
2.504522203E0,1.164289117E0,-6.370440722E-1,-2.030247003E-1,1.342614363E0
2.506967984E0,1.175895572E0,-6.510939598E-1,-2.085224837E-1,1.360196812E0
2.509413037E0,1.186280251E0,-6.651438475E-1,-2.176854610E-1,1.377339512E0
2.511857255E0,1.196664929E0,-6.834698319E-1,-2.231832445E-1,1.396047537E0
2.514302255E0,1.207049608E0,-7.054609656E-1,-2.299027443E-1,1.416862450E0
2.516748089E0,1.216212630E0,-7.292846441E-1,-2.354005277E-1,1.437512665E0
2.519193141E0,1.225986481E0,-7.573844194E-1,-2.421200424E-1,1.461265248E0
2.521637359E0,1.235149384E0,-7.860950828E-1,-2.476178259E-1,1.484875101E0
2.524082359E0,1.246755838E0,-8.117514253E-1,-2.555590868E-1,1.509520104E0
2.526528193E0,1.260194898E0,-8.343533874E-1,-2.616677284E-1,1.533853564E0
2.528973193E0,1.273023009E0,-8.532902002E-1,-2.683872283E-1,1.555867428E0
2.531417412E0,1.282796860E0,-8.679509759E-1,-2.738850117E-1,1.572869886E0
2.533862464E0,1.294403315E0,-8.832225800E-1,-2.806045413E-1,1.591948798E0
2.536308297E0,1.304787993E0,-8.954398632E-1,-2.867131829E-1,1.608256418E0
2.538753297E0,1.311507463E0,-9.076571465E-1,-2.946544290E-1,1.621947766E0
2.541197516E0,1.320059657E0,-9.223179221E-1,-3.019847870E-1,1.638420782E0
2.543642568E0,1.327389956E0,-9.388112426E-1,-3.080934584E-1,1.654766516E0
2.546088349E0,1.334109545E0,-9.571372271E-1,-3.142021000E-1,1.671730513E0
2.548533401E0,1.340829015E0,-9.785174727E-1,-3.221433461E-1,1.690885930E0
2.550977620E0,1.349381089E0,-1.001119375E0,-3.276411295E-1,1.711846382E0
2.553422620E0,1.358544111E0,-1.024332285E0,-3.355823755E-1,1.734218632E0
2.555868453E0,1.370150447E0,-1.051210284E0,-3.404692709E-1,1.760191647E0
2.558313453E0,1.381146073E0,-1.076255798E0,-3.459670544E-1,1.784820501E0
2.560757724E0,1.394585133E0,-1.102522969E0,-3.526865840E-1,1.812405147E0
2.563202724E0,1.409245849E0,-1.120848894E0,-3.569626212E-1,1.835673832E0
2.565648557E0,1.424517512E0,-1.133677006E0,-3.618495464E-1,1.856181239E0
2.568093557E0,1.437956452E0,-1.140396595E0,-3.685690463E-1,1.871915141E0
2.570537776E0,1.449562907E0,-1.140396595E0,-3.746777177E-1,1.882052180E0
2.572982828E0,1.462391138E0,-1.141618252E0,-3.807863593E-1,1.893905574E0
2.575428609E0,1.470943213E0,-1.139174819E0,-3.881167173E-1,1.900533554E0
2.577873662E0,1.481938720E0,-1.140396595E0,-3.948362470E-1,1.911162585E0
2.580317880E0,1.486825705E0,-1.141007423E0,-4.039992094E-1,1.917228202E0
2.582762880E0,1.495377779E0,-1.147726893E0,-4.131621718E-1,1.929801727E0
2.585208714E0,1.500875592E0,-1.158722520E0,-4.241577387E-1,1.942981011E0
2.587653714E0,1.508205891E0,-1.173383236E0,-4.375967681E-1,1.960358171E0
2.590097984E0,1.513092875E0,-1.192930937E0,-4.504249394E-1,1.978741240E0
2.592542984E0,1.518590689E0,-1.214311242E0,-4.626422226E-1,1.998676387E0
2.594988818E0,1.522255778E0,-1.244243503E0,-4.766921103E-1,2.023027414E0
2.597433818E0,1.525920987E0,-1.277230263E0,-4.901311398E-1,2.049385405E0
2.599878037E0,1.528975368E0,-1.312049508E0,-5.047919154E-1,2.077030203E0
2.602323089E0,1.533862233E0,-1.350534081E0,-5.176200271E-1,2.108223458E0
2.604768870E0,1.536305666E0,-1.393294573E0,-5.286155939E-1,2.140312901E0
2.607213922E0,1.539360046E0,-1.437887669E0,-5.414437652E-1,2.174927965E0
2.609658141E0,1.540581822E0,-1.488589406E0,-5.524393320E-1,2.212347167E0
2.612103141E0,1.539970875E0,-1.542956352E0,-5.628240108E-1,2.251442974E0
2.614548974E0,1.541803479E0,-1.600988507E0,-5.725978613E-1,2.295253903E0
2.616993974E0,1.542414308E0,-1.661464214E0,-5.799282789E-1,2.340047444E0
2.619438245E0,1.542414308E0,-1.722550631E0,-5.866477489E-1,2.385451352E0
2.621883245E0,1.543636084E0,-1.784858823E0,-5.939781666E-1,2.433381071E0
2.624329078E0,1.544857860E0,-1.848999619E0,-5.994759202E-1,2.482892825E0
2.626774078E0,1.546079516E0,-1.906420946E0,-6.025302410E-1,2.527418720E0
2.629218297E0,1.547301292E0,-1.958344460E0,-6.068062782E-1,2.568553712E0
2.631663349E0,1.552188158E0,-2.000494242E0,-6.098605990E-1,2.604456803E0
2.634109130E0,1.556464195E0,-2.029204845E0,-6.141366959E-1,2.630098283E0
2.636554182E0,1.559518576E0,-2.042643785E0,-6.190236211E-1,2.643422415E0
2.638998401E0,1.564405441E0,-2.044476509E0,-6.220779419E-1,2.648439077E0
2.641443401E0,1.568681598E0,-2.030426741E0,-6.281865835E-1,2.641592907E0
2.643889234E0,1.570514083E0,-2.004770279E0,-6.324626207E-1,2.624047889E0
2.646334234E0,1.570514083E0,-1.966285706E0,-6.397929788E-1,2.596560998E0
2.648778505E0,1.570514083E0,-1.920470834E0,-6.477342248E-1,2.564036336E0
2.651223505E0,1.568681598E0,-1.867325544E0,-6.568971872E-1,2.525703973E0
2.653669339E0,1.565627217E0,-1.810515165E0,-6.666710377E-1,2.484673826E0
2.656114339E0,1.563183784E0,-1.756148219E0,-6.776666045E-1,2.446800388E0
2.658558557E0,1.561351180E0,-1.697505236E0,-6.904947758E-1,2.407514189E0
2.661003609E0,1.558907747E0,-1.641305685E0,-7.033229470E-1,2.370388340E0
2.663449391E0,1.555242538E0,-1.588160396E0,-7.161510587E-1,2.335359744E0
2.665894443E0,1.553409934E0,-1.535626054E0,-7.302009463E-1,2.303133349E0
2.668338662E0,1.553409934E0,-1.483702540E0,-7.418074012E-1,2.272605085E0
2.670783662E0,1.551577330E0,-1.432389855E0,-7.558572888E-1,2.242867171E0
2.673229495E0,1.550966501E0,-1.385964155E0,-7.686854601E-1,2.217492066E0
2.675674547E0,1.549133897E0,-1.340760231E0,-7.809027433E-1,2.192547131E0
2.678118766E0,1.546079516E0,-1.302275658E0,-7.925091982E-1,2.171256454E0
2.680563766E0,1.545468688E0,-1.269289017E0,-8.022829890E-1,2.154814625E0
2.683009599E0,1.542414308E0,-1.245465279E0,-8.120568395E-1,2.142349637E0
2.685454599E0,1.538749218E0,-1.230804563E0,-8.169437647E-1,2.133079028E0
2.687898818E0,1.535084009E0,-1.227139354E0,-8.224415183E-1,2.130437504E0
2.690343870E0,1.527142763E0,-1.235080600E0,-8.248850107E-1,2.130263924E0
2.692789651E0,1.521034122E0,-1.254628301E0,-8.236632943E-1,2.136833684E0
2.695234703E0,1.514925480E0,-1.280284524E0,-8.212198019E-1,2.146748619E0
2.697678922E0,1.509427667E0,-1.313882113E0,-8.169437647E-1,2.161493743E0
2.700123922E0,1.508205891E0,-1.352366567E0,-8.102242351E-1,2.181752426E0
2.702569755E0,1.506984234E0,-1.392072797E0,-8.028938770E-1,2.203067573E0
2.705014807E0,1.505151629E0,-1.429946423E0,-7.937309146E-1,2.222664384E0
2.707459026E0,1.506373286E0,-1.467820048E0,-7.815136313E-1,2.243751262E0
2.709904026E0,1.506373286E0,-1.503250241E0,-7.723506093E-1,2.263945059E0
2.712349859E0,1.506984234E0,-1.536236882E0,-7.625768185E-1,2.283100664E0
2.714794859E0,1.506373286E0,-1.566780090E0,-7.521920800E-1,2.299946359E0
2.717239078E0,1.505151629E0,-1.593658209E0,-7.418074012E-1,2.314196650E0
2.719684130E0,1.502708197E0,-1.621757984E0,-7.338661551E-1,2.329547256E0
2.722129964E0,1.499042988E0,-1.649246931E0,-7.283684015E-1,2.344710184E0
2.724574964E0,1.496599555E0,-1.677346706E0,-7.234814763E-1,2.361509612E0
2.727019182E0,1.491712570E0,-1.706668139E0,-7.216488719E-1,2.378802140E0
2.729464182E0,1.489879966E0,-1.737822294E0,-7.216488719E-1,2.400113692E0
2.731910016E0,1.486825705E0,-1.772030711E0,-7.228705883E-1,2.423486209E0
2.734355068E0,1.483160496E0,-1.810515165E0,-7.253140807E-1,2.450267482E0
2.736799287E0,1.479495287E0,-1.847777963E0,-7.308118343E-1,2.477352547E0
2.739244287E0,1.478884459E0,-1.888705850E0,-7.387530804E-1,2.509993056E0
2.741690120E0,1.475830078E0,-1.931466341E0,-7.473051548E-1,2.543049673E0
2.744135120E0,1.473997474E0,-1.972394347E0,-7.595224977E-1,2.576796934E0
2.746579339E0,1.468499780E0,-2.012100697E0,-7.692962885E-1,2.607078364E0
2.749024391E0,1.464223623E0,-2.049974203E0,-7.815136313E-1,2.637633145E0
2.751470224E0,1.457504153E0,-2.083571911E0,-7.967852354E-1,2.664668268E0
2.753915224E0,1.452617288E0,-2.113504171E0,-8.102242351E-1,2.689509282E0
2.756359443E0,1.447119474E0,-2.138549566E0,-8.254958391E-1,2.710902507E0
2.758804443E0,1.439789057E0,-2.157486439E0,-8.413783312E-1,2.726840252E0
2.761250276E0,1.433069587E0,-2.171536446E0,-8.584825397E-1,2.739753866E0
2.763695328E0,1.426960945E0,-2.179477453E0,-8.737542033E-1,2.747687376E0
2.766139547E0,1.417797923E0,-2.180699348E0,-8.896366358E-1,2.749009629E0
2.768584547E0,1.408024073E0,-2.177644968E0,-9.049082994E-1,2.746548457E0
2.771030380E0,1.397639394E0,-2.167260170E0,-9.207907915E-1,2.738296588E0
2.773475380E0,1.384811282E0,-2.151377678E0,-9.342297912E-1,2.723768254E0
2.775919599E0,1.370150447E0,-2.131830215E0,-9.495013952E-1,2.706208642E0
2.778364651E0,1.355489731E0,-2.109228134E0,-9.629404545E-1,2.685786673E0
2.780810484E0,1.340218186E0,-2.086626053E0,-9.751577377E-1,2.664793742E0
2.783255484E0,1.327389956E0,-2.062191486E0,-9.867641330E-1,2.643539535E0
2.785699703E0,1.312729239E0,-2.038978577E0,-9.977597594E-1,2.622254036E0
2.788144755E0,1.299290180E0,-2.018209457E0,-1.005700946E0,2.602452455E0
2.790590537E0,1.285851121E0,-2.001105070E0,-1.014253020E0,2.585835222E0
2.793035589E0,1.274244785E0,-1.989498496E0,-1.021583438E0,2.573992377E0
2.795479807E0,1.265081763E0,-1.980335593E0,-1.027692080E0,2.564822009E0
2.797924807E0,1.254086256E0,-1.979113817E0,-1.031968117E0,2.560191796E0
2.800370641E0,1.242479801E0,-1.981557250E0,-1.035022497E0,2.557654543E0
2.802815641E0,1.230873346E0,-1.991941929E0,-1.037465930E0,2.561096913E0
2.805259912E0,1.218045235E0,-2.007824659E0,-1.040520191E0,2.568594231E0
2.807704912E0,1.207049608E0,-2.032259226E0,-1.039909363E0,2.582335726E0
2.810150745E0,1.192388892E0,-2.061580658E0,-1.038687706E0,2.598225977E0
2.812595745E0,1.180782437E0,-2.095789194E0,-1.035633326E0,2.618991389E0
2.815039964E0,1.166121721E0,-2.133662701E0,-1.033800721E0,2.642177193E0
2.817485016E0,1.150850058E0,-2.173979759E0,-1.028913856E0,2.666328481E0
2.819930797E0,1.136800170E0,-2.212464333E0,-1.023416042E0,2.689738546E0
2.822375849E0,1.124582887E0,-2.247894526E0,-1.017307401E0,2.711573494E0
2.824820068E0,1.109922171E0,-2.279659271E0,-1.012420416E0,2.730159101E0
2.827265068E0,1.098315716E0,-2.307759047E0,-1.006311774E0,2.746764026E0
2.829710901E0,1.087320089E0,-2.332193851E0,-1.000203133E0,2.760760664E0
2.832155953E0,1.076324582E0,-2.348076344E0,-9.940945506E-1,2.767699604E0
2.834600172E0,1.064718127E0,-2.356017590E0,-9.879859090E-1,2.767771618E0
2.837045172E0,1.053722620E0,-2.354795694E0,-9.830989838E-1,2.760774843E0
2.839491005E0,1.042116165E0,-2.346243620E0,-9.788228869E-1,2.747536982E0
2.841936005E0,1.029898882E0,-2.332804680E0,-9.739360213E-1,2.729692429E0
2.844380224E0,1.017681599E0,-2.312035322E0,-9.714925289E-1,2.706470192E0
2.846825276E0,1.004853368E0,-2.286989689E0,-9.690490961E-1,2.679385802E0
2.849271057E0,9.920251966E-1,-2.260722637E0,-9.672164917E-1,2.651506850E0
2.851716109E0,9.810296297E-1,-2.235677242E0,-9.659947753E-1,2.625608077E0
2.854160328E0,9.688123465E-1,-2.208799124E0,-9.659947753E-1,2.598179524E0
2.856605328E0,9.608711004E-1,-2.186807871E0,-9.635512829E-1,2.575622839E0
2.859051162E0,9.510972500E-1,-2.169703722E0,-9.659947753E-1,2.558387407E0
2.861496214E0,9.407125711E-1,-2.158097267E0,-9.672164917E-1,2.545158482E0
2.863940432E0,9.303278327E-1,-2.149545193E0,-9.684382081E-1,2.534546700E0
2.866385432E0,9.217757583E-1,-2.144047499E0,-9.708817005E-1,2.527690943E0
2.868831266E0,9.089475870E-1,-2.141603947E0,-9.751577377E-1,2.522614872E0
2.871276266E0,8.973411322E-1,-2.141603947E0,-9.800446630E-1,2.520352379E0
2.873720484E0,8.869564533E-1,-2.142214775E0,-9.855424166E-1,2.519339149E0
2.876165537E0,8.753499985E-1,-2.140993118E0,-9.910402298E-1,2.516396211E0
2.878611318E0,8.613001108E-1,-2.137327909E0,-9.977597594E-1,2.511082040E0
2.881056370E0,8.466393948E-1,-2.133662701E0,-1.006922722E0,2.506632832E0
2.883500589E0,8.301460147E-1,-2.125721455E0,-1.014863968E0,2.497555401E0
2.885945589E0,8.124309778E-1,-2.109838963E0,-1.022805214E0,2.481450190E0
2.888391422E0,7.965484858E-1,-2.089069605E0,-1.033800721E0,2.463218471E0
2.890836474E0,7.794442773E-1,-2.060969830E0,-1.041741967E0,2.437284626E0
2.893280693E0,7.635617852E-1,-2.026761532E0,-1.052737594E0,2.408120709E0
2.895725693E0,7.470684052E-1,-1.983389854E0,-1.060678840E0,2.370018168E0
2.898171526E0,7.311859727E-1,-1.933909774E0,-1.069230914E0,2.327637147E0
2.900616526E0,7.153034806E-1,-1.879542828E0,-1.079004765E0,2.282233904E0
2.903060745E0,6.988101006E-1,-1.820289016E0,-1.090000272E0,2.233805777E0
2.905505797E0,6.853711009E-1,-1.760424256E0,-1.097941518E0,2.185017777E0
2.907951630E0,6.700994968E-1,-1.695672631E0,-1.107715368E0,2.133394559E0
2.910396630E0,6.578821540E-1,-1.635807872E0,-1.118100047E0,2.087779691E0
2.912840849E0,6.450540423E-1,-1.574721336E0,-1.127873898E0,2.041553706E0
2.915285901E0,6.346693039E-1,-1.519132733E0,-1.136425972E0,2.000508280E0
2.917731682E0,6.255063415E-1,-1.469041824E0,-1.144978166E0,1.964768960E0
2.920176734E0,6.163433790E-1,-1.422005177E0,-1.152919412E0,1.931631707E0
2.922620953E0,6.065695286E-1,-1.381688118E0,-1.160860658E0,1.903834582E0
2.925065953E0,5.961848497E-1,-1.348701477E0,-1.166969299E0,1.880491796E0
2.927511787E0,5.833566785E-1,-1.325488567E0,-1.172466993E0,1.863304540E0
2.929956787E0,5.723611116E-1,-1.306551814E0,-1.177964807E0,1.849939450E0
2.932401005E0,5.619764328E-1,-1.296777964E0,-1.182240844E0,1.842591656E0
2.934846057E0,5.534242988E-1,-1.290669322E0,-1.183462620E0,1.836488368E0
2.937291891E0,5.430396199E-1,-1.292501926E0,-1.182240844E0,1.833888402E0
2.939736891E0,5.344874859E-1,-1.301054001E0,-1.182240844E0,1.837419875E0
2.942181109E0,5.265462399E-1,-1.314493060E0,-1.178575635E0,1.842330990E0
2.944626162E0,5.186050534E-1,-1.330375433E0,-1.173077941E0,1.847961539E0
2.947071943E0,5.088312030E-1,-1.350534081E0,-1.166969299E0,1.855981908E0
2.949516995E0,5.033333898E-1,-1.373746872E0,-1.159028053E0,1.866513059E0
2.951961214E0,4.960030615E-1,-1.395127177E0,-1.148643255E0,1.873974441E0
2.954406214E0,4.905052781E-1,-1.415285707E0,-1.138258576E0,1.881292547E0
2.956852047E0,4.831748903E-1,-1.436055064E0,-1.127263069E0,1.888500503E0
2.959297047E0,4.776771069E-1,-1.456824541E0,-1.115656614E0,1.896102013E0
2.961741266E0,4.734010696E-1,-1.474539518E0,-1.102828503E0,1.901211737E0
2.964186318E0,4.691250026E-1,-1.492254615E0,-1.091832876E0,1.907616611E0
2.966632151E0,4.666815400E-1,-1.508747935E0,-1.081448197E0,1.914064313E0
2.969077151E0,4.636272192E-1,-1.520354390E0,-1.073506951E0,1.918031502E0
2.971521370E0,4.593511820E-1,-1.529517412E0,-1.065565705E0,1.919858665E0
2.973966422E0,4.569077194E-1,-1.536847711E0,-1.061289668E0,1.922758776E0
2.976412203E0,4.538533986E-1,-1.538069487E0,-1.059457064E0,1.922001541E0
2.978857255E0,4.489664733E-1,-1.535626054E0,-1.060678840E0,1.919572315E0
2.981301474E0,4.440795481E-1,-1.527684808E0,-1.064343929E0,1.914120037E0
2.983746474E0,4.367491901E-1,-1.519132733E0,-1.068009138E0,1.907657631E0
2.986192307E0,4.288079441E-1,-1.505082846E0,-1.072285175E0,1.897088855E0
2.988637307E0,4.196449816E-1,-1.489811182E0,-1.078393817E0,1.886417900E0
2.991081578E0,4.110928774E-1,-1.471485257E0,-1.084502459E0,1.873609297E0
2.993526578E0,4.019298851E-1,-1.450715780E0,-1.090000272E0,1.858554411E0
2.995972412E0,3.921560645E-1,-1.427502990E0,-1.096719861E0,1.842374994E0
2.998417412E0,3.842148185E-1,-1.403679252E0,-1.104050159E0,1.826708303E0
3.000861630E0,3.762735724E-1,-1.376801252E0,-1.109547973E0,1.807833010E0
3.003306682E0,3.695540726E-1,-1.348701477E0,-1.116878390E0,1.789688025E0
3.005752464E0,3.628345430E-1,-1.319379926E0,-1.125430465E0,1.771724026E0
3.008197516E0,3.585585058E-1,-1.291280150E0,-1.132760882E0,1.754740963E0
3.010641734E0,3.518389761E-1,-1.263180375E0,-1.143145561E0,1.739596821E0
3.013086734E0,3.451194763E-1,-1.239356637E0,-1.153530240E0,1.727930653E0
3.015532568E0,3.359565139E-1,-1.216143727E0,-1.164525747E0,1.716971916E0
3.017977568E0,3.261826634E-1,-1.196596146E0,-1.175521374E0,1.708826488E0
3.020421839E0,3.139653802E-1,-1.182546258E0,-1.187127829E0,1.704776347E0
3.022866839E0,2.993046343E-1,-1.169718027E0,-1.196290731E0,1.699686748E0
3.025312672E0,2.852547467E-1,-1.159944177E0,-1.206675410E0,1.697912339E0
3.027757672E0,2.705939710E-1,-1.151392102E0,-1.215227604E0,1.695789786E0
3.030201891E0,2.547115088E-1,-1.145894289E0,-1.218892694E0,1.692232570E0
3.032646943E0,2.406616062E-1,-1.139174819E0,-1.220114470E0,1.686510182E0
3.035092724E0,2.284443080E-1,-1.135509610E0,-1.220114470E0,1.682334151E0
3.037537776E0,2.192813456E-1,-1.130011916E0,-1.217671037E0,1.675629432E0
3.039981995E0,2.095075101E-1,-1.126346707E0,-1.212173223E0,1.667907139E0
3.042426995E0,2.003445327E-1,-1.121459723E0,-1.207286358E0,1.659924755E0
3.044872828E0,1.948467493E-1,-1.116572857E0,-1.200566769E0,1.651078668E0
3.047317880E0,1.856837869E-1,-1.109242439E0,-1.192625523E0,1.639284263E0
3.049762099E0,1.777425408E-1,-1.101912141E0,-1.184684277E0,1.627660779E0
3.052207099E0,1.704121679E-1,-1.095192552E0,-1.175521374E0,1.615653902E0
3.054652932E0,1.630817950E-1,-1.089083910E0,-1.167580128E0,1.604974389E0
3.057097932E0,1.551405489E-1,-1.085418701E0,-1.159638882E0,1.595921265E0
3.059542151E0,1.496427655E-1,-1.082364440E0,-1.152919412E0,1.588435994E0
3.061987203E0,1.441449821E-1,-1.081142664E0,-1.148032427E0,1.583548449E0
3.064433037E0,1.386471987E-1,-1.078699231E0,-1.144367218E0,1.578730948E0
3.066878037E0,1.325385571E-1,-1.078699231E0,-1.141312957E0,1.575992946E0
3.069322255E0,1.276516318E-1,-1.079310060E0,-1.140091181E0,1.575123184E0
3.071767255E0,1.215429977E-1,-1.078699231E0,-1.139480352E0,1.573778957E0
3.074213089E0,1.154343486E-1,-1.075034022E0,-1.140091181E0,1.571251456E0
3.076658141E0,1.074931026E-1,-1.069536209E0,-1.141312957E0,1.567819420E0
3.079102359E0,9.710840136E-2,-1.058540702E0,-1.143756390E0,1.561447129E0
3.081547359E0,8.794543147E-2,-1.043879986E0,-1.143145561E0,1.550548805E0
3.083993193E0,7.817159593E-2,-1.026164889E0,-1.144978166E0,1.539512968E0
3.086438193E0,6.839776039E-2,-1.003562927E0,-1.146199822E0,1.524988798E0
3.088882412E0,5.862392485E-2,-9.785174727E-1,-1.148643255E0,1.510071037E0
3.091327464E0,4.823922366E-2,-9.522503018E-1,-1.151086807E0,1.494693446E0
3.093773297E0,3.785452247E-2,-9.192636013E-1,-1.155362844E0,1.476936639E0
3.096218297E0,2.685895935E-2,-8.826116920E-1,-1.154751897E0,1.453676974E0
3.098662516E0,1.341993455E-2,-8.410729170E-1,-1.155973673E0,1.429635925E0
3.101107568E0,-1.851683715E-3,-7.983123660E-1,-1.157195449E0,1.405847563E0
3.103553349E0,-1.529070735E-2,-7.567735910E-1,-1.155973673E0,1.381743539E0
3.105998401E0,-2.628627419E-2,-7.182890773E-1,-1.154141068E0,1.359658697E0
3.108442620E0,-3.728183731E-2,-6.804155111E-1,-1.150475860E0,1.337142441E0
3.110887620E0,-4.583394155E-2,-6.468179226E-1,-1.148643255E0,1.319035823E0
3.113333453E0,-5.072085932E-2,-6.174964309E-1,-1.145588994E0,1.302401087E0
3.115778453E0,-5.316432193E-2,-5.887857676E-1,-1.144367218E0,1.288049477E0
3.118222724E0,-5.621864274E-2,-5.606859922E-1,-1.143145561E0,1.274484638E0
3.120667724E0,-5.988383293E-2,-5.338079333E-1,-1.144978166E0,1.264718144E0
3.123113557E0,-6.477074325E-2,-5.063190460E-1,-1.144367218E0,1.253048505E0
3.125558557E0,-6.904680282E-2,-4.776083827E-1,-1.144367218E0,1.241955538E0
3.128002776E0,-7.637717575E-2,-4.482868910E-1,-1.148643255E0,1.235384935E0
3.130447828E0,-8.187495917E-2,-4.183545113E-1,-1.152308464E0,1.228632900E0
3.132893609E0,-8.676187694E-2,-3.884221613E-1,-1.155973673E0,1.222568825E0
3.135338662E0,-9.348138422E-2,-3.566571772E-1,-1.160860658E0,1.218006805E0
3.137782880E0,-1.008117646E-1,-3.255030811E-1,-1.166969299E0,1.215702518E0
3.140227880E0,-1.087530032E-1,-2.937381268E-1,-1.171245337E0,1.212404611E0
3.142673714E0,-1.173051149E-1,-2.619731426E-1,-1.175521374E0,1.210058229E0
3.145118714E0,-1.246354952E-1,-2.326516509E-1,-1.178575635E0,1.207767082E0
3.147562932E0,-1.289115548E-1,-2.039410025E-1,-1.181019187E0,1.205411316E0
3.150007984E0,-1.325767338E-1,-1.740086377E-1,-1.181019187E0,1.201108620E0
3.152453818E0,-1.337984651E-1,-1.459088475E-1,-1.181630015E0,1.198098875E0
3.154898818E0,-1.350201964E-1,-1.165873483E-1,-1.181630015E0,1.195019898E0
3.157343037E0,-1.344093382E-1,-8.665498346E-2,-1.180408239E0,1.191192079E0
3.159788089E0,-1.295224130E-1,-5.977693200E-2,-1.181019187E0,1.189603151E0
3.162233870E0,-1.264680922E-1,-3.595320880E-2,-1.180408239E0,1.187708055E0
3.164678922E0,-1.228028908E-1,-1.274034753E-2,-1.181630015E0,1.188062439E0
3.167123141E0,-1.203594357E-1,8.639916778E-3,-1.181019187E0,1.187167790E0
3.169568141E0,-1.185268387E-1,2.696586028E-2,-1.179797411E0,1.186042874E0
3.172013974E0,-1.173051149E-1,4.101574793E-2,-1.182851672E0,1.189361535E0
3.174459026E0,-1.173051149E-1,5.445476994E-2,-1.184073448E0,1.191115336E0
3.176903245E0,-1.197485700E-1,6.545033306E-2,-1.186516881E0,1.194339054E0
3.179348245E0,-1.221920326E-1,7.461331040E-2,-1.189571261E0,1.198156010E0
3.181794078E0,-1.270789504E-1,7.950022072E-2,-1.193847299E0,1.203220976E0
3.184239078E0,-1.319658756E-1,8.499800414E-2,-1.196290731E0,1.206545137E0
3.186683297E0,-1.350201964E-1,8.744146675E-2,-1.197512507E0,1.208268459E0
3.189128349E0,-1.362419277E-1,8.805232495E-2,-1.198123336E0,1.209055252E0
3.191574130E0,-1.368527859E-1,8.621973544E-2,-1.198123336E0,1.208992165E0
3.194019182E0,-1.368527859E-1,8.805232495E-2,-1.196901560E0,1.207913590E0
3.196463401E0,-1.362419277E-1,8.499800414E-2,-1.194458127E0,1.205204025E0
3.198908401E0,-1.350201964E-1,8.499800414E-2,-1.189571261E0,1.200222854E0
3.201354234E0,-1.350201964E-1,8.683060855E-2,-1.185295224E0,1.196116540E0
3.203799234E0,-1.368527859E-1,8.866319805E-2,-1.176132202E0,1.187382333E0
3.206243505E0,-1.380745173E-1,8.988492936E-2,-1.170023561E0,1.181566335E0
3.208688505E0,-1.399071217E-1,8.988492936E-2,-1.161471486E0,1.173315523E0
3.211134339E0,-1.417397112E-1,8.744146675E-2,-1.154141068E0,1.166095091E0
3.213579339E0,-1.447940320E-1,8.744146675E-2,-1.146810770E0,1.159217954E0
3.216023557E0,-1.490700841E-1,8.194368333E-2,-1.139480352E0,1.152107691E0
3.218468609E0,-1.527352780E-1,7.644589990E-2,-1.132149935E0,1.144960923E0
3.220914391E0,-1.582330614E-1,7.094811648E-2,-1.125430465E0,1.138712022E0
3.223359443E0,-1.661742926E-1,6.545033306E-2,-1.116267443E0,1.130464792E0
3.225803662E0,-1.759481281E-1,5.873082206E-2,-1.108326197E0,1.123741078E0
3.228248662E0,-1.845002323E-1,5.567650124E-2,-1.100995898E0,1.117735289E0
3.230694495E0,-1.979392618E-1,5.323303863E-2,-1.093665481E0,1.112707460E0
3.233139495E0,-2.028261870E-1,5.445476994E-2,-1.085724235E0,1.105848497E0
3.235583766E0,-2.174869329E-1,5.750909820E-2,-1.079004765E0,1.102206489E0
3.238028766E0,-2.205412537E-1,6.239601225E-2,-1.071674347E0,1.095909491E0
3.240474599E0,-2.303150892E-1,6.667206436E-2,-1.068009138E0,1.094592949E0
3.242919599E0,-2.309259623E-1,7.827848941E-2,-1.063122272E0,1.090726037E0
3.245363818E0,-2.370346040E-1,8.621973544E-2,-1.063122272E0,1.092633613E0
3.247808870E0,-2.358128726E-1,1.008804813E-1,-1.062511325E0,1.093030145E0
3.250254651E0,-2.370346040E-1,1.161521003E-1,-1.063733101E0,1.095994901E0
3.252699703E0,-2.394780666E-1,1.350889206E-1,-1.067398310E0,1.102242220E0
3.255143922E0,-2.358128726E-1,1.576909125E-1,-1.071063519E0,1.107994222E0
3.257588974E0,-2.388671935E-1,1.809037775E-1,-1.078393817E0,1.119248380E0
3.260034755E0,-2.321476936E-1,2.071709633E-1,-1.083280802E0,1.127080146E0
3.262479807E0,-2.327585518E-1,2.334381342E-1,-1.088167667E0,1.137004300E0
3.264924026E0,-2.272607684E-1,2.652031183E-1,-1.094276309E0,1.148660433E0
3.267369026E0,-2.266499102E-1,2.914702892E-1,-1.100384951E0,1.160677453E0
3.269814859E0,-2.223738581E-1,3.232352436E-1,-1.107104540E0,1.174568694E0
3.272259859E0,-2.180978060E-1,3.519459069E-1,-1.113213181E0,1.187718890E0
3.274704078E0,-2.162652016E-1,3.818782568E-1,-1.119321823E0,1.202282406E0
3.277149130E0,-2.089348286E-1,4.081454575E-1,-1.126652122E0,1.216380483E0
3.279594964E0,-2.083239555E-1,4.301365912E-1,-1.132149935E0,1.228893743E0
3.282039964E0,-1.973284036E-1,4.557929039E-1,-1.134593368E0,1.238542603E0
3.284484182E0,-1.985501349E-1,4.741188288E-1,-1.138258576E0,1.248936911E0
3.286929234E0,-1.936632097E-1,4.967208505E-1,-1.138258576E0,1.256928649E0
3.289375016E0,-1.942740679E-1,5.113815665E-1,-1.137647748E0,1.262337482E0
3.291820068E0,-1.930523515E-1,5.278749466E-1,-1.136425972E0,1.267826944E0
3.294264287E0,-1.924414784E-1,5.413139462E-1,-1.130928278E0,1.268484640E0
3.296709287E0,-1.906088889E-1,5.510877967E-1,-1.125430465E0,1.267526425E0
3.299155120E0,-1.851111054E-1,5.626942515E-1,-1.118710876E0,1.265861353E0
3.301600120E0,-1.838893741E-1,5.718572140E-1,-1.110158801E0,1.262255338E0
3.304044391E0,-1.783915907E-1,5.834636092E-1,-1.100995898E0,1.258747517E0
3.306489391E0,-1.808350533E-1,5.932374597E-1,-1.091832876E0,1.255679509E0
3.308935224E0,-1.796133220E-1,6.091199517E-1,-1.083280802E0,1.255701141E0
3.311380224E0,-1.869436949E-1,6.219481230E-1,-1.076561213E0,1.257279387E0
3.313824443E0,-1.875545681E-1,6.359980106E-1,-1.066787481E0,1.256067560E0
3.316269495E0,-1.851111054E-1,6.421066523E-1,-1.061289668E0,1.254154230E0
3.318715276E0,-1.857219636E-1,6.500478983E-1,-1.060067892E0,1.257298236E0
3.321160328E0,-1.820567846E-1,6.573782563E-1,-1.057624459E0,1.258515134E0
3.323604547E0,-1.918306202E-1,6.702064276E-1,-1.058235288E0,1.267216464E0
3.326049547E0,-1.961066723E-1,6.934192777E-1,-1.057624459E0,1.279788115E0
3.328495380E0,-2.107674181E-1,7.209081650E-1,-1.058846235E0,1.298185979E0
3.330940380E0,-2.211521268E-1,7.557274699E-1,-1.063733101E0,1.323465293E0
3.333384651E0,-2.321476936E-1,7.929902077E-1,-1.069230914E0,1.351288559E0
3.335829651E0,-2.382563353E-1,8.296421170E-1,-1.074728727E0,1.378446213E0
3.338275484E0,-2.413106561E-1,8.662939668E-1,-1.084502459E0,1.408844084E0
3.340720484E0,-2.419215292E-1,8.992806673E-1,-1.095498085E0,1.437827458E0
3.343164703E0,-2.419215292E-1,9.322673678E-1,-1.104050159E0,1.465119526E0
3.345609755E0,-2.413106561E-1,9.628106356E-1,-1.113213181E0,1.491468652E0
3.348055537E0,-2.406997979E-1,9.951863885E-1,-1.121765256E0,1.518778993E0
3.350500589E0,-2.425323874E-1,1.032449245E0,-1.129095674E0,1.549074060E0
3.352944807E0,-2.425323874E-1,1.072155476E0,-1.134593368E0,1.579759929E0
3.355389807E0,-2.431432456E-1,1.113694310E0,-1.139480352E0,1.611784455E0
3.357835641E0,-2.419215292E-1,1.155843973E0,-1.143145561E0,1.643558058E0
3.360280641E0,-2.394780666E-1,1.194939256E0,-1.146810770E0,1.673440920E0
3.362724912E0,-2.345911413E-1,1.231591105E0,-1.152308464E0,1.702840113E0
3.365169912E0,-2.297042310E-1,1.266410470E0,-1.155362844E0,1.729573015E0
3.367615745E0,-2.242064476E-1,1.300618887E0,-1.157195449E0,1.755271867E0
3.370060745E0,-2.187086642E-1,1.333605528E0,-1.157806277E0,1.779565273E0
3.372504964E0,-2.119891495E-1,1.367813945E0,-1.159028053E0,1.805325570E0
3.374950016E0,-2.077130973E-1,1.404465914E0,-1.160249710E0,1.833534462E0
3.377395797E0,-2.022153139E-1,1.442950368E0,-1.158417106E0,1.861431435E0
3.379840849E0,-1.942740679E-1,1.479602218E0,-1.157195449E0,1.888403146E0
3.382285068E0,-1.851111054E-1,1.518086672E0,-1.156584501E0,1.917430826E0
3.384730068E0,-1.728938073E-1,1.553516865E0,-1.155973673E0,1.944114721E0
3.387175901E0,-1.618982404E-1,1.587114453E0,-1.153530240E0,1.968698896E0
3.389620953E0,-1.496809423E-1,1.618268490E0,-1.150475860E0,1.991178544E0
3.392065172E0,-1.362419277E-1,1.647590041E0,-1.148643255E0,2.013081254E0
3.394510172E0,-1.264680922E-1,1.674468040E0,-1.145588994E0,2.032784184E0
3.396956005E0,-1.191377044E-1,1.701346159E0,-1.144978166E0,2.054202411E0
3.399401005E0,-1.136399209E-1,1.731889367E0,-1.144367218E0,2.078925478E0
3.401845224E0,-1.099747345E-1,1.758767366E0,-1.143756390E0,2.100841681E0
3.404290276E0,-1.056986824E-1,1.781980276E0,-1.143756390E0,2.120095421E0
3.406736109E0,-1.032552198E-1,1.799695373E0,-1.144978166E0,2.135542103E0
3.409181109E0,-9.836830944E-2,1.811301827E0,-1.143756390E0,2.144450819E0
3.411625328E0,-9.531398118E-2,1.819853902E0,-1.143756390E0,2.151541693E0
3.414070380E0,-9.470311552E-2,1.828405976E0,-1.142534614E0,2.158106216E0
3.416516162E0,-9.592484683E-2,1.832682014E0,-1.138869524E0,2.159849238E0
3.418961214E0,-9.836830944E-2,1.835736394E0,-1.135204315E0,2.160623352E0
3.421405432E0,-9.897916764E-2,1.835736394E0,-1.128484726E0,2.157128360E0
3.423850432E0,-9.897916764E-2,1.837568998E0,-1.122987032E0,2.155819235E0
3.426296266E0,-9.897916764E-2,1.835736394E0,-1.118100047E0,2.151713898E0
3.428741266E0,-9.714657813E-2,1.832071185E0,-1.110769749E0,2.144698515E0
3.431185537E0,-9.531398118E-2,1.828405976E0,-1.104050159E0,2.138008401E0
3.433630537E0,-9.348138422E-2,1.822297335E0,-1.098552346E0,2.129864691E0
3.436076318E0,-9.409224987E-2,1.813745260E0,-1.093054652E0,2.119739063E0
3.438521370E0,-9.348138422E-2,1.802138805E0,-1.088167667E0,2.107261710E0
3.440965589E0,-9.348138422E-2,1.786867142E0,-1.085113406E0,2.092630893E0
3.443410641E0,-9.409224987E-2,1.768541217E0,-1.082059026E0,2.075438056E0
3.445856422E0,-9.653571248E-2,1.746550083E0,-1.078393817E0,2.054918383E0
3.448301474E0,-9.836830944E-2,1.720893741E0,-1.076561213E0,2.032273514E0
3.450745693E0,-1.038660854E-1,1.698291779E0,-1.074728727E0,2.012467383E0
3.453190693E0,-1.063095480E-1,1.670192003E0,-1.073506951E0,1.988280720E0
3.455636526E0,-1.093638688E-1,1.640870571E0,-1.072896123E0,1.963548517E0
3.458081526E0,-1.124181971E-1,1.610938191E0,-1.072285175E0,1.938441437E0
3.460525797E0,-1.142507866E-1,1.581616640E0,-1.072896123E0,1.914594090E0
3.462970797E0,-1.142507866E-1,1.551073432E0,-1.074117780E0,1.890135190E0
3.465416630E0,-1.148616523E-1,1.519919276E0,-1.072285175E0,1.863637117E0
3.467861630E0,-1.142507866E-1,1.486932635E0,-1.071674347E0,1.836438894E0
3.470305849E0,-1.154725179E-1,1.455778480E0,-1.072285175E0,1.811745120E0
3.472750901E0,-1.160833836E-1,1.423402667E0,-1.071063519E0,1.785140769E0
3.475196682E0,-1.185268387E-1,1.392859459E0,-1.072285175E0,1.761789312E0
3.477641734E0,-1.209703013E-1,1.362927079E0,-1.072285175E0,1.738389926E0
3.480085953E0,-1.215811670E-1,1.332383871E0,-1.072896123E0,1.714973717E0
3.482530953E0,-1.240246221E-1,1.300618887E0,-1.073506951E0,1.690978643E0
3.484976787E0,-1.258572191E-1,1.271908283E0,-1.072896123E0,1.668741086E0
3.487421787E0,-1.252463609E-1,1.243808389E0,-1.072285175E0,1.646979495E0
3.489866057E0,-1.264680922E-1,1.215708613E0,-1.069841743E0,1.624346935E0
3.492311057E0,-1.252463609E-1,1.188830614E0,-1.069230914E0,1.603826558E0
3.494756891E0,-1.215811670E-1,1.161341667E0,-1.067398310E0,1.582035271E0
3.497201891E0,-1.209703013E-1,1.136296272E0,-1.065565705E0,1.562444656E0
3.499646109E0,-1.191377044E-1,1.106974721E0,-1.062511325E0,1.538998746E0
3.502091162E0,-1.179159805E-1,1.078264117E0,-1.061900496E0,1.517955977E0
3.504536943E0,-1.166942492E-1,1.051386118E0,-1.061900496E0,1.498887248E0
3.506981995E0,-1.160833836E-1,1.022675395E0,-1.060678840E0,1.477964789E0
3.509426214E0,-1.136399209E-1,9.909103513E-1,-1.061289668E0,1.456417906E0
3.511871214E0,-1.105856001E-1,9.603671432E-1,-1.062511325E0,1.436476432E0
3.514317047E0,-1.087530032E-1,9.304347634E-1,-1.063733101E0,1.417414609E0
3.516762047E0,-1.063095480E-1,8.974480629E-1,-1.064343929E0,1.396260271E0
3.519206318E0,-1.020334959E-1,8.656831384E-1,-1.063733101E0,1.375262244E0
3.521651318E0,-9.775744379E-2,8.326964378E-1,-1.063733101E0,1.354425334E0
3.524097151E0,-9.470311552E-2,8.015423417E-1,-1.062511325E0,1.334304733E0
3.526542151E0,-9.103792906E-2,7.697773576E-1,-1.060067892E0,1.313236087E0
3.528986370E0,-8.859447390E-2,7.392341495E-1,-1.058846235E0,1.294400038E0
3.531431422E0,-8.676187694E-2,7.105234861E-1,-1.055181026E0,1.275060095E0
3.533877255E0,-8.309669048E-2,6.818128228E-1,-1.050904989E0,1.255458116E0
3.536322255E0,-7.943149656E-2,6.537130475E-1,-1.044185400E0,1.234493119E0
3.538766474E0,-7.271198928E-2,6.256132722E-1,-1.036855102E0,1.213156009E0
3.541211526E0,-6.660334021E-2,5.999569893E-1,-1.028302908E0,1.192388890E0
3.543657307E0,-5.805123970E-2,5.736897588E-1,-1.017918229E0,1.169892049E0
3.546102359E0,-5.133172497E-2,5.480334759E-1,-1.006311774E0,1.147013088E0
3.548546578E0,-4.644480720E-2,5.260423422E-1,-9.940945506E-1,1.125656094E0
3.550991578E0,-4.216875508E-2,5.077164173E-1,-9.812663794E-1,1.105639124E0
3.553437412E0,-3.789270297E-2,4.900013208E-1,-9.666056037E-1,1.084372420E0
3.555882412E0,-3.117318824E-2,4.759514332E-1,-9.519448876E-1,1.064753776E0
3.558326630E0,-2.811886743E-2,4.649558663E-1,-9.360623956E-1,1.045556042E0
3.560771682E0,-2.506454289E-2,4.576254785E-1,-9.207907915E-1,1.028545085E0
3.563217516E0,-2.384281531E-2,4.521276951E-1,-9.042974114E-1,1.011306947E0
3.565662516E0,-1.956675947E-2,4.502951205E-1,-8.878040910E-1,9.956629237E-1
3.568106734E0,-1.773416623E-2,4.496842623E-1,-8.737542033E-1,9.828412101E-1
3.570551787E0,-1.590157300E-2,4.496842623E-1,-8.597043157E-1,9.703403043E-1
3.572997568E0,-1.284724846E-2,4.509059787E-1,-8.450435400E-1,9.579038772E-1
3.575442620E0,-9.182060137E-3,4.551820457E-1,-8.303827643E-1,9.470008132E-1
3.577886839E0,-3.073413158E-3,4.576254785E-1,-8.199980855E-1,9.390566461E-1
3.580331839E0,3.035234055E-3,4.606798291E-1,-8.108351231E-1,9.325710238E-1
3.582777672E0,6.089557894E-3,4.655667245E-1,-8.041155934E-1,9.291885413E-1
3.585222672E0,1.158734038E-2,4.686210752E-1,-7.992286682E-1,9.265562275E-1
3.587666943E0,1.647425815E-2,4.728971124E-1,-7.992286682E-1,9.288000561E-1
3.590111943E0,2.197204158E-2,4.765623212E-1,-7.980069518E-1,9.297362592E-1
3.592557776E0,2.624809369E-2,4.808383584E-1,-7.986178398E-1,9.325690020E-1
3.595002776E0,3.113501146E-2,4.845035672E-1,-7.998395562E-1,9.356582770E-1
3.597446995E0,3.480019793E-2,4.887796044E-1,-8.035047650E-1,9.411357303E-1
3.599892047E0,3.846538812E-2,4.961099625E-1,-8.065590858E-1,9.477036667E-1
3.602337828E0,4.151971266E-2,5.034403205E-1,-8.102242351E-1,9.547980697E-1
3.604782880E0,4.518489912E-2,5.126033425E-1,-8.108351231E-1,9.603423653E-1
3.607227099E0,5.068268254E-2,5.278749466E-1,-8.108351231E-1,9.688520477E-1
3.609672099E0,5.373700708E-2,5.407031178E-1,-8.114459515E-1,9.765715845E-1
3.612117932E0,5.801305920E-2,5.578073263E-1,-8.083916306E-1,9.838757832E-1
3.614562932E0,5.984565243E-2,5.767441392E-1,-8.047264814E-1,9.918669337E-1
3.617007203E0,6.412170827E-2,5.975134969E-1,-7.998395562E-1,1.000438548E0
3.619452203E0,6.717603654E-2,6.182829142E-1,-7.949526310E-1,1.009324560E0
3.621898037E0,7.206295431E-2,6.372197270E-1,-7.882331014E-1,1.016146383E0
3.624343037E0,7.694987208E-2,6.573782563E-1,-7.802918553E-1,1.023192472E0
3.626787255E0,8.000419289E-2,6.750933528E-1,-7.723506093E-1,1.028920390E0
3.629232307E0,8.611284196E-2,6.909758449E-1,-7.644094229E-1,1.034013929E0
3.631678089E0,9.038889408E-2,6.989170313E-1,-7.564681768E-1,1.033875849E0
3.634123141E0,9.466494620E-2,7.044148445E-1,-7.485269308E-1,1.032208453E0
3.636567359E0,1.001627296E-1,7.031931281E-1,-7.411965132E-1,1.026589216E0
3.639012359E0,1.038279161E-1,6.964735985E-1,-7.338661551E-1,1.017062065E0
3.641458193E0,1.074931026E-1,6.836454272E-1,-7.271466255E-1,1.003826704E0
3.643903245E0,1.136017516E-1,6.677629352E-1,-7.228705883E-1,9.906334251E-1
3.646347464E0,1.178778037E-1,6.500478983E-1,-7.173728347E-1,9.752339364E-1
3.648792464E0,1.197104007E-1,6.280567646E-1,-7.106533051E-1,9.559361901E-1
3.651238297E0,1.215429977E-1,6.066764593E-1,-7.051554918E-1,9.381222171E-1
3.653683297E0,1.233755872E-1,5.840744972E-1,-6.990468502E-1,9.192557058E-1
3.656127516E0,1.258190423E-1,5.633050799E-1,-6.947708130E-1,9.032438912E-1
3.658572568E0,1.270407736E-1,5.431465507E-1,-6.898838878E-1,8.871794138E-1
3.661018349E0,1.300950944E-1,5.217663050E-1,-6.843861341E-1,8.703730184E-1
3.663463401E0,1.325385571E-1,5.016077757E-1,-6.788883209E-1,8.544391038E-1
3.665907620E0,1.362037361E-1,4.826709628E-1,-6.727796793E-1,8.391395670E-1
3.668352672E0,1.380363405E-1,4.637341499E-1,-6.691144705E-1,8.257224520E-1
3.670798453E0,1.398689300E-1,4.460190535E-1,-6.672819257E-1,8.147155835E-1
3.673243505E0,1.392580569E-1,4.301365912E-1,-6.630058289E-1,8.024880202E-1
3.675687724E0,1.392580569E-1,4.124214947E-1,-6.617841125E-1,7.921126859E-1
3.678132724E0,1.398689300E-1,3.965390325E-1,-6.599515080E-1,7.825231721E-1
3.680578557E0,1.398689300E-1,3.806565404E-1,-6.575080752E-1,7.725151056E-1
3.683023557E0,1.374254674E-1,3.647740483E-1,-6.562863588E-1,7.633201492E-1
3.685467776E0,1.362037361E-1,3.488915563E-1,-6.556754708E-1,7.551073426E-1
3.687912828E0,1.331494153E-1,3.330090940E-1,-6.538428664E-1,7.457441367E-1
3.690358662E0,1.307059526E-1,3.177374601E-1,-6.538428664E-1,7.386146719E-1
3.692803662E0,1.288733631E-1,3.042984605E-1,-6.538428664E-1,7.326093029E-1
3.695247880E0,1.282625049E-1,2.902485728E-1,-6.520102620E-1,7.251295650E-1
3.697692932E0,1.282625049E-1,2.786421180E-1,-6.495668292E-1,7.183521182E-1
3.700138714E0,1.245973185E-1,2.645922303E-1,-6.483451128E-1,7.112558790E-1
3.702583766E0,1.233755872E-1,2.499314845E-1,-6.452907920E-1,7.029135713E-1
3.705027984E0,1.215429977E-1,2.352707386E-1,-6.422364712E-1,6.946889272E-1
3.707472984E0,1.190995350E-1,2.212208509E-1,-6.379603744E-1,6.856506424E-1
3.709918818E0,1.172669381E-1,2.053383589E-1,-6.355169415E-1,6.780834457E-1
3.712363818E0,1.148234829E-1,1.864015609E-1,-6.324626207E-1,6.692824073E-1
3.714808089E0,1.136017516E-1,1.692973375E-1,-6.269648075E-1,6.592812877E-1
3.717253089E0,1.111582965E-1,1.509713978E-1,-6.239104867E-1,6.514697424E-1
3.719698922E0,1.099365652E-1,1.326454580E-1,-6.202453375E-1,6.437275391E-1
3.722143922E0,1.087148339E-1,1.161521003E-1,-6.159692407E-1,6.361826239E-1
3.724588141E0,1.074931026E-1,9.965875000E-2,-6.135258079E-1,6.307935878E-1
3.727033193E0,1.038279161E-1,8.560887724E-2,-6.104714870E-1,6.251276290E-1
3.729478974E0,1.019953266E-1,7.278070599E-2,-6.068062782E-1,6.196078898E-1
3.731924026E0,9.771926701E-2,6.239601225E-2,-6.037519574E-1,6.147834933E-1
3.734368245E0,9.344321489E-2,5.628736690E-2,-6.006976366E-1,6.105223605E-1
3.736813245E0,9.099975973E-2,5.017871782E-2,-5.976433158E-1,6.066105776E-1
3.739259078E0,8.977802843E-2,4.834612831E-2,-5.921455622E-1,6.008608901E-1
3.741704130E0,8.916716278E-2,4.651353136E-2,-5.878694654E-1,5.964099260E-1
3.744148349E0,8.916716278E-2,4.956785217E-2,-5.848151445E-1,5.936467874E-1
3.746593349E0,8.977802843E-2,5.078958347E-2,-5.787065029E-1,5.878272643E-1
3.749039182E0,8.916716278E-2,5.811996385E-2,-5.738195777E-1,5.836074202E-1
3.751484182E0,8.733456582E-2,6.545033306E-2,-5.695435405E-1,5.799059553E-1
3.753928401E0,8.611284196E-2,7.461331040E-2,-5.652675033E-1,5.766367296E-1
3.756373453E0,8.489111066E-2,8.683060855E-2,-5.591588616E-1,5.721928764E-1
3.758819234E0,8.366937935E-2,1.014913544E-1,-5.554936528E-1,5.708539729E-1
3.761264287E0,8.428024501E-2,1.155412421E-1,-5.518284440E-1,5.700592688E-1
3.763708505E0,8.244765550E-2,1.338671893E-1,-5.487741232E-1,5.708511877E-1
3.766153557E0,8.244765550E-2,1.528040022E-1,-5.444980860E-1,5.715110188E-1
3.768599339E0,8.183678985E-2,1.723516732E-1,-5.420546532E-1,5.746525963E-1
3.771044391E0,8.061505854E-2,1.912884712E-1,-5.390003324E-1,5.775910536E-1
3.773488609E0,8.122592419E-2,2.120578736E-1,-5.365568399E-1,5.826314744E-1
3.775933609E0,8.122592419E-2,2.309946716E-1,-5.365568399E-1,5.897876156E-1
3.778379443E0,8.061505854E-2,2.480988801E-1,-5.347242355E-1,5.949637384E-1
3.780824443E0,8.000419289E-2,2.652031183E-1,-5.341134071E-1,6.016730811E-1
3.783268662E0,7.878246158E-2,2.786421180E-1,-5.341134071E-1,6.075567775E-1
3.785713714E0,7.817159593E-2,2.896376848E-1,-5.359460115E-1,6.141977810E-1
3.788159547E0,7.633900642E-2,2.988006771E-1,-5.365568399E-1,6.188721443E-1
3.790604547E0,7.572814077E-2,3.055201769E-1,-5.371677279E-1,6.225965770E-1
3.793048766E0,7.633900642E-2,3.110179603E-1,-5.371677279E-1,6.253870669E-1
3.795493818E0,7.633900642E-2,3.146831393E-1,-5.371677279E-1,6.272178968E-1
3.797939599E0,7.633900642E-2,3.189592063E-1,-5.365568399E-1,6.288528140E-1
3.800384651E0,7.633900642E-2,3.244569898E-1,-5.359460115E-1,6.311403246E-1
3.802828870E0,7.878246158E-2,3.287330270E-1,-5.316699147E-1,6.300356954E-1
3.805273870E0,7.817159593E-2,3.360634148E-1,-5.273938775E-1,6.302330674E-1
3.807719703E0,7.511727512E-2,3.446155190E-1,-5.206743479E-1,6.288912764E-1
3.810164703E0,7.206295431E-2,3.531676233E-1,-5.133439898E-1,6.272499433E-1
3.812608974E0,6.839776039E-2,3.623305857E-1,-5.060136318E-1,6.261082195E-1
3.815053974E0,6.656517088E-2,3.721044362E-1,-4.956289530E-1,6.233303237E-1
3.817499807E0,6.351084262E-2,3.776022196E-1,-4.858550727E-1,6.186050558E-1
3.819944807E0,6.045651808E-2,3.831000030E-1,-4.773029685E-1,6.150111598E-1
3.822389026E0,5.984565243E-2,3.855434656E-1,-4.681400061E-1,6.094098221E-1
3.824834078E0,5.495873466E-2,3.879868984E-1,-4.595879018E-1,6.039663363E-1
3.827279859E0,5.190441385E-2,3.861543238E-1,-4.510357976E-1,5.960222485E-1
3.829724912E0,5.007181689E-2,3.843217194E-1,-4.437054098E-1,5.891390850E-1
3.832169130E0,4.579576477E-2,3.806565404E-1,-4.382076263E-1,5.822564535E-1
3.834614130E0,4.151971266E-2,3.776022196E-1,-4.345424473E-1,5.771780153E-1
3.837059964E0,3.418933600E-2,3.751587570E-1,-4.296555221E-1,5.714165480E-1
3.839505016E0,2.991328016E-2,3.702718318E-1,-4.247685969E-1,5.642910549E-1
3.841949234E0,2.624809369E-2,3.678283691E-1,-4.211034179E-1,5.597452636E-1
3.844394234E0,2.258290350E-2,3.647740483E-1,-4.198817015E-1,5.566603427E-1
3.846840068E0,1.891771704E-2,3.623305857E-1,-4.174382389E-1,5.530786713E-1
3.849285068E0,1.341993455E-2,3.598871231E-1,-4.162164927E-1,5.503953168E-1
3.851729287E0,9.143881500E-3,3.568328023E-1,-4.137730598E-1,5.464626286E-1
3.854174339E0,1.202639891E-3,3.537784815E-1,-4.156056345E-1,5.457918135E-1
3.856620120E0,-4.295142367E-3,3.513350189E-1,-4.168273807E-1,5.451603516E-1
3.859065172E0,-9.182060137E-3,3.507241607E-1,-4.162164927E-1,5.443600976E-1
3.861509391E0,-1.345811319E-2,3.501133025E-1,-4.149947762E-1,5.431216343E-1
3.863954443E0,-1.590157300E-2,3.482806981E-1,-4.131621718E-1,5.406064048E-1
3.866400224E0,-2.017762512E-2,3.470589817E-1,-4.094969928E-1,5.371637185E-1
3.868845276E0,-2.262108400E-2,3.452263772E-1,-4.076643884E-1,5.346804827E-1
3.871289495E0,-2.384281531E-2,3.440046608E-1,-4.009448886E-1,5.288331402E-1
3.873734495E0,-2.567540854E-2,3.403394520E-1,-3.960579634E-1,5.228308326E-1
3.876180328E0,-2.323194966E-2,3.354525566E-1,-3.881167173E-1,5.135199388E-1
3.878625328E0,-2.262108400E-2,3.305656314E-1,-3.789537549E-1,5.033798749E-1
3.881069599E0,-2.384281531E-2,3.244569898E-1,-3.697907925E-1,4.925302511E-1
3.883514599E0,-2.506454289E-2,3.177374601E-1,-3.587952256E-1,4.799159706E-1
3.885960432E0,-2.445367724E-2,3.085744977E-1,-3.471888006E-1,4.651411250E-1
3.888405432E0,-2.567540854E-2,3.006332517E-1,-3.355823755E-1,4.512816298E-1
3.890849651E0,-2.506454289E-2,2.933028936E-1,-3.221433461E-1,4.363841818E-1
3.893294703E0,-2.384281531E-2,2.859725058E-1,-3.087043166E-1,4.214820388E-1
3.895740484E0,-2.323194966E-2,2.774204016E-1,-2.952652872E-1,4.058120162E-1
3.898185537E0,-2.078849077E-2,2.688682973E-1,-2.830480039E-1,3.909456422E-1
3.900629755E0,-1.773416623E-2,2.603161931E-1,-2.677763700E-1,3.738759225E-1
3.903074755E0,-1.529070735E-2,2.523749471E-1,-2.537264824E-1,3.581955437E-1
3.905520589E0,-1.345811319E-2,2.450445592E-1,-2.396765798E-1,3.430347209E-1
3.907965641E0,-1.162551902E-2,2.377142012E-1,-2.268484235E-1,3.287908171E-1
3.910409859E0,-1.101465430E-2,2.291620970E-1,-2.109659463E-1,3.116780708E-1
3.912854859E0,-1.101465430E-2,2.267186344E-1,-1.981377900E-1,3.012992625E-1
3.915300693E0,-1.101465430E-2,2.224425673E-1,-1.834770292E-1,2.885582066E-1
3.917745693E0,-1.162551902E-2,2.193882465E-1,-1.669836789E-1,2.759527214E-1
3.920189912E0,-1.529070735E-2,2.163339257E-1,-1.535446644E-1,2.657256802E-1
3.922634964E0,-1.590157300E-2,2.114470154E-1,-1.388839036E-1,2.534786757E-1
3.925080745E0,-1.590157300E-2,2.071709633E-1,-1.260557473E-1,2.430282277E-1
3.927525797E0,-1.529070735E-2,1.973971128E-1,-1.138384566E-1,2.283826177E-1
3.929970016E0,-1.345811319E-2,1.845689565E-1,-1.022320315E-1,2.114195090E-1
3.932415068E0,-1.284724846E-2,1.699082106E-1,-9.429078549E-2,1.947424044E-1
3.934860849E0,-1.223638374E-2,1.534148604E-1,-8.757127821E-2,1.770722373E-1
3.937305901E0,-1.223638374E-2,1.363106519E-1,-8.207349479E-2,1.595818958E-1
3.939750120E0,-1.223638374E-2,1.179847047E-1,-7.718657702E-2,1.415199184E-1
3.942195120E0,-1.284724846E-2,9.965875000E-2,-7.474311441E-2,1.252335873E-1
3.944640953E0,-1.529070735E-2,8.011109382E-2,-6.863447279E-2,1.065940146E-1
3.947085953E0,-1.651243679E-2,6.239601225E-2,-6.619101018E-2,9.245092072E-2
3.949530172E0,-1.651243679E-2,4.651353136E-2,-6.374755502E-2,8.062208096E-2
3.951975224E0,-1.712330058E-2,2.818758786E-2,-6.130409241E-2,6.961278100E-2
3.954421057E0,-1.956675947E-2,1.169424132E-2,-6.069322675E-2,6.483271651E-2
3.956866057E0,-1.956675947E-2,-6.020836066E-3,-5.886063725E-2,6.231920378E-2
3.959310276E0,-1.956675947E-2,-2.312504873E-2,-5.763890594E-2,6.511427979E-2
3.961755328E0,-1.834503189E-2,-3.839666396E-2,-5.702804029E-2,7.115505167E-2
3.964201109E0,-1.773416623E-2,-5.550087988E-2,-5.824977160E-2,8.238861700E-2
3.966646162E0,-1.651243679E-2,-6.955076754E-2,-6.008236110E-2,9.338019035E-2
3.969090380E0,-1.712330058E-2,-8.298978955E-2,-6.619101018E-2,1.075256361E-1
3.971535380E0,-1.773416623E-2,-9.520708770E-2,-7.291052490E-2,1.212222539E-1
3.973981214E0,-1.834503189E-2,-1.062026545E-1,-8.085176349E-2,1.347314057E-1
3.976426214E0,-1.956675947E-2,-1.135330275E-1,-9.123646468E-2,1.469581535E-1
3.978870484E0,-2.201021835E-2,-1.196416691E-1,-1.046754867E-1,1.604853146E-1
3.981315484E0,-2.078849077E-2,-1.226960048E-1,-1.175036430E-1,1.711536651E-1
3.983761318E0,-2.323194966E-2,-1.239177212E-1,-1.315535307E-1,1.822132173E-1
3.986206318E0,-2.262108400E-2,-1.233068630E-1,-1.449925601E-1,1.916745638E-1
3.988650537E0,-2.323194966E-2,-1.165873483E-1,-1.596533060E-1,1.990515295E-1
3.991095589E0,-2.139935642E-2,-1.086461022E-1,-1.743140668E-1,2.065122318E-1
