"Time (s)","Gyroscope x (rad/s)","Gyroscope y (rad/s)","Gyroscope z (rad/s)","Absolute (rad/s)"
1.047425710E-1,-6.902771443E-2,7.024635673E-1,-1.227838024E-1,7.164466141E-1
1.071876230E-1,-6.536252052E-2,6.945223212E-1,-1.252272725E-1,7.087421136E-1
1.096334570E-1,-6.291906536E-2,6.847484708E-1,-1.288924515E-1,6.996088486E-1
1.120785090E-1,-5.803214759E-2,6.731420755E-1,-1.295033246E-1,6.879382931E-1
1.145227790E-1,-5.558868498E-2,6.548161507E-1,-1.282815933E-1,6.695748354E-1
1.169677790E-1,-5.436695740E-2,6.334358454E-1,-1.252272725E-1,6.479804056E-1
1.194136650E-1,-5.375609174E-2,6.083903909E-1,-1.221729442E-1,6.228601877E-1
1.218586650E-1,-5.314522982E-2,5.833449364E-1,-1.178968921E-1,5.975076631E-1
1.243029360E-1,-5.253436416E-2,5.564668775E-1,-1.136208400E-1,5.703726329E-1
1.267479880E-1,-5.192349851E-2,5.259236693E-1,-1.081230566E-1,5.394277996E-1
1.291938210E-1,-5.253436416E-2,5.014891028E-1,-1.020144075E-1,5.144493357E-1
1.316388730E-1,-5.314522982E-2,4.764436483E-1,-9.590576589E-2,4.888976186E-1
1.340830920E-1,-5.192349851E-2,4.538416266E-1,-8.857538551E-2,4.653105100E-1
1.365281440E-1,-4.948003963E-2,4.349048138E-1,-8.307760209E-2,4.455248134E-1
1.389739770E-1,-4.642571509E-2,4.190223515E-1,-7.696895301E-2,4.285548947E-1
1.414190290E-1,-4.276052862E-2,4.031398594E-1,-7.330376655E-2,4.119753042E-1
1.438633000E-1,-4.092793167E-2,3.939768970E-1,-6.963858008E-2,4.021721308E-1
1.463083520E-1,-3.787361085E-2,3.854247928E-1,-6.719511747E-2,3.930672526E-1
1.487541860E-1,-3.787361085E-2,3.774835467E-1,-6.536252797E-2,3.849681786E-1
1.511992380E-1,-3.726274520E-2,3.701531589E-1,-6.352993101E-2,3.774094929E-1
1.536434570E-1,-3.543015197E-2,3.616010547E-1,-6.536252797E-2,3.691651100E-1
1.560885090E-1,-3.665187955E-2,3.542706668E-1,-6.597339362E-2,3.622203119E-1
1.585343420E-1,-3.665187955E-2,3.463294506E-1,-6.658425927E-2,3.545714487E-1
1.609793940E-1,-3.848447651E-2,3.347229958E-1,-6.963858008E-2,3.440495177E-1
1.634236650E-1,-3.848447651E-2,3.225057125E-1,-7.452549785E-2,3.332342110E-1
1.658687170E-1,-4.031706974E-2,3.090666831E-1,-7.819068432E-2,3.213432181E-1
1.683145500E-1,-3.970620409E-2,2.962385416E-1,-8.063414693E-2,3.095734514E-1
1.707596020E-1,-3.970620409E-2,2.821886539E-1,-8.491019905E-2,2.973495602E-1
1.732038210E-1,-4.031706974E-2,2.693604827E-1,-8.979711682E-2,2.867822483E-1
1.756488730E-1,-3.909533843E-2,2.577540576E-1,-9.346230328E-2,2.769490961E-1
1.780947070E-1,-3.848447651E-2,2.485910952E-1,-9.651662409E-2,2.694328233E-1
1.805397590E-1,-3.726274520E-2,2.351520658E-1,-1.001818180E-1,2.583048642E-1
1.829840290E-1,-3.604101390E-2,2.259891033E-1,-1.014035493E-1,2.503052323E-1
1.854290290E-1,-3.298669308E-2,2.174369842E-1,-1.032361388E-1,2.429499215E-1
1.878749150E-1,-3.176496178E-2,2.058305591E-1,-1.026252732E-1,2.321791949E-1
1.903199670E-1,-3.054323420E-2,1.978893131E-1,-1.026252732E-1,2.250000358E-1
1.927641860E-1,-2.932150289E-2,1.887263358E-1,-1.014035493E-1,2.162407458E-1
1.952092380E-1,-2.932150289E-2,1.801742315E-1,-1.007926837E-1,2.085225871E-1
1.976550710E-1,-2.871064097E-2,1.746764481E-1,-9.957095236E-2,2.031022821E-1
2.001001230E-1,-2.687804401E-2,1.673460752E-1,-9.712748975E-2,1.953481185E-1
2.025443420E-1,-2.626718208E-2,1.630700231E-1,-9.346230328E-2,1.897814517E-1
2.049893940E-1,-2.687804401E-2,1.600157022E-1,-9.162971377E-2,1.863423158E-1
2.074352270E-1,-2.565631643E-2,1.545179188E-1,-8.735365421E-2,1.793451831E-1
2.098802790E-1,-2.687804401E-2,1.520744562E-1,-8.368846774E-2,1.756497342E-1
2.123245500E-1,-2.321285754E-2,1.508527249E-1,-8.002328128E-2,1.723342883E-1
2.147696020E-1,-2.443458512E-2,1.453549415E-1,-7.513636351E-2,1.654405666E-1
2.172154360E-1,-2.015853301E-2,1.447440833E-1,-7.086031139E-2,1.624142846E-1
2.196604880E-1,-1.893680543E-2,1.398571581E-1,-6.841684878E-2,1.568422534E-1
2.221047070E-1,-1.710421033E-2,1.392462999E-1,-6.291906536E-2,1.537559587E-1
2.245497590E-1,-1.466075145E-2,1.337485164E-1,-5.864301696E-2,1.467739988E-1
2.269955920E-1,-1.527161710E-2,1.276398748E-1,-5.497782677E-2,1.398131659E-1
2.294406440E-1,-1.160642877E-2,1.221420988E-1,-5.131264031E-2,1.329901822E-1
2.318849150E-1,-1.588248275E-2,1.148117110E-1,-4.825831577E-2,1.255501784E-1
2.343299670E-1,-1.160642877E-2,1.099248007E-1,-4.398225993E-2,1.189647435E-1
2.367758000E-1,-1.466075145E-2,1.032052860E-1,-4.031707346E-2,1.117664310E-1
2.392208520E-1,-1.038469933E-2,1.013726965E-1,-3.726274893E-2,1.085024333E-1
2.416650710E-1,-1.038469933E-2,9.648577124E-2,-3.359756246E-2,1.026944119E-1
2.441101230E-1,-9.162969887E-3,9.465318173E-2,-2.993237227E-2,9.969519416E-2
2.465559570E-1,-6.108645815E-3,9.343145043E-2,-2.809977904E-2,9.775658067E-2
2.490010090E-1,-6.719510537E-3,9.526403993E-2,-2.626718581E-2,9.904723205E-2
2.514452790E-1,-1.221728045E-3,9.404232353E-2,-2.199113369E-2,9.658706536E-2
2.538903320E-1,-3.665186930E-3,9.159886092E-2,-2.138026804E-2,9.413235776E-2
2.563361650E-1,1.221730839E-3,9.282059222E-2,-1.893680915E-2,9.474047555E-2
2.587811650E-1,6.108661182E-4,8.854454011E-2,-1.771507785E-2,9.030134397E-2
2.612254360E-1,4.276054446E-3,8.671195060E-2,-1.649335027E-2,8.837011724E-2
2.636704880E-1,4.886919167E-3,8.304675668E-2,-1.710421592E-2,8.493055974E-2
2.661163210E-1,6.719513331E-3,7.877070457E-2,-1.588248461E-2,8.063640043E-2
2.685613730E-1,9.773837402E-3,7.388377935E-2,-1.649335027E-2,7.633067110E-2
2.710056440E-1,7.330378052E-3,7.021860033E-2,-1.893680915E-2,7.309575238E-2
2.734506440E-1,1.282816008E-2,6.838599592E-2,-1.832594350E-2,7.195169445E-2
2.758964770E-1,1.038470119E-2,6.533167511E-2,-2.076940238E-2,6.933568971E-2
2.783415290E-1,1.588248461E-2,6.533167511E-2,-2.138026804E-2,7.055208680E-2
2.807858000E-1,1.282816008E-2,6.288821250E-2,-2.199113369E-2,6.784614155E-2
2.832308520E-1,1.771507785E-2,6.533167511E-2,-2.260199562E-2,7.136457078E-2
2.856766860E-1,1.527161896E-2,6.105562672E-2,-2.321286127E-2,6.708091255E-2
2.881217380E-1,1.466075517E-2,6.227735430E-2,-2.443459257E-2,6.848690324E-2
2.905659570E-1,1.649335027E-2,6.044476107E-2,-2.504545450E-2,6.747499192E-2
2.930110090E-1,1.466075517E-2,5.739044026E-2,-2.443459257E-2,6.407534385E-2
2.954568420E-1,1.710421406E-2,5.433611199E-2,-2.443459257E-2,6.198400212E-2
2.979018940E-1,1.282816008E-2,4.883832857E-2,-2.504545450E-2,5.636504963E-2
3.003461650E-1,1.649335027E-2,4.700573906E-2,-2.260199562E-2,5.470301924E-2
3.027912170E-1,1.038470119E-2,4.089708999E-2,-2.076940238E-2,4.702958711E-2
3.052370500E-1,1.160643063E-2,3.906449303E-2,-2.015853673E-2,4.546548637E-2
3.076821020E-1,7.941242307E-3,3.478844091E-2,-1.771507785E-2,3.983871150E-2
3.101263210E-1,7.330378052E-3,3.356670961E-2,-1.466075610E-2,3.735500242E-2
3.125713730E-1,6.719513331E-3,3.173412010E-2,-1.160643157E-2,3.445163990E-2
3.150172070E-1,3.054325003E-3,3.417757526E-2,-7.941243239E-3,3.522071686E-2
3.174622590E-1,6.719513331E-3,3.723190352E-2,-3.665191121E-3,3.801052651E-2
3.199065290E-1,1.832595561E-3,3.845363483E-2,-1.832596492E-3,3.854087243E-2
3.223515820E-1,3.054325003E-3,4.272968695E-2,1.221727114E-3,4.285612751E-2
3.247974150E-1,-1.221728045E-3,4.272968695E-2,6.108644884E-3,4.318141161E-2
3.272424150E-1,2.443460282E-3,4.578400776E-2,8.552104235E-3,4.663994373E-2
3.296866860E-1,6.108661182E-4,4.578400776E-2,1.099556312E-2,4.708981771E-2
3.321317380E-1,-1.832592767E-3,4.700573906E-2,1.343902200E-2,4.892346281E-2
3.345775710E-1,-1.832592767E-3,4.761660472E-2,1.527161431E-2,5.003920108E-2
3.370226230E-1,-4.276051652E-3,4.822747037E-2,1.527161431E-2,5.076805806E-2
3.394668940E-1,-2.443457488E-3,5.189265683E-2,1.649334654E-2,5.450549328E-2
3.419118940E-1,-7.941240445E-3,5.128179118E-2,1.710420847E-2,5.463917417E-2
3.443577270E-1,-4.276051652E-3,5.616870895E-2,1.832593977E-2,5.923722269E-2
3.468027790E-1,-9.162969887E-3,5.677957460E-2,1.893680543E-2,6.055148808E-2
3.492470500E-1,-7.330375258E-3,6.105562672E-2,2.015853301E-2,6.471391202E-2
3.516921020E-1,-1.038469933E-2,6.044476107E-2,1.954766735E-2,6.437019823E-2
3.541379360E-1,-9.162969887E-3,6.472081691E-2,1.771507412E-2,6.772420549E-2
3.565829880E-1,-9.773833677E-3,6.410994381E-2,1.649334654E-2,6.691519409E-2
3.590272070E-1,-1.160642877E-2,6.472081691E-2,1.466075052E-2,6.736787763E-2
3.614722590E-1,-9.162969887E-3,6.533167511E-2,1.282815635E-2,6.720676592E-2
3.639180920E-1,-1.343902200E-2,6.594254822E-2,1.038469747E-2,6.809455866E-2
3.663631440E-1,-7.941240445E-3,6.838599592E-2,1.038469747E-2,6.962434689E-2
3.688074150E-1,-1.221729256E-2,6.838599592E-2,8.552104235E-3,6.999317940E-2
3.712524670E-1,-9.773833677E-3,7.144033164E-2,7.941238582E-3,7.254179540E-2
3.736983000E-1,-1.282815821E-2,6.838599592E-2,4.886915442E-3,6.975018297E-2
3.761433520E-1,-9.773833677E-3,6.899686903E-2,4.886915442E-3,6.985683720E-2
3.785875710E-1,-7.941240445E-3,6.960772723E-2,4.276050720E-3,7.018962601E-2
3.810326230E-1,-9.773833677E-3,7.144033164E-2,3.054321278E-3,7.217047657E-2
3.834784570E-1,-7.330375258E-3,7.327292114E-2,2.443456557E-3,7.367920911E-2
3.859235090E-1,-1.099556312E-2,7.510551065E-2,1.832591835E-3,7.592824594E-2
3.883677790E-1,-6.108645815E-3,8.182502538E-2,1.832591835E-3,8.207319127E-2
3.908127790E-1,-9.162969887E-3,8.487934619E-2,6.108623929E-4,8.537468348E-2
3.932586650E-1,-7.330375258E-3,9.098800272E-2,2.443456557E-3,9.131550536E-2
3.957037170E-1,-1.160642877E-2,9.159886092E-2,6.108623929E-4,9.233327495E-2
3.981479360E-1,-1.038469933E-2,9.465318173E-2,-2.328306437E-9,9.522114677E-2
4.005929880E-1,-9.773833677E-3,9.159886092E-2,1.832591835E-3,9.213705845E-2
4.030388210E-1,-1.099556312E-2,9.037712961E-2,2.443456557E-3,9.107633307E-2
4.054838730E-1,-5.497781094E-3,8.671195060E-2,1.832591835E-3,8.690538744E-2
4.079280920E-1,-7.941240445E-3,8.243588358E-2,1.832591835E-3,8.283777275E-2
4.103731440E-1,-3.665186930E-3,8.060329407E-2,3.054321278E-3,8.074437126E-2
4.128189770E-1,-7.330375258E-3,7.815983146E-2,1.832591835E-3,7.852421314E-2
4.152640290E-1,-3.665186930E-3,7.815983146E-2,3.054321278E-3,7.830531098E-2
4.177083000E-1,-4.886916373E-3,7.815983146E-2,3.665185999E-3,7.839818107E-2
4.201533520E-1,-4.276051652E-3,8.182502538E-2,4.886915442E-3,8.208228395E-2
4.225991860E-1,-3.665186930E-3,8.487934619E-2,6.719509605E-3,8.522375734E-2
4.250442380E-1,-7.941240445E-3,8.793366700E-2,6.719509605E-3,8.854685145E-2
4.274884570E-1,-8.552104235E-3,9.282059222E-2,9.162968025E-3,9.366301731E-2
4.299335090E-1,-1.527161710E-2,9.954009205E-2,7.941238582E-3,1.010174019E-1
4.323793420E-1,-1.343902200E-2,1.044270173E-1,1.099556312E-2,1.058608127E-1
4.348243940E-1,-1.832594164E-2,1.062596068E-1,1.160642691E-2,1.084511564E-1
4.372686650E-1,-1.588248275E-2,1.105356589E-1,1.343902200E-2,1.124766307E-1
4.397137170E-1,-1.893680543E-2,1.111465320E-1,1.282815635E-2,1.134756175E-1
4.421595500E-1,-1.710421033E-2,1.129791215E-1,1.282815635E-2,1.149843359E-1
4.446046020E-1,-1.527161710E-2,1.111465320E-1,1.343902200E-2,1.129928368E-1
4.470488210E-1,-1.527161710E-2,1.087030694E-1,1.221729256E-2,1.104483672E-1
4.494938730E-1,-9.162969887E-3,1.038161591E-1,1.343902200E-2,1.050826447E-1
4.519397070E-1,-1.160642877E-2,9.892923385E-2,1.221729256E-2,1.003541964E-1
4.543847590E-1,-4.886916373E-3,9.892923385E-2,1.221729256E-2,9.980048847E-2
4.568290290E-1,-8.552104235E-3,9.526403993E-2,1.160642691E-2,9.634876718E-2
4.592740290E-1,-5.497781094E-3,9.587491304E-2,1.343902200E-2,9.696820025E-2
4.617199150E-1,-7.941240445E-3,9.404232353E-2,1.404988673E-2,9.541709088E-2
4.641649670E-1,-7.330375258E-3,9.648577124E-2,1.343902200E-2,9.769260855E-2
4.666091860E-1,-7.330375258E-3,9.831837565E-2,1.466075052E-2,9.967534799E-2
4.690542380E-1,-7.941240445E-3,9.892923385E-2,1.588248089E-2,1.005102473E-1
4.715000710E-1,-5.497781094E-3,1.013726965E-1,1.771507412E-2,1.030556793E-1
4.739451230E-1,-9.773833677E-3,1.032052860E-1,1.771507412E-2,1.051697805E-1
4.763893420E-1,-6.108645815E-3,1.062596068E-1,2.076939866E-2,1.084425539E-1
4.788343940E-1,-1.221729256E-2,1.044270173E-1,2.076939866E-2,1.071710413E-1
4.812802270E-1,-7.941240445E-3,1.038161591E-1,2.382372320E-2,1.068102428E-1
4.837252790E-1,-1.099556312E-2,1.007618234E-1,2.382372320E-2,1.041221266E-1
4.861695500E-1,-1.038469933E-2,1.007618234E-1,2.565631643E-2,1.044941797E-1
4.886146020E-1,-9.162969887E-3,9.770750254E-2,2.687804401E-2,1.017504070E-1
4.910604360E-1,-1.099556312E-2,9.343145043E-2,2.993236855E-2,9.872327499E-2
4.935054880E-1,-7.941240445E-3,9.037712961E-2,3.115409985E-2,9.592531884E-2
4.959497070E-1,-1.099556312E-2,8.549021930E-2,3.115409985E-2,9.165182999E-2
4.983947590E-1,-6.108645815E-3,8.060329407E-2,3.359755874E-2,8.753857734E-2
5.008405920E-1,-9.773833677E-3,7.449465245E-2,3.359755874E-2,8.230295877E-2
5.032856440E-1,-6.108645815E-3,7.144033164E-2,3.481928632E-2,7.970833857E-2
5.057299150E-1,-8.552104235E-3,6.655340642E-2,3.298669308E-2,7.477042405E-2
5.081749670E-1,-7.330375258E-3,6.410994381E-2,3.481928632E-2,7.332258858E-2
5.106208000E-1,-6.719510537E-3,5.922302976E-2,3.481928632E-2,6.902826795E-2
5.130658520E-1,-7.330375258E-3,5.616870895E-2,3.298669308E-2,6.554982980E-2
5.155100710E-1,-5.497781094E-3,5.250352249E-2,3.420842439E-2,6.290518078E-2
5.179551230E-1,-8.552104235E-3,4.944919422E-2,3.115409985E-2,5.906724332E-2
5.204009570E-1,-4.276051652E-3,4.578400776E-2,3.054323420E-2,5.520280011E-2
5.228460090E-1,-1.038469933E-2,4.028622434E-2,2.871064097E-2,5.054822209E-2
5.252902790E-1,-5.497781094E-3,3.662103787E-2,2.748890966E-2,4.611904342E-2
5.277352790E-1,-7.330375258E-3,2.806892991E-2,2.443458512E-2,3.792951592E-2
5.301811130E-1,-4.886916373E-3,2.440374345E-2,2.138026431E-2,3.281067430E-2
5.326261650E-1,-5.497781094E-3,1.768423244E-2,1.893680543E-2,2.648698310E-2
5.350704360E-1,-6.719510537E-3,1.279731374E-2,1.710420847E-2,2.239368233E-2
5.375154880E-1,-3.665186930E-3,1.035385113E-2,1.527161431E-2,1.881111459E-2
5.399613210E-1,-7.941240445E-3,9.742989205E-3,1.404988673E-2,1.885174940E-2
5.424063730E-1,-3.665186930E-3,1.340817567E-2,1.282815635E-2,1.891492441E-2
5.448505920E-1,-1.038469933E-2,1.462990697E-2,1.282815635E-2,2.205533390E-2
5.472956440E-1,-7.941240445E-3,2.257115021E-2,1.343902200E-2,2.744316735E-2
5.497414770E-1,-1.404988766E-2,2.867979556E-2,1.282815635E-2,3.441644392E-2
5.521865290E-1,-1.160642877E-2,3.662103787E-2,1.404988673E-2,4.090487649E-2
5.546308000E-1,-1.282815821E-2,4.150795564E-2,1.404988673E-2,4.566039139E-2
5.570758520E-1,-1.282815821E-2,4.639487341E-2,1.221729256E-2,4.966193874E-2
5.595216860E-1,-1.099556312E-2,5.006005988E-2,1.282815635E-2,5.283439787E-2
5.619667380E-1,-1.404988766E-2,5.189265683E-2,1.343902200E-2,5.541529111E-2
5.644109570E-1,-9.773833677E-3,5.372524634E-2,1.404988673E-2,5.638554102E-2
5.668560090E-1,-1.343902200E-2,5.006005988E-2,1.343902200E-2,5.354646785E-2
5.693018420E-1,-8.552104235E-3,5.128179118E-2,1.282815635E-2,5.354925012E-2
5.717468940E-1,-1.038469933E-2,5.189265683E-2,1.343902200E-2,5.460125572E-2
5.741911650E-1,-8.552104235E-3,5.616870895E-2,1.527161431E-2,5.883268272E-2
5.766361650E-1,-9.773833677E-3,5.800130591E-2,1.588248089E-2,6.092563099E-2
5.790820500E-1,-9.162969887E-3,6.166649610E-2,1.649334654E-2,6.448834963E-2
5.815270500E-1,-7.330375258E-3,6.288821250E-2,1.710420847E-2,6.558365361E-2
5.839713210E-1,-1.221729256E-2,6.655340642E-2,1.832593977E-2,7.010319687E-2
5.864163730E-1,-7.941240445E-3,7.021860033E-2,1.893680543E-2,7.315953617E-2
5.888622070E-1,-1.221729256E-2,7.021860033E-2,1.893680543E-2,7.374629936E-2
5.913072590E-1,-8.552104235E-3,7.571638376E-2,1.954766735E-2,7.866524363E-2
5.937515290E-1,-1.099556312E-2,7.510551065E-2,2.076939866E-2,7.869630270E-2
5.961965290E-1,-9.162969887E-3,8.060329407E-2,2.138026431E-2,8.389259046E-2
5.986423630E-1,-8.552104235E-3,7.938156277E-2,2.076939866E-2,8.249811462E-2
6.010874150E-1,-9.773833677E-3,8.182502538E-2,2.138026431E-2,8.513505920E-2
6.035316860E-1,-6.108645815E-3,7.999243587E-2,2.015853301E-2,8.271923479E-2
6.059767380E-1,-8.552104235E-3,7.877070457E-2,1.954766735E-2,8.160927450E-2
6.084225710E-1,-2.443457488E-3,7.938156277E-2,2.015853301E-2,8.193759482E-2
6.108676230E-1,-7.330375258E-3,7.815983146E-2,1.893680543E-2,8.075454325E-2
6.133118420E-1,-2.443457488E-3,7.754897326E-2,1.710420847E-2,7.945041023E-2
6.157568940E-1,-6.719510537E-3,7.449465245E-2,1.527161431E-2,7.634020742E-2
6.182027270E-1,-3.665186930E-3,7.571638376E-2,1.466075052E-2,7.720972717E-2
6.206477790E-1,-3.054322209E-3,7.144033164E-2,1.343902200E-2,7.275752319E-2
6.230920500E-1,-3.054322209E-3,6.838599592E-2,1.282815635E-2,6.964578177E-2
6.255371020E-1,-3.665186930E-3,6.349908561E-2,1.221729256E-2,6.476750501E-2
6.279829360E-1,-7.330375258E-3,5.800130591E-2,1.038469747E-2,5.937783955E-2
6.304279360E-1,-3.665186930E-3,5.189265683E-2,1.038469747E-2,5.304831166E-2
6.328722070E-1,-7.941240445E-3,4.639487341E-2,8.552104235E-3,4.784021389E-2
6.353172590E-1,-4.276051652E-3,4.334054515E-2,8.552104235E-3,4.438272139E-2
6.377630920E-1,-9.162969887E-3,3.906449303E-2,8.552104235E-3,4.102600541E-2
6.402081440E-1,-4.886916373E-3,4.028622434E-2,6.719509605E-3,4.113409331E-2
6.426523630E-1,-4.886916373E-3,4.211882129E-2,6.719509605E-3,4.293051209E-2
6.450974150E-1,-7.941240445E-3,4.883832857E-2,7.330374327E-3,5.001979633E-2
6.475433000E-1,-8.552104235E-3,5.494697765E-2,6.719509605E-3,5.601303999E-2
6.499883000E-1,-1.221729256E-2,6.288821250E-2,4.886915442E-3,6.425006966E-2
6.524325710E-1,-8.552104235E-3,7.327292114E-2,4.276050720E-3,7.389414097E-2
6.548776230E-1,-1.282815821E-2,7.877070457E-2,2.443456557E-3,7.984582657E-2
6.573234570E-1,-7.941240445E-3,8.610107750E-2,1.832591835E-3,8.648593665E-2
6.597685090E-1,-1.221729256E-2,9.098800272E-2,6.108623929E-4,9.180660123E-2
6.622127270E-1,-8.552104235E-3,9.954009205E-2,-1.221731771E-3,9.991426845E-2
6.646577790E-1,-9.162969887E-3,1.019835547E-1,-3.665191121E-3,1.024599388E-1
6.671036130E-1,-7.330375258E-3,1.062596068E-1,-5.497784354E-3,1.066539454E-1
6.695486650E-1,-7.330375258E-3,1.099248007E-1,-6.108650006E-3,1.103381702E-1
6.719929360E-1,-1.160642877E-2,1.154225841E-1,-7.330379449E-3,1.162360382E-1
6.744379880E-1,-6.719510537E-3,1.209203675E-1,-7.941243239E-3,1.213670073E-1
6.768838210E-1,-1.160642877E-2,1.233638301E-1,-9.773838334E-3,1.242934902E-1
6.793288210E-1,-9.162969887E-3,1.306941956E-1,-9.162972681E-3,1.313350405E-1
6.817730920E-1,-1.404988766E-2,1.325267851E-1,-8.552108891E-3,1.335435760E-1
6.842181440E-1,-1.160642877E-2,1.337485164E-1,-9.773838334E-3,1.346064737E-1
6.866639770E-1,-1.404988766E-2,1.361919791E-1,-1.038470212E-2,1.373080352E-1
6.891090290E-1,-1.588248275E-2,1.368028373E-1,-8.552108891E-3,1.379869853E-1
6.915532480E-1,-1.710421033E-2,1.331376582E-1,-4.886920564E-3,1.343207804E-1
6.939983000E-1,-2.199112624E-2,1.306941956E-1,-5.497784354E-3,1.326454222E-1
6.964441860E-1,-2.076939866E-2,1.270290017E-1,-3.665191121E-3,1.287678874E-1
6.988891860E-1,-2.565631643E-2,1.215312257E-1,-2.443461679E-3,1.242338758E-1
7.013334570E-1,-2.199112624E-2,1.178660467E-1,6.108623929E-4,1.199015753E-1
7.037785090E-1,-3.054323420E-2,1.135899946E-1,1.221727114E-3,1.176310701E-1
7.062243420E-1,-2.932150289E-2,1.123682633E-1,6.108644884E-3,1.162914127E-1
7.086693940E-1,-3.481928632E-2,1.093139425E-1,5.497780163E-3,1.148570690E-1
7.111136130E-1,-3.726274520E-2,1.099248007E-1,8.552104235E-3,1.163834717E-1
7.135586650E-1,-3.787361085E-2,1.117573902E-1,1.038469747E-2,1.184566022E-1
7.160044980E-1,-4.337139428E-2,1.148117110E-1,1.282815635E-2,1.233992238E-1
7.184495500E-1,-4.520398751E-2,1.184769049E-1,1.527161431E-2,1.277239198E-1
7.208938210E-1,-4.886917397E-2,1.227529570E-1,1.649334654E-2,1.331484702E-1
7.233388730E-1,-5.253436416E-2,1.288616061E-1,1.771507412E-2,1.402818477E-1
7.257847070E-1,-5.558868498E-2,1.325267851E-1,1.893680543E-2,1.449553492E-1
7.282297590E-1,-5.925387517E-2,1.392462999E-1,2.138026431E-2,1.528321610E-1
7.306739770E-1,-6.230819970E-2,1.423006207E-1,2.260199189E-2,1.569797071E-1
7.331190290E-1,-6.047560275E-2,1.459658146E-1,2.138026431E-2,1.594378665E-1
7.355648630E-1,-6.230819970E-2,1.471875459E-1,2.321285754E-2,1.615095111E-1
7.380099150E-1,-6.230819970E-2,1.490201354E-1,2.321285754E-2,1.631813386E-1
7.404541860E-1,-6.047560275E-2,1.477984041E-1,2.321285754E-2,1.613707022E-1
7.428991860E-1,-5.803214759E-2,1.490201354E-1,2.199112624E-2,1.614259599E-1
7.453450710E-1,-5.436695740E-2,1.508527249E-1,2.138026431E-2,1.617696707E-1
7.477900710E-1,-5.192349851E-2,1.539070457E-1,2.076939866E-2,1.637522407E-1
7.502343420E-1,-4.825831205E-2,1.575722396E-1,2.076939866E-2,1.661001003E-1
7.526793940E-1,-4.337139428E-2,1.630700231E-1,1.954766735E-2,1.698676590E-1
7.551252270E-1,-3.726274520E-2,1.697895378E-1,1.771507412E-2,1.747307162E-1
7.575702790E-1,-3.359755874E-2,1.771199107E-1,1.588248089E-2,1.809765508E-1
7.600144980E-1,-2.809977531E-2,1.862828881E-1,1.466075052E-2,1.889599147E-1
7.624595500E-1,-2.504545078E-2,1.972784400E-1,1.160642691E-2,1.992003179E-1
7.649053840E-1,-2.076939866E-2,2.064414173E-1,1.099556312E-2,2.077747076E-1
7.673504360E-1,-1.527161710E-2,2.107174695E-1,9.162968025E-3,2.114687547E-1
7.697947070E-1,-1.038469933E-2,2.125500590E-1,6.108644884E-3,2.128912518E-1
7.722397590E-1,-6.108645815E-3,2.125500590E-1,5.497780163E-3,2.127088825E-1
7.746855920E-1,-1.832592767E-3,2.070522904E-1,3.054321278E-3,2.070829260E-1
7.771306440E-1,3.054325003E-3,2.015545070E-1,1.832591835E-3,2.015859782E-1
7.795748630E-1,9.162971750E-3,1.911697984E-1,1.221727114E-3,1.913931673E-1
7.820199150E-1,1.466075517E-2,1.807851046E-1,-6.108670495E-4,1.813796156E-1
7.844657480E-1,1.954767480E-2,1.673460752E-1,-3.665191121E-3,1.685237493E-1
7.869108000E-1,2.504545450E-2,1.532961875E-1,-6.108650006E-3,1.554487424E-1
7.893550710E-1,2.932151034E-2,1.404680312E-1,-7.941243239E-3,1.437152813E-1
7.918000710E-1,3.237583116E-2,1.270290017E-1,-1.038470212E-2,1.315005846E-1
7.942459570E-1,3.909534588E-2,1.135899946E-1,-1.221729722E-2,1.207493076E-1
7.966909570E-1,4.031707346E-2,1.019835547E-1,-1.343902666E-2,1.104840227E-1
7.991352270E-1,4.153880477E-2,8.976627141E-2,-1.710421592E-2,1.003793305E-1
8.015802790E-1,4.398226365E-2,7.449465245E-2,-2.015853673E-2,8.882713191E-2
8.040261130E-1,4.642572254E-2,6.044476107E-2,-2.443459257E-2,8.003727986E-2
8.064711650E-1,4.948004335E-2,4.272968695E-2,-2.993237227E-2,7.190304407E-2
8.089153840E-1,4.948004335E-2,2.379287779E-2,-3.543015569E-2,6.534272459E-2
8.113604360E-1,5.070177466E-2,3.634340363E-3,-4.031707346E-2,6.487946359E-2
8.138062690E-1,4.948004335E-2,-1.285900641E-2,-4.520399123E-2,6.824243225E-2
8.162513210E-1,5.131264031E-2,-3.118494712E-2,-5.070177466E-2,7.858853565E-2
8.186955920E-1,5.253436789E-2,-4.523483664E-2,-5.742128566E-2,9.001807764E-2
8.211406440E-1,5.253436789E-2,-5.806299299E-2,-6.352993101E-2,1.008326490E-1
8.235864770E-1,5.681042373E-2,-6.905855983E-2,-7.086031139E-2,1.140951036E-1
8.260315290E-1,5.864301696E-2,-7.638893276E-2,-7.696895301E-2,1.232821650E-1
8.284757480E-1,6.536252797E-2,-8.066498488E-2,-8.552106470E-2,1.345100456E-1
8.309208000E-1,7.513636351E-2,-8.371931314E-2,-9.224057198E-2,1.454741201E-1
8.333666340E-1,8.368846774E-2,-8.188671619E-2,-9.834922105E-2,1.529109650E-1
8.358116860E-1,9.407316893E-2,-7.944326103E-2,-1.026252732E-1,1.602901729E-1
8.382559570E-1,1.056796014E-1,-7.272375375E-2,-1.081230566E-1,1.677722202E-1
8.407009570E-1,1.203403547E-1,-6.783682853E-2,-1.111773849E-1,1.773246942E-1
8.431467900E-1,1.319467723E-1,-6.356077641E-2,-1.136208400E-1,1.853634762E-1
8.455918420E-1,1.453858018E-1,-6.111731753E-2,-1.154534370E-1,1.954529457E-1
8.480361130E-1,1.582139581E-1,-6.233904883E-2,-1.148425713E-1,2.051990004E-1
8.504811650E-1,1.722638458E-1,-6.417164207E-2,-1.136208400E-1,2.161076757E-1
8.529269980E-1,1.857028753E-1,-6.661509722E-2,-1.111773849E-1,2.264586937E-1
8.553720500E-1,1.991418898E-1,-7.150202245E-2,-1.069013253E-1,2.370610150E-1
8.578162690E-1,2.125809193E-1,-7.699980587E-2,-1.026252732E-1,2.482973299E-1
8.602613210E-1,2.272416651E-1,-8.433017880E-2,-9.590576589E-2,2.606688884E-1
8.627071540E-1,2.412915677E-1,-9.349314868E-2,-8.918625116E-2,2.737092926E-1
8.651522070E-1,2.559522986E-1,-1.026561186E-1,-8.246673644E-2,2.878378371E-1
8.675964770E-1,2.700021863E-1,-1.130408272E-1,-7.330376655E-2,3.017496502E-1
8.700415290E-1,2.840520740E-1,-1.277015805E-1,-6.352993101E-2,3.178511075E-1
8.724873630E-1,2.956584990E-1,-1.435840577E-1,-5.436696112E-2,3.331457581E-1
8.749324150E-1,3.072649240E-1,-1.588556916E-1,-4.459312558E-2,3.487626860E-1
8.773766340E-1,3.158170283E-1,-1.753490269E-1,-3.665188700E-2,3.630854409E-1
8.798216860E-1,3.219256997E-1,-1.942858398E-1,-2.809977904E-2,3.770580078E-1
8.822675190E-1,3.274234831E-1,-2.113900483E-1,-2.076940238E-2,3.902861231E-1
8.847125710E-1,3.329212666E-1,-2.309377193E-1,-1.466075610E-2,4.054426442E-1
8.871567900E-1,3.378081620E-1,-2.474310696E-1,-9.162972681E-3,4.188322440E-1
8.896018420E-1,3.433059454E-1,-2.639244199E-1,-3.054325469E-3,4.330408762E-1
8.920477270E-1,3.494145870E-1,-2.791960239E-1,1.221727114E-3,4.472610714E-1
8.944927270E-1,3.543015122E-1,-2.926350534E-1,3.665185999E-3,4.595413688E-1
8.969369980E-1,3.585775793E-1,-3.066849411E-1,4.886915442E-3,4.718658870E-1
8.993820500E-1,3.634645045E-1,-3.225674331E-1,4.886915442E-3,4.859836179E-1
9.018278840E-1,3.683513999E-1,-3.421151042E-1,4.276050720E-3,5.027362956E-1
9.042729360E-1,3.744600415E-1,-3.628844917E-1,3.054321278E-3,5.214545099E-1
9.067171540E-1,3.775143921E-1,-3.854864836E-1,1.832591835E-3,5.395556539E-1
9.091622070E-1,3.824012876E-1,-4.086993635E-1,-1.832596492E-3,5.597046300E-1
9.116080400E-1,3.866773546E-1,-4.343556762E-1,-4.886920564E-3,5.815566283E-1
9.140530920E-1,3.921751380E-1,-4.563468099E-1,-6.719513796E-3,6.017465427E-1
9.164973630E-1,3.952294588E-1,-4.752836227E-1,-9.162972681E-3,6.182109731E-1
9.189424150E-1,3.988946378E-1,-4.911660850E-1,-1.038470212E-2,6.328261192E-1
9.213882480E-1,4.025598466E-1,-5.027725101E-1,-1.099556778E-2,6.441704196E-1
9.238333000E-1,4.068358839E-1,-5.088811517E-1,-1.221729722E-2,6.516323544E-1
9.262775190E-1,4.105010629E-1,-5.101028681E-1,-1.221729722E-2,6.548780963E-1
9.287225710E-1,4.129445255E-1,-5.064377189E-1,-1.099556778E-2,6.535466676E-1
9.311684040E-1,4.147771299E-1,-5.027725101E-1,-1.221729722E-2,6.518968681E-1
9.336134570E-1,4.196640551E-1,-4.948312938E-1,-1.099556778E-2,6.489197416E-1
9.360577270E-1,4.221074879E-1,-4.893335104E-1,-1.160643157E-2,6.463410284E-1
9.385027790E-1,4.245509505E-1,-4.832248390E-1,-1.099556778E-2,6.433277991E-1
9.409486130E-1,4.276052713E-1,-4.783379436E-1,-8.552108891E-3,6.416592514E-1
9.433936130E-1,4.294378757E-1,-4.752836227E-1,-7.941243239E-3,6.406047725E-1
9.458378840E-1,4.306596220E-1,-4.752836227E-1,-6.108650006E-3,6.414043558E-1
9.482829360E-1,4.349356592E-1,-4.758944809E-1,-5.497784354E-3,6.447284779E-1
9.507287690E-1,4.343248010E-1,-4.758944809E-1,-3.665191121E-3,6.443035180E-1
9.531738210E-1,4.386008382E-1,-4.758944809E-1,-1.832596492E-3,6.471859166E-1
9.556180400E-1,4.392117262E-1,-4.765053391E-1,2.443456557E-3,6.480511161E-1
9.580630920E-1,4.428769052E-1,-4.734510183E-1,5.497780163E-3,6.483255706E-1
9.605089250E-1,4.459312260E-1,-4.697858393E-1,9.162968025E-3,6.477942213E-1
9.629539770E-1,4.495964050E-1,-4.618445933E-1,1.343902200E-2,6.446843903E-1
9.653982480E-1,4.520398676E-1,-4.508490264E-1,1.893680543E-2,6.387201963E-1
9.678433000E-1,4.538724720E-1,-4.392426014E-1,2.138026431E-2,6.319742079E-1
9.702891340E-1,4.557050765E-1,-4.282470345E-1,2.565631643E-2,6.258760947E-1
9.727341860E-1,4.575376511E-1,-4.123645425E-1,2.932150289E-2,6.166400640E-1
9.751784040E-1,4.587593973E-1,-4.001472592E-1,3.054323420E-2,6.095169422E-1
9.776234570E-1,4.593702555E-1,-3.891516924E-1,3.237582743E-2,6.029164664E-1
9.800692900E-1,4.593702555E-1,-3.781561255E-1,3.237582743E-2,5.958785792E-1
9.825143420E-1,4.605919719E-1,-3.702148795E-1,3.115409985E-2,5.917555234E-1
9.849585610E-1,4.599811137E-1,-3.628844917E-1,3.054323420E-2,5.866861754E-1
9.874036130E-1,4.593702555E-1,-3.555541337E-1,2.748890966E-2,5.815457108E-1
9.898494460E-1,4.593702555E-1,-3.506672084E-1,2.443458512E-2,5.784337228E-1
9.922944980E-1,4.563159347E-1,-3.463911414E-1,1.954766735E-2,5.732304653E-1
9.947387690E-1,4.544833302E-1,-3.427259624E-1,1.527161431E-2,5.694290166E-1
9.971838210E-1,4.508181512E-1,-3.408933580E-1,9.773833677E-3,5.652794131E-1
9.996296540E-1,4.440986216E-1,-3.396716416E-1,4.276050720E-3,5.591231478E-1
1.002074707E0,4.410443008E-1,-3.390607834E-1,6.108623929E-4,5.563116602E-1
1.004518925E0,4.392117262E-1,-3.329521418E-1,-6.108650006E-3,5.511818073E-1
1.006963977E0,4.367682636E-1,-3.189022541E-1,-9.773838334E-3,5.408887979E-1
1.009409811E0,4.337139428E-1,-2.956893742E-1,-1.404989045E-2,5.251070268E-1
1.011854863E0,4.318813384E-1,-2.730873823E-1,-1.649335027E-2,5.112438160E-1
1.014299134E0,4.306596220E-1,-2.553723156E-1,-1.954767480E-2,5.010637097E-1
1.016744186E0,4.288270175E-1,-2.425441444E-1,-2.321286127E-2,4.932130472E-1
1.019190019E0,4.312704802E-1,-2.321594507E-1,-2.626718581E-2,4.904917967E-1
1.021635019E0,4.349356592E-1,-2.266616672E-1,-2.871064469E-2,4.912930288E-1
1.024079290E0,4.361574054E-1,-2.199421525E-1,-3.237583116E-2,4.895467569E-1
1.026524342E0,4.386008382E-1,-2.107791901E-1,-3.604102135E-2,4.879523721E-1
1.028970175E0,4.404334426E-1,-2.010053545E-1,-4.153880477E-2,4.859117638E-1
1.031415227E0,4.416551888E-1,-1.893989146E-1,-4.703658447E-2,4.828495572E-1
1.033859446E0,4.416551888E-1,-1.765707582E-1,-5.253436789E-2,4.785356813E-1
1.036304498E0,4.416551888E-1,-1.619100124E-1,-5.864301696E-2,4.740391981E-1
1.038750332E0,4.398225844E-1,-1.454166621E-1,-6.414079666E-2,4.676579446E-1
1.041195384E0,4.386008382E-1,-1.283124387E-1,-7.147117704E-2,4.625396268E-1
1.043639654E0,4.349356592E-1,-1.112082228E-1,-7.941241562E-2,4.558976071E-1
1.046084707E0,4.306596220E-1,-9.838006645E-2,-8.613193035E-2,4.500722796E-1
1.048530540E0,4.300487339E-1,-8.494103700E-2,-9.346230328E-2,4.482098788E-1
1.050975592E0,4.257726967E-1,-7.089114934E-2,-9.957095236E-2,4.429698849E-1
1.053419811E0,4.227183759E-1,-6.294991076E-2,-1.032361388E-1,4.396717150E-1
1.055864863E0,4.214966297E-1,-5.745213106E-2,-1.075121909E-1,4.387699026E-1
1.058310696E0,4.202749133E-1,-5.134348199E-2,-1.123991087E-1,4.380647390E-1
1.060755748E0,4.214966297E-1,-4.951088876E-2,-1.123991087E-1,4.390265329E-1
1.063200019E0,4.227183759E-1,-5.073262006E-2,-1.142317057E-1,4.408100573E-1
1.065645019E0,4.233292341E-1,-5.134348199E-2,-1.130099744E-1,4.411519556E-1
1.068090904E0,4.263835549E-1,-5.439780653E-2,-1.123991087E-1,4.442922652E-1
1.070535904E0,4.282161593E-1,-5.806299299E-2,-1.105665192E-1,4.460553166E-1
1.072980175E0,4.306596220E-1,-5.928472430E-2,-1.075121909E-1,4.478183334E-1
1.075425227E0,4.312704802E-1,-6.050645560E-2,-1.032361388E-1,4.475633571E-1
1.077871061E0,4.349356592E-1,-5.684126541E-2,-1.001818180E-1,4.499292764E-1
1.080316113E0,4.367682636E-1,-5.317607522E-2,-9.712748975E-2,4.505862407E-1
1.082760332E0,4.398225844E-1,-5.134348199E-2,-9.285143763E-2,4.524394416E-1
1.085205384E0,4.386008382E-1,-4.706742987E-2,-8.857538551E-2,4.499240348E-1
1.087651217E0,4.404334426E-1,-4.340223968E-2,-8.613193035E-2,4.508703596E-1
1.090096269E0,4.373791218E-1,-4.156964645E-2,-8.491019905E-2,4.474799142E-1
1.092540540E0,4.349356592E-1,-3.851532191E-2,-8.368846774E-2,4.445854443E-1
1.094985592E0,4.343248010E-1,-3.362840414E-2,-8.307760209E-2,4.434758057E-1
1.097431425E0,4.331030548E-1,-3.240667656E-2,-8.368846774E-2,4.423032991E-1
1.099876477E0,4.318813384E-1,-3.362840414E-2,-8.552106470E-2,4.415497848E-1
1.102320696E0,4.300487339E-1,-3.485013545E-2,-8.735365421E-2,4.402125696E-1
1.104765748E0,4.276052713E-1,-3.668272868E-2,-8.979711682E-2,4.384693978E-1
1.107211582E0,4.263835549E-1,-4.095878452E-2,-9.346230328E-2,4.384241783E-1
1.109656634E0,4.227183759E-1,-4.645656422E-2,-9.712748975E-2,4.362141526E-1
1.112100904E0,4.221074879E-1,-5.378694087E-2,-9.896008670E-2,4.368762584E-1
1.114545904E0,4.208857715E-1,-6.172818318E-2,-1.032361388E-1,4.377361096E-1
1.116991790E0,4.196640551E-1,-6.905855983E-2,-1.075121909E-1,4.386865339E-1
1.119436790E0,4.178314507E-1,-7.761066407E-2,-1.111773849E-1,4.392800329E-1
1.121881061E0,4.153879881E-1,-8.799536526E-2,-1.123991087E-1,4.392310606E-1
1.124326113E0,4.129445255E-1,-9.715833515E-2,-1.160642952E-1,4.398111456E-1
1.126771946E0,4.111119509E-1,-1.069321707E-1,-1.172860265E-1,4.406853041E-1
1.129216998E0,4.074467421E-1,-1.148734167E-1,-1.185077578E-1,4.396053209E-1
1.131661217E0,4.050032794E-1,-1.209820583E-1,-1.209512129E-1,4.396515788E-1
1.134106269E0,4.025598466E-1,-1.277015805E-1,-1.215620711E-1,4.394763486E-1
1.136552102E0,3.976729214E-1,-1.270907223E-1,-1.221729442E-1,4.349965890E-1
1.138997154E0,3.909533918E-1,-1.264798492E-1,-1.233946756E-1,4.290314123E-1
1.141441425E0,3.854556084E-1,-1.240363792E-1,-1.246164069E-1,4.236629536E-1
1.143886477E0,3.793469667E-1,-1.160951480E-1,-1.252272725E-1,4.160097046E-1
1.146332311E0,3.744600415E-1,-1.099864915E-1,-1.246164069E-1,4.096908589E-1
1.148777311E0,3.659079373E-1,-1.032669917E-1,-1.270598620E-1,4.008701768E-1
1.151221582E0,3.591884375E-1,-9.715833515E-2,-1.282815933E-1,3.935889263E-1
1.153666634E0,3.524689376E-1,-8.982796222E-2,-1.288924515E-1,3.858972387E-1
1.156112467E0,3.457494080E-1,-8.371931314E-2,-1.301141828E-1,3.787892252E-1
1.158557519E0,3.384190500E-1,-7.761066407E-2,-1.325576454E-1,3.716482180E-1
1.161001738E0,3.316995203E-1,-7.394547760E-2,-1.319467872E-1,3.645578968E-1
1.163446790E0,3.255908787E-1,-7.028029114E-2,-1.319467872E-1,3.582718162E-1
1.165892623E0,3.176496327E-1,-6.233904883E-2,-1.337793767E-1,3.502632835E-1
1.168337675E0,3.103192449E-1,-5.806299299E-2,-1.343902349E-1,3.431181723E-1
1.170781946E0,3.035997450E-1,-5.195434764E-2,-1.325576454E-1,3.353260932E-1
1.173226998E0,2.950476408E-1,-4.401310533E-2,-1.319467872E-1,3.261904634E-1
1.175672832E0,2.864955366E-1,-3.546100110E-2,-1.313359141E-1,3.171534288E-1
1.178117884E0,2.761108279E-1,-2.874148823E-2,-1.288924515E-1,3.060662126E-1
1.180562102E0,2.663370073E-1,-2.018938214E-2,-1.258381307E-1,2.952596277E-1
1.183007154E0,2.571740150E-1,-1.102641318E-2,-1.215620711E-1,2.846706745E-1
1.185452988E0,2.492327988E-1,-1.863441197E-3,-1.191186234E-1,2.762421164E-1
1.187898040E0,2.388481051E-1,5.466933362E-3,-1.142317057E-1,2.648153833E-1
1.190342311E0,2.266308069E-1,1.279731374E-2,-1.105665192E-1,2.524881167E-1
1.192787311E0,2.162461132E-1,2.318201214E-2,-1.081230566E-1,2.428793580E-1
1.195233196E0,2.070831358E-1,2.990152314E-2,-1.020144075E-1,2.327755691E-1
1.197678196E0,1.960875690E-1,3.845363483E-2,-9.773835540E-2,2.224450558E-1
1.200122467E0,1.844811440E-1,4.517314211E-2,-9.224057198E-2,2.111450410E-1
1.202567519E0,1.722638458E-1,5.067092553E-2,-8.552106470E-2,1.988874751E-1
1.205013352E0,1.600465477E-1,5.677957460E-2,-8.124501258E-2,1.882540028E-1
1.207458404E0,1.478292644E-1,6.166649610E-2,-7.757981867E-2,1.779743701E-1
1.209902623E0,1.368336976E-1,6.288821250E-2,-7.147117704E-2,1.666928829E-1
1.212347675E0,1.246164069E-1,6.410994381E-2,-6.780598313E-2,1.556823211E-1
1.214793509E0,1.123991087E-1,5.983389542E-2,-6.414079666E-2,1.425752309E-1
1.217238561E0,1.007926837E-1,5.616870895E-2,-6.047561392E-2,1.302742830E-1
1.219682832E0,8.918625116E-2,5.067092553E-2,-5.925388262E-2,1.184599202E-1
1.222127884E0,7.696896046E-2,4.150795564E-2,-5.742128566E-2,1.046151772E-1
1.224573717E0,6.291906536E-2,3.356670961E-2,-5.558869243E-2,9.041922088E-2
1.227018717E0,5.070177466E-2,2.196028456E-2,-5.497782677E-2,7.794540069E-2
1.229462988E0,3.787361458E-2,9.742989205E-3,-5.436696112E-2,6.697091146E-2
1.231908040E0,2.443459257E-2,-3.696036292E-3,-5.375609547E-2,5.916441328E-2
1.234353873E0,9.773837402E-3,-1.774592325E-2,-5.253436789E-2,5.630546598E-2
1.236798925E0,-3.665186930E-3,-2.935235202E-2,-5.253436789E-2,6.028975016E-2
1.239243196E0,-1.466075145E-2,-4.156964645E-2,-5.131264031E-2,6.764584388E-2
1.241688196E0,-2.809977531E-2,-5.256521329E-2,-5.131264031E-2,7.864913271E-2
1.244134029E0,-3.848447651E-2,-5.928472430E-2,-5.009090900E-2,8.663043710E-2
1.246579082E0,-4.520398751E-2,-6.356077641E-2,-4.948004335E-2,9.236691764E-2
1.249023352E0,-5.925387517E-2,-6.783682853E-2,-4.642572254E-2,1.013321506E-1
1.251468404E0,-6.902771443E-2,-6.600423902E-2,-4.459312558E-2,1.054036611E-1
1.253914238E0,-7.574722171E-2,-6.417164207E-2,-4.398225993E-2,1.085821368E-1
1.256359290E0,-8.674278855E-2,-6.111731753E-2,-4.398225993E-2,1.148654737E-1
1.258803509E0,-9.285143763E-2,-5.378694087E-2,-4.337139800E-2,1.157389418E-1
1.261248561E0,-1.050687283E-1,-4.706742987E-2,-4.214966670E-2,1.226025083E-1
1.263694394E0,-1.087339148E-1,-3.668272868E-2,-4.031707346E-2,1.216312181E-1
1.266139446E0,-1.209512129E-1,-2.874148823E-2,-4.092793912E-2,1.308830213E-1
1.268583717E0,-1.258381307E-1,-1.713505760E-2,-4.153880477E-2,1.336200496E-1
1.271028717E0,-1.368336976E-1,-8.582954295E-3,-4.153880477E-2,1.432571122E-1
1.273474602E0,-1.472184062E-1,2.412612783E-3,-4.214966670E-2,1.531524542E-1
1.275919602E0,-1.569922417E-1,9.132123552E-3,-4.214966670E-2,1.628083353E-1
1.278363873E0,-1.685986668E-1,1.707336679E-2,-4.398225993E-2,1.750755536E-1
1.280808925E0,-1.765399128E-1,2.562547103E-2,-4.337139800E-2,1.835867200E-1
1.283254759E0,-1.918115318E-1,3.295585141E-2,-4.214966670E-2,1.991339907E-1
1.285699811E0,-1.991419047E-1,4.211882129E-2,-3.909534216E-2,2.072677956E-1
1.288144029E0,-2.156352550E-1,4.944919422E-2,-3.787361458E-2,2.244508781E-1
1.290589082E0,-2.241873592E-1,5.861216411E-2,-3.176496923E-2,2.338896558E-1
1.293034915E0,-2.382372469E-1,6.472081691E-2,-2.748891339E-2,2.483976858E-1
1.295479967E0,-2.486219555E-1,7.571638376E-2,-2.199113369E-2,2.608245723E-1
1.297924238E0,-2.577849329E-1,8.671195060E-2,-1.466075610E-2,2.723728543E-1
1.300369290E0,-2.681696415E-1,9.831837565E-2,-6.108650006E-3,2.856899984E-1
1.302815123E0,-2.742782831E-1,1.074813381E-1,3.665185999E-3,2.946086357E-1
1.305260123E0,-2.858847082E-1,1.172551736E-1,1.099556312E-2,3.091920835E-1
1.307704394E0,-2.895498872E-1,1.282507330E-1,2.076939866E-2,3.173621836E-1
1.310149446E0,-3.017672002E-1,1.331376582E-1,2.809977531E-2,3.310267007E-1
1.312595279E0,-3.048215210E-1,1.398571581E-1,3.787361085E-2,3.375064366E-1
1.315040332E0,-3.158170879E-1,1.435223520E-1,4.642571509E-2,3.499920650E-1
1.317484550E0,-3.200931251E-1,1.490201354E-1,5.375609547E-2,3.571502867E-1
1.319929602E0,-3.280343711E-1,1.514635980E-1,6.108646840E-2,3.664414371E-1
1.322375436E0,-3.341430128E-1,1.545179188E-1,6.780598313E-2,3.743327284E-1
1.324820488E0,-3.371973336E-1,1.575722396E-1,7.452549040E-2,3.795854333E-1
1.327264759E0,-3.469711840E-1,1.594048291E-1,8.002327383E-2,3.901315502E-1
1.329709811E0,-3.475820422E-1,1.649026126E-1,8.368846774E-2,3.937129758E-1
1.332155644E0,-3.549124300E-1,1.673460752E-1,8.735365421E-2,4.019927895E-1
1.334600696E0,-3.555232882E-1,1.746764481E-1,9.101884067E-2,4.064395396E-1
1.337044915E0,-3.622427881E-1,1.789525002E-1,9.224057198E-2,4.144299192E-1
1.339489967E0,-3.652971089E-1,1.887263358E-1,9.346230328E-2,4.216572183E-1
1.341935800E0,-3.665188551E-1,1.911697984E-1,9.529489279E-2,4.242205553E-1
1.344380852E0,-3.714057803E-1,1.948349923E-1,9.407316148E-2,4.298286724E-1
1.346825123E0,-3.695731759E-1,2.003327757E-1,9.407316148E-2,4.307752466E-1
1.349270123E0,-3.726274967E-1,2.039979547E-1,9.407316148E-2,4.351047880E-1
1.351716009E0,-3.701840341E-1,2.088848799E-1,8.979710937E-2,4.344336923E-1
1.354161009E0,-3.707948923E-1,2.125500590E-1,8.613192290E-2,4.359874859E-1
1.356605279E0,-3.701840341E-1,2.149935216E-1,8.307760209E-2,4.360737568E-1
1.359050332E0,-3.689623177E-1,2.186587155E-1,7.757981867E-2,4.358479712E-1
1.361496165E0,-3.677405715E-1,2.168261111E-1,7.147116959E-2,4.328450282E-1
1.363941217E0,-3.665188551E-1,2.168261111E-1,6.841684878E-2,4.313125303E-1
1.366385436E0,-3.628536761E-1,2.113283426E-1,6.291906536E-2,4.245954161E-1
1.368830488E0,-3.622427881E-1,2.088848799E-1,5.925387517E-2,4.223313300E-1
1.371276321E0,-3.591884673E-1,2.052196860E-1,5.436695740E-2,4.172376309E-1
1.373721373E0,-3.567450047E-1,1.997219026E-1,5.314522982E-2,4.122866141E-1
1.376165644E0,-3.567450047E-1,1.960567236E-1,4.948003963E-2,4.100652528E-1
1.378610696E0,-3.549124300E-1,1.923915297E-1,4.825831205E-2,4.065786497E-1
1.381056529E0,-3.530798256E-1,1.899480671E-1,4.581485316E-2,4.035401247E-1
1.383501529E0,-3.494146466E-1,1.875046194E-1,4.337139428E-2,3.989105857E-1
1.385945800E0,-3.469711840E-1,1.887263358E-1,4.092793539E-2,3.970915867E-1
1.388390852E0,-3.426951170E-1,1.881154776E-1,4.153879732E-2,3.931320997E-1
1.390836686E0,-3.396407962E-1,1.881154776E-1,4.153879732E-2,3.904725023E-1
1.393281738E0,-3.353647590E-1,1.893372089E-1,4.276052862E-2,3.874875005E-1
1.395725957E0,-3.310886919E-1,1.917806715E-1,4.398225993E-2,3.851415157E-1
1.398171009E0,-3.274235129E-1,1.936132610E-1,4.398225993E-2,3.829186478E-1
1.400616842E0,-3.231474459E-1,1.948349923E-1,4.581485316E-2,3.801104403E-1
1.403061894E0,-3.188714087E-1,1.966675818E-1,4.825831205E-2,3.777379749E-1
1.405506165E0,-3.133736253E-1,1.978893131E-1,4.764744639E-2,3.736756460E-1
1.407951217E0,-3.103193045E-1,1.966675818E-1,4.886917770E-2,3.706270430E-1
1.410397050E0,-3.029889166E-1,1.930023879E-1,5.009090528E-2,3.627138047E-1
1.412842102E0,-2.962694168E-1,1.917806715E-1,5.192349851E-2,3.567232022E-1
1.415286321E0,-2.895498872E-1,1.905589402E-1,5.192349851E-2,3.504966427E-1
1.417731373E0,-2.828303874E-1,1.887263358E-1,5.375609547E-2,3.442388351E-1
1.420177207E0,-2.773326039E-1,1.881154776E-1,5.558868870E-2,3.396923732E-1
1.422622259E0,-2.706131041E-1,1.893372089E-1,5.681041628E-2,3.351230433E-1
1.425066529E0,-2.638935745E-1,1.899480671E-1,5.742128193E-2,3.301776650E-1
1.427511529E0,-2.590066493E-1,1.930023879E-1,5.864301324E-2,3.282885455E-1
1.429957415E0,-2.535088658E-1,1.923915297E-1,6.047560647E-2,3.239421935E-1
1.432402415E0,-2.486219555E-1,1.911697984E-1,6.169733405E-2,3.196331172E-1
1.434846686E0,-2.437350303E-1,1.899480671E-1,6.291906536E-2,3.153503480E-1
1.437291738E0,-2.382372469E-1,1.850611567E-1,6.414079666E-2,3.084131309E-1
1.439737571E0,-2.327394634E-1,1.820068359E-1,6.536252052E-2,3.025994139E-1
1.442182623E0,-2.278525382E-1,1.771199107E-1,6.658425182E-2,2.961785011E-1
1.444626842E0,-2.211330384E-1,1.722330004E-1,6.780598313E-2,2.883776663E-1
1.447071894E0,-2.150243819E-1,1.655134857E-1,6.780598313E-2,2.796924205E-1
1.449517727E0,-2.083048671E-1,1.587939709E-1,6.719511747E-2,2.704101083E-1
1.451962779E0,-2.009744942E-1,1.545179188E-1,6.963858008E-2,2.628993465E-1
1.454407050E0,-1.954767108E-1,1.502418667E-1,7.147116959E-2,2.566941586E-1
1.456852050E0,-1.887571961E-1,1.465766728E-1,7.269290090E-2,2.497964330E-1
1.459297936E0,-1.826485544E-1,1.423006207E-1,7.391463220E-2,2.430500647E-1
1.461742936E0,-1.765399128E-1,1.416897625E-1,7.452549040E-2,2.383199075E-1
1.464187207E0,-1.704312563E-1,1.404680312E-1,7.635808736E-2,2.336849127E-1
1.466632259E0,-1.637117565E-1,1.392462999E-1,7.635808736E-2,2.280825042E-1
1.469078092E0,-1.576030999E-1,1.410788894E-1,7.696895301E-2,2.250915588E-1
1.471523144E0,-1.508835852E-1,1.416897625E-1,7.757981867E-2,2.210440529E-1
1.473967363E0,-1.453858018E-1,1.459658146E-1,7.819068432E-2,2.203561515E-1
1.476412415E0,-1.374445707E-1,1.539070457E-1,7.696895301E-2,2.202330776E-1
1.478858248E0,-1.301141828E-1,1.636808813E-1,7.635808736E-2,2.226020866E-1
1.481303300E0,-1.246164069E-1,1.746764481E-1,7.513635606E-2,2.273468328E-1
1.483747571E0,-1.197294816E-1,1.868937463E-1,7.208203524E-2,2.333671806E-1
1.486192623E0,-1.148425639E-1,1.991110444E-1,7.147116959E-2,2.407117583E-1
1.488638457E0,-1.093447804E-1,2.107174695E-1,6.902771443E-2,2.472305772E-1
1.491083509E0,-1.062904596E-1,2.211021781E-1,6.597338617E-2,2.540400021E-1
1.493527727E0,-1.014035419E-1,2.302651405E-1,6.352993101E-2,2.595009930E-1
1.495972779E0,-9.712748975E-2,2.382063866E-1,6.230819970E-2,2.646853672E-1
1.498418613E0,-9.285143763E-2,2.430933118E-1,5.925387517E-2,2.668834379E-1
1.500863665E0,-8.918624371E-2,2.443150282E-1,5.742128193E-2,2.663479354E-1
1.503307936E0,-8.796451986E-2,2.455367744E-1,5.558868870E-2,2.666761456E-1
1.505752936E0,-8.368846029E-2,2.418715656E-1,5.619955063E-2,2.620381692E-1
1.508198769E0,-8.185587078E-2,2.363737822E-1,5.558868870E-2,2.562480259E-1
1.510643821E0,-7.941240817E-2,2.284325361E-1,5.558868870E-2,2.481488594E-1
1.513088092E0,-7.696895301E-2,2.174369842E-1,5.558868870E-2,2.372618050E-1
1.515533144E0,-7.391462475E-2,2.039979547E-1,5.742128193E-2,2.244454074E-1
1.517978977E0,-7.086030394E-2,1.893372089E-1,5.803214759E-2,2.103271059E-1
1.520424029E0,-6.841684878E-2,1.710112691E-1,6.108646840E-2,1.940548272E-1
1.522868248E0,-6.536252052E-2,1.532961875E-1,6.108646840E-2,1.774923571E-1
1.525313300E0,-6.047560275E-2,1.355811059E-1,6.291906536E-2,1.612400186E-1
1.527759134E0,-5.803214759E-2,1.184769049E-1,6.291906536E-2,1.461619511E-1
1.530204186E0,-5.436695740E-2,1.032052860E-1,6.475165486E-2,1.334161681E-1
1.532648457E0,-5.009090528E-2,8.793366700E-2,6.658425182E-2,1.211399652E-1
1.535093457E0,-4.581484944E-2,7.388377935E-2,6.536252052E-2,1.087661361E-1
1.537539290E0,-4.276052862E-2,6.044476107E-2,6.414079666E-2,9.795955158E-2
1.539984342E0,-3.909533843E-2,4.822747037E-2,6.475165486E-2,8.970569209E-2
1.542428613E0,-3.665187955E-2,3.784276918E-2,6.352993101E-2,8.253173685E-2
1.544873665E0,-3.359755874E-2,2.684720233E-2,6.169733405E-2,7.520724204E-2
1.547319498E0,-3.298669308E-2,2.012768760E-2,5.986474082E-2,7.125330113E-2
1.549764550E0,-2.871064097E-2,1.524076890E-2,5.742128193E-2,6.598322181E-2
1.552208769E0,-2.687804401E-2,1.096471678E-2,5.497782305E-2,6.217085564E-2
1.554653821E0,-2.382372320E-2,7.299530320E-3,5.314522982E-2,5.869640860E-2
1.557099654E0,-2.076939866E-2,4.856071435E-3,5.009090528E-2,5.444307249E-2
1.559544707E0,-1.832594164E-2,3.634340363E-3,4.642571509E-2,5.004393658E-2
1.561988977E0,-1.466075145E-2,2.412612783E-3,4.459312186E-2,4.700324298E-2
1.564434029E0,-1.099556312E-2,1.801747130E-3,4.031706974E-2,4.182839721E-2
1.566879863E0,-9.162969887E-3,1.190881478E-3,3.848447651E-2,3.957819031E-2
1.569324863E0,-6.108645815E-3,3.023478435E-3,3.420842439E-2,3.488084395E-2
1.571769134E0,-3.054322209E-3,5.466933362E-3,3.359755874E-2,3.417619343E-2
1.574214186E0,-3.054322209E-3,1.035385113E-2,3.115409985E-2,3.297133687E-2
1.576660019E0,-6.108633243E-4,1.401904132E-2,2.993236855E-2,3.305833269E-2
1.579105071E0,-6.108633243E-4,1.829509437E-2,2.809977531E-2,3.353626403E-2
1.581549290E0,6.108661182E-4,2.440374345E-2,2.687804401E-2,3.630902231E-2
1.583994342E0,1.221730839E-3,2.929066122E-2,2.809977531E-2,4.060828528E-2
1.586440175E0,3.054325003E-3,3.417757526E-2,2.748890966E-2,4.396675683E-2
1.588885227E0,3.054325003E-3,3.662103787E-2,2.932150289E-2,4.701254990E-2
1.591329498E0,1.221730839E-3,4.028622434E-2,3.054323420E-2,5.057036338E-2
1.593774550E0,1.221730839E-3,3.967535868E-2,3.176496178E-2,5.083935001E-2
1.596220384E0,1.221730839E-3,3.784276918E-2,3.604101762E-2,5.227353782E-2
1.598665436E0,1.396983862E-9,3.356670961E-2,3.848447651E-2,5.106641681E-2
1.601109654E0,-1.832592767E-3,2.806892991E-2,4.276052862E-2,5.118286853E-2
1.603554707E0,-4.886916373E-3,2.257115021E-2,4.703658074E-2,5.240017845E-2
1.606000540E0,-6.719510537E-3,1.524076890E-2,5.253436416E-2,5.511163468E-2
1.608445592E0,-7.330375258E-3,6.077799015E-3,5.742128193E-2,5.820547793E-2
1.610889863E0,-8.552104235E-3,-1.863441197E-3,6.352993101E-2,6.413004782E-2
1.613334863E0,-9.773833677E-3,-9.193818085E-3,6.841684878E-2,6.972029341E-2
1.615780696E0,-1.160642877E-2,-1.713505760E-2,7.391463220E-2,7.675735952E-2
1.618225748E0,-1.343902200E-2,-2.141111158E-2,8.002327383E-2,8.392119735E-2
1.620670019E0,-1.404988766E-2,-2.629802935E-2,8.368846774E-2,8.884112406E-2
1.623115071E0,-1.588248275E-2,-3.118494712E-2,8.674278855E-2,9.353643970E-2
1.625560904E0,-1.588248275E-2,-3.607186675E-2,8.979710937E-2,9.806606793E-2
1.628005957E0,-1.588248275E-2,-3.851532191E-2,9.224057198E-2,1.012126790E-1
1.630450175E0,-1.893680543E-2,-3.851532191E-2,9.162970632E-2,1.011831790E-1
1.632895227E0,-2.076939866E-2,-4.095878452E-2,9.101884067E-2,1.019481207E-1
1.635341061E0,-2.443458512E-2,-4.034791887E-2,8.857538551E-2,1.003523912E-1
1.637786113E0,-2.626718208E-2,-4.095878452E-2,8.674278855E-2,9.945802255E-2
1.640230384E0,-2.871064097E-2,-4.095878452E-2,8.246673644E-2,9.645043055E-2
1.642675384E0,-3.115409613E-2,-4.095878452E-2,7.819068432E-2,9.360546378E-2
1.645121269E0,-3.298669308E-2,-4.095878452E-2,7.513635606E-2,9.171268152E-2
1.647566269E0,-3.481928632E-2,-4.034791887E-2,7.024943829E-2,8.817777972E-2
1.650010540E0,-3.909533843E-2,-3.851532191E-2,6.597338617E-2,8.581586795E-2
1.652455592E0,-3.848447651E-2,-3.668272868E-2,6.108646840E-2,8.098292497E-2
1.654901425E0,-4.092793167E-2,-3.485013545E-2,5.803214759E-2,7.910346190E-2
1.657346477E0,-4.214966297E-2,-3.362840414E-2,5.497782305E-2,7.700665348E-2
1.659790696E0,-4.459312186E-2,-3.118494712E-2,5.192349851E-2,7.521367656E-2
1.662235748E0,-4.764744639E-2,-2.629802935E-2,4.948003963E-2,7.355365264E-2
1.664681582E0,-4.948003963E-2,-2.324370667E-2,4.825831205E-2,7.292056571E-2
1.667126634E0,-5.131263286E-2,-1.774592325E-2,4.886917770E-2,7.304861814E-2
1.669570904E0,-5.375609174E-2,-1.163727697E-2,4.825831205E-2,7.317108921E-2
1.672015957E0,-5.436695740E-2,-7.361222990E-3,4.764744639E-2,7.266521044E-2
1.674461790E0,-5.619955063E-2,-3.085170640E-3,4.886917770E-2,7.453928023E-2
1.676906790E0,-5.986474082E-2,-1.252577407E-3,4.825831205E-2,7.690397145E-2
1.679351061E0,-6.108646840E-2,-6.417118129E-4,5.009090528E-2,7.900042536E-2
1.681796113E0,-6.352993101E-2,-1.252577407E-3,4.948003963E-2,8.053505700E-2
1.684241946E0,-6.536252052E-2,-3.085170640E-3,5.131263286E-2,8.315505792E-2
1.686686998E0,-6.658425182E-2,-3.696036292E-3,5.375609547E-2,8.565536221E-2
1.689131217E0,-6.902771443E-2,-3.696036292E-3,5.436695740E-2,8.794459677E-2
1.691576269E0,-7.024943829E-2,-4.917764105E-3,5.558868870E-2,8.971772564E-2
1.694022102E0,-7.391462475E-2,-4.306900315E-3,5.864301324E-2,9.445064396E-2
1.696467154E0,-7.513635606E-2,-1.863441197E-3,6.047560647E-2,9.646887266E-2
1.698911425E0,-7.635808736E-2,1.190881478E-3,6.352993101E-2,9.933794762E-2
1.701356477E0,-7.696895301E-2,7.299530320E-3,6.597338617E-2,1.016365611E-1
1.703802311E0,-7.819068432E-2,1.218644809E-2,6.780598313E-2,1.042110550E-1
1.706247363E0,-7.941240817E-2,1.768423244E-2,7.086030394E-2,1.078899686E-1
1.708691582E0,-7.880154997E-2,2.257115021E-2,7.391463220E-2,1.103744262E-1
1.711136634E0,-7.880154997E-2,2.684720233E-2,7.391463220E-2,1.113275770E-1
1.713582467E0,-8.002327383E-2,2.684720233E-2,7.452549040E-2,1.125990468E-1
1.716027519E0,-8.002327383E-2,2.929066122E-2,7.513635606E-2,1.136095911E-1
1.718471738E0,-7.880154997E-2,2.867979556E-2,7.452549040E-2,1.121885184E-1
1.720916790E0,-7.880154997E-2,2.806892991E-2,7.391463220E-2,1.116284998E-1
1.723362623E0,-7.941240817E-2,2.562547103E-2,7.269290090E-2,1.106673085E-1
1.725807675E0,-7.880154997E-2,2.684720233E-2,7.147116959E-2,1.097204841E-1
1.728251946E0,-7.757981867E-2,2.745806798E-2,7.024943829E-2,1.082014664E-1
1.730696998E0,-7.574722171E-2,2.623633668E-2,6.841684878E-2,1.053890514E-1
1.733142832E0,-7.452549040E-2,2.929066122E-2,6.658425182E-2,1.041415102E-1
1.735587884E0,-7.391462475E-2,2.929066122E-2,6.475165486E-2,1.025382436E-1
1.738032102E0,-7.086030394E-2,3.051238880E-2,6.414079666E-2,1.003306052E-1
1.740477154E0,-6.780598313E-2,3.112325445E-2,6.230819970E-2,9.720401260E-2
1.742922988E0,-6.658425182E-2,3.234498575E-2,6.108646840E-2,9.597508695E-2
1.745368040E0,-6.169733405E-2,3.051238880E-2,5.803214759E-2,9.002942326E-2
1.747812311E0,-5.864300951E-2,3.112325445E-2,5.681041628E-2,8.737896160E-2
1.750257311E0,-5.497782305E-2,3.173412010E-2,5.681041628E-2,8.518825508E-2
1.752703144E0,-4.886917397E-2,3.112325445E-2,5.497782305E-2,7.987123487E-2
1.755148196E0,-4.642571509E-2,3.295585141E-2,5.314522982E-2,7.788357090E-2
1.757592467E0,-4.092793167E-2,3.478844091E-2,5.192349851E-2,7.470864012E-2
1.760037519E0,-3.665187955E-2,3.417757526E-2,4.948003963E-2,7.042543040E-2
1.762483352E0,-3.237582743E-2,3.539930657E-2,4.703658074E-2,6.718441065E-2
1.764928404E0,-2.871064097E-2,3.601017222E-2,4.520398751E-2,6.453242514E-2
1.767372623E0,-2.443458512E-2,3.784276918E-2,4.276052862E-2,6.210947542E-2
1.769817675E0,-2.199112624E-2,3.967535868E-2,3.909534216E-2,5.988480190E-2
1.772263509E0,-1.771507598E-2,3.967535868E-2,3.787361085E-2,5.763998962E-2
1.774708561E0,-1.527161710E-2,4.334054515E-2,3.420842439E-2,5.728735848E-2
1.777152832E0,-1.282815821E-2,4.334054515E-2,3.359755874E-2,5.631838465E-2
1.779597832E0,-9.773833677E-3,4.578400776E-2,2.932150289E-2,5.523996491E-2
1.782043717E0,-7.941240445E-3,4.578400776E-2,2.871064097E-2,5.462178660E-2
1.784488717E0,-5.497781094E-3,4.761660472E-2,2.504545078E-2,5.408180143E-2
1.786932988E0,-3.054322209E-3,4.639487341E-2,2.199112624E-2,5.143367376E-2
1.789378040E0,-2.443457488E-3,4.883832857E-2,2.015853301E-2,5.289158038E-2
1.791823873E0,-1.832592767E-3,4.822747037E-2,1.954766735E-2,5.207070763E-2
1.794268925E0,6.108661182E-4,4.822747037E-2,1.832593977E-2,5.159556303E-2
1.796713144E0,2.443460282E-3,4.761660472E-2,1.710420847E-2,5.065437286E-2
1.799158196E0,3.665189724E-3,4.578400776E-2,1.832593977E-2,4.945148178E-2
1.801604029E0,4.276054446E-3,4.334054515E-2,1.893680543E-2,4.748989466E-2
1.804049082E0,7.330378052E-3,4.150795564E-2,1.832593977E-2,4.596177643E-2
1.806493352E0,7.941242307E-3,3.845363483E-2,1.954766735E-2,4.386179043E-2
1.808938352E0,9.773837402E-3,3.601017222E-2,2.015853301E-2,4.241022110E-2
1.811384238E0,1.343902573E-2,3.295585141E-2,2.199112624E-2,4.183664886E-2
1.813829238E0,1.527161896E-2,2.929066122E-2,2.260199189E-2,4.002518229E-2
1.816273509E0,1.649335027E-2,2.379287779E-2,2.382372320E-2,3.749268494E-2
1.818718561E0,1.771507785E-2,1.951682568E-2,2.565631643E-2,3.678283622E-2
1.821164394E0,1.832594350E-2,1.585163549E-2,2.687804401E-2,3.618761946E-2
1.823609446E0,2.015853673E-2,1.035385113E-2,2.687804401E-2,3.515676444E-2
1.826053665E0,1.893680915E-2,7.910395972E-3,2.809977531E-2,3.479618482E-2
1.828498717E0,1.954767480E-2,3.634340363E-3,2.748890966E-2,3.392580396E-2
1.830944550E0,1.954767480E-2,2.412612783E-3,2.565631643E-2,3.234468833E-2
1.833389602E0,1.954767480E-2,-6.417118129E-4,2.748890966E-2,3.373667943E-2
1.835833873E0,1.832594350E-2,5.800157669E-4,2.626718208E-2,3.203344312E-2
1.838278925E0,1.771507785E-2,1.190881478E-3,2.443458512E-2,3.020415753E-2
1.840724759E0,1.649335027E-2,1.801747130E-3,2.443458512E-2,2.953516287E-2
1.843169759E0,1.649335027E-2,4.856071435E-3,2.321285754E-2,2.888682724E-2
1.845614029E0,1.649335027E-2,6.688664667E-3,2.199112624E-2,2.829096095E-2
1.848059082E0,1.527161896E-2,8.521257900E-3,1.893680543E-2,2.577667127E-2
1.850504915E0,1.404989138E-2,1.218644809E-2,1.771507412E-2,2.568526457E-2
1.852949967E0,1.466075517E-2,1.279731374E-2,1.710420847E-2,2.590874232E-2
1.855394186E0,1.282816008E-2,1.585163549E-2,1.588248089E-2,2.584742227E-2
1.857839238E0,9.773837402E-3,1.707336679E-2,1.404988673E-2,2.417492644E-2
1.860285071E0,1.038470119E-2,1.524076890E-2,1.160642691E-2,2.179064481E-2
1.862730123E0,9.773837402E-3,1.585163549E-2,1.038469747E-2,2.132238698E-2
1.865174394E0,6.719513331E-3,1.707336679E-2,1.038469747E-2,2.108301815E-2
1.867619446E0,7.330378052E-3,1.768423244E-2,9.773833677E-3,2.149405370E-2
1.870065279E0,7.941242307E-3,1.768423244E-2,9.773833677E-3,2.170997999E-2
1.872510332E0,7.330378052E-3,1.890596002E-2,9.773833677E-3,2.250994428E-2
1.874954550E0,7.330378052E-3,2.012768760E-2,9.162968025E-3,2.329845990E-2
1.877399602E0,7.941242307E-3,2.012768760E-2,9.162968025E-3,2.349781098E-2
1.879845436E0,7.941242307E-3,1.829509437E-2,8.552104235E-3,2.170051369E-2
1.882290488E0,9.162971750E-3,1.462990697E-2,9.162968025E-3,1.954364890E-2
1.884734707E0,9.162971750E-3,1.096471678E-2,1.038469747E-2,1.766428620E-2
1.887179759E0,7.941242307E-3,6.077799015E-3,9.162968025E-3,1.356329434E-2
1.889625592E0,4.886919167E-3,1.190881478E-3,9.162968025E-3,1.045275852E-2
1.892070644E0,5.497783888E-3,-5.528629757E-3,9.773833677E-3,1.250276767E-2
1.894514915E0,6.108648609E-3,-8.582954295E-3,1.038469747E-2,1.479272232E-2
1.896959967E0,4.886919167E-3,-1.346987206E-2,1.160642691E-2,1.843986383E-2
1.899405800E0,4.276054446E-3,-1.713505760E-2,1.221729256E-2,2.147456817E-2
1.901850852E0,3.054325003E-3,-2.080024779E-2,9.773833677E-3,2.318419794E-2
1.904295071E0,2.443460282E-3,-2.202197537E-2,1.160642691E-2,2.501293751E-2
1.906740123E0,1.832595561E-3,-2.263284102E-2,1.099556312E-2,2.522907663E-2
1.909185957E0,3.054325003E-3,-2.263284102E-2,1.160642691E-2,2.561803153E-2
1.911631009E0,1.832595561E-3,-2.446543425E-2,1.160642691E-2,2.714083686E-2
1.914075279E0,2.443460282E-3,-2.446543425E-2,9.773833677E-3,2.645856754E-2
1.916520279E0,3.054325003E-3,-2.568716556E-2,9.162968025E-3,2.744302022E-2
1.918966113E0,3.054325003E-3,-2.874148823E-2,7.330374327E-3,2.981839088E-2
1.921411165E0,4.276054446E-3,-3.179581091E-2,6.108644884E-3,3.265844110E-2
1.923855436E0,4.276054446E-3,-3.607186675E-2,4.276050720E-3,3.657524877E-2
1.926300488E0,6.108648609E-3,-3.973705322E-2,4.276050720E-3,4.043060222E-2
1.928746321E0,6.108648609E-3,-4.095878452E-2,2.443456557E-3,4.148382935E-2
1.931191373E0,7.330378052E-3,-4.156964645E-2,1.221727114E-3,4.222869363E-2
1.933635592E0,6.719513331E-3,-4.156964645E-2,-2.328306437E-9,4.210923135E-2
1.936080644E0,6.108648609E-3,-4.095878452E-2,-1.832596492E-3,4.145233440E-2
1.938526477E0,6.108648609E-3,-4.034791887E-2,-6.108670495E-4,4.081229353E-2
1.940971529E0,6.719513331E-3,-3.790445998E-2,-1.832596492E-3,3.853904975E-2
1.943415800E0,4.886919167E-3,-3.423926979E-2,-1.221731771E-3,3.460783442E-2
1.945860800E0,4.276054446E-3,-2.935235202E-2,-1.832596492E-3,2.971874191E-2
1.948306634E0,3.665189724E-3,-2.446543425E-2,-1.832596492E-3,2.480623911E-2
1.950751686E0,2.443460282E-3,-1.957851648E-2,-1.221731771E-3,1.976819249E-2
1.953195957E0,1.832595561E-3,-1.224814076E-2,-2.443461679E-3,1.262322714E-2
1.955641009E0,6.108661182E-4,-5.528629757E-3,-2.443461679E-3,6.075311464E-3
1.958086842E0,-2.443457488E-3,-1.863441197E-3,-2.443461679E-3,3.925990648E-3
1.960531894E0,-4.276051652E-3,3.634340363E-3,-3.054325469E-3,6.389205872E-3
1.962976113E0,-4.886916373E-3,9.132123552E-3,-3.054325469E-3,1.079845064E-2
1.965421165E0,-7.941240445E-3,1.218644809E-2,-3.054325469E-3,1.486276290E-2
1.967866998E0,-9.162969887E-3,1.279731374E-2,-3.054325469E-3,1.603309578E-2
1.970312050E0,-9.773833677E-3,1.462990697E-2,-2.443461679E-3,1.776323472E-2
1.972756321E0,-1.221729256E-2,1.768423244E-2,-1.832596492E-3,2.157203571E-2
1.975201321E0,-1.160642877E-2,1.768423244E-2,-6.108670495E-4,2.116162623E-2
1.977647154E0,-1.221729256E-2,1.951682568E-2,-1.221731771E-3,2.305778286E-2
1.980092207E0,-1.221729256E-2,2.012768760E-2,-6.108670495E-4,2.355332682E-2
1.982536477E0,-1.160642877E-2,1.951682568E-2,-6.108670495E-4,2.271538756E-2
1.984981529E0,-1.160642877E-2,1.890596002E-2,1.221727114E-3,2.221794613E-2
1.987427363E0,-1.038469933E-2,1.585163549E-2,-2.328306437E-9,1.895036484E-2
1.989872415E0,-1.038469933E-2,1.585163549E-2,-6.108670495E-4,1.896020797E-2
1.992316634E0,-1.160642877E-2,1.401904132E-2,-1.832596492E-3,1.829210536E-2
1.994761686E0,-1.038469933E-2,1.218644809E-2,-6.108670495E-4,1.602262949E-2
1.997207519E0,-1.160642877E-2,1.096471678E-2,-6.108670495E-4,1.597834039E-2
1.999652571E0,-1.160642877E-2,1.218644809E-2,-2.443461679E-3,1.700556411E-2
2.002096842E0,-1.160642877E-2,1.218644809E-2,-3.665191121E-3,1.722359811E-2
2.004541894E0,-1.343902200E-2,1.340817567E-2,-4.886920564E-3,1.960276715E-2
2.006987727E0,-1.099556312E-2,1.340817567E-2,-4.886920564E-3,1.801564808E-2
2.009432727E0,-1.221729256E-2,1.279731374E-2,-6.719513796E-3,1.892578512E-2
2.011876998E0,-1.160642877E-2,1.401904132E-2,-8.552108891E-3,2.010923357E-2
2.014322050E0,-1.099556312E-2,1.218644809E-2,-9.162972681E-3,1.879819124E-2
2.016767884E0,-1.038469933E-2,1.218644809E-2,-1.038470212E-2,1.908385536E-2
2.019212936E0,-9.773833677E-3,1.096471678E-2,-1.099556778E-2,1.834817020E-2
2.021657154E0,-9.162969887E-3,1.035385113E-2,-1.282816101E-2,1.886064594E-2
2.024102207E0,-9.162969887E-3,9.132123552E-3,-1.404989045E-2,1.909856328E-2
2.026548040E0,-8.552104235E-3,7.299530320E-3,-1.404989045E-2,1.799502852E-2
2.028993092E0,-1.099556312E-2,4.856071435E-3,-1.466075610E-2,1.895841786E-2
2.031437363E0,-1.099556312E-2,3.023478435E-3,-1.588248461E-2,1.955242051E-2
2.033882415E0,-1.221729256E-2,3.023478435E-3,-1.771507785E-2,2.173079940E-2
2.036328248E0,-1.282815821E-2,1.190881478E-3,-1.893680915E-2,2.290376787E-2
2.038773248E0,-1.282815821E-2,5.800157669E-4,-1.832594350E-2,2.237718183E-2
2.041217519E0,-1.282815821E-2,-3.085170640E-3,-1.832594350E-2,2.258141108E-2
2.043662571E0,-1.221729256E-2,-6.750359200E-3,-1.832594350E-2,2.303627123E-2
2.046108404E0,-1.343902200E-2,-9.193818085E-3,-1.893680915E-2,2.497471410E-2
2.048553457E0,-1.221729256E-2,-1.163727697E-2,-1.832594350E-2,2.491041264E-2
2.050997675E0,-1.282815821E-2,-1.346987206E-2,-1.710421592E-2,2.526961216E-2
2.053442727E0,-1.160642877E-2,-1.591333002E-2,-1.771507785E-2,2.649088984E-2
2.055888561E0,-1.221729256E-2,-1.591333002E-2,-1.710421592E-2,2.636381065E-2
2.058333613E0,-1.343902200E-2,-1.774592325E-2,-1.466075610E-2,2.665450945E-2
2.060777884E0,-1.404988766E-2,-1.896765269E-2,-1.466075610E-2,2.778684871E-2
2.063222936E0,-1.588248275E-2,-1.774592325E-2,-1.527161989E-2,2.829122522E-2
2.065668769E0,-1.649334654E-2,-1.835678890E-2,-1.588248461E-2,2.934715483E-2
2.068113769E0,-1.710421033E-2,-1.713505760E-2,-1.710421592E-2,2.964318492E-2
2.070558040E0,-1.649334654E-2,-1.774592325E-2,-1.588248461E-2,2.896897633E-2
2.073003092E0,-1.710421033E-2,-1.530246530E-2,-1.649335027E-2,2.826216655E-2
2.075448925E0,-1.771507598E-2,-1.346987206E-2,-1.710421592E-2,2.806805253E-2
2.077893977E0,-1.649334654E-2,-1.102641318E-2,-1.710421592E-2,2.619477944E-2
2.080338196E0,-1.710421033E-2,-7.972088642E-3,-1.710421592E-2,2.546885177E-2
2.082783248E0,-1.649334654E-2,-5.528629757E-3,-1.832594350E-2,2.526729966E-2
2.085229082E0,-1.588248275E-2,-3.696036292E-3,-1.893680915E-2,2.499033180E-2
2.087674134E0,-1.527161710E-2,-2.474304987E-3,-1.954767480E-2,2.492902052E-2
2.090118404E0,-1.588248275E-2,-2.474304987E-3,-2.138026804E-2,2.674866922E-2
2.092563457E0,-1.710421033E-2,-3.085170640E-3,-2.199113369E-2,2.803002408E-2
2.095009290E0,-1.771507598E-2,-4.917764105E-3,-2.321286127E-2,2.961157289E-2
2.097454290E0,-1.832594164E-2,-6.750359200E-3,-2.321286127E-2,3.033553056E-2
2.099898561E0,-1.710421033E-2,-8.582954295E-3,-2.504545450E-2,3.151977009E-2
2.102343613E0,-1.649334654E-2,-1.041554753E-2,-2.748891339E-2,3.370689054E-2
2.104789446E0,-1.832594164E-2,-1.102641318E-2,-2.809977904E-2,3.531316336E-2
2.107234498E0,-1.771507598E-2,-1.346987206E-2,-2.809977904E-2,3.584492925E-2
2.109678717E0,-1.771507598E-2,-1.224814076E-2,-2.809977904E-2,3.540393271E-2
2.112123769E0,-1.832594164E-2,-1.224814076E-2,-2.687805146E-2,3.476041915E-2
2.114569602E0,-1.771507598E-2,-1.469159964E-2,-2.748891339E-2,3.585118375E-2
2.117014654E0,-1.832594164E-2,-1.408073585E-2,-2.748891339E-2,3.591305638E-2
2.119458925E0,-2.076939866E-2,-1.163727697E-2,-2.626718581E-2,3.545079951E-2
2.121903977E0,-1.954766735E-2,-9.804681875E-3,-2.565632015E-2,3.371186512E-2
2.124349811E0,-2.015853301E-2,-6.750359200E-3,-2.504545450E-2,3.285131038E-2
2.126794811E0,-2.138026431E-2,-3.085170640E-3,-2.382372692E-2,3.215904141E-2
2.129239082E0,-2.015853301E-2,-1.863441197E-3,-2.382372692E-2,3.126353836E-2
2.131684134E0,-2.199112624E-2,3.023478435E-3,-2.382372692E-2,3.256257084E-2
2.134129967E0,-2.321285754E-2,6.077799015E-3,-2.443459257E-2,3.424654305E-2
2.136575019E0,-2.321285754E-2,7.910395972E-3,-2.565632015E-2,3.549165935E-2
2.139019238E0,-2.504545078E-2,1.096471678E-2,-2.626718581E-2,3.791391129E-2
2.141464290E0,-2.626718208E-2,1.157558244E-2,-2.626718581E-2,3.890917647E-2
2.143910123E0,-2.687804401E-2,1.218644809E-2,-2.809977904E-2,4.074967913E-2
2.146355175E0,-2.809977531E-2,1.218644809E-2,-3.054323792E-2,4.325501442E-2
2.148799446E0,-2.809977531E-2,1.157558244E-2,-3.176496923E-2,4.396140070E-2
2.151244446E0,-3.054323420E-2,1.218644809E-2,-3.543015569E-2,4.833936910E-2
2.153690332E0,-3.298669308E-2,1.035385113E-2,-3.604102135E-2,4.994276097E-2
2.156135332E0,-3.481928632E-2,1.035385113E-2,-3.848448023E-2,5.292107474E-2
2.158579602E0,-3.604101390E-2,9.132123552E-3,-3.970620781E-2,5.439607800E-2
2.161024654E0,-3.604101390E-2,9.132123552E-3,-4.153880477E-2,5.574784897E-2
2.163470488E0,-3.604101390E-2,7.299530320E-3,-4.153880477E-2,5.547711354E-2
2.165915540E0,-3.481928632E-2,8.521257900E-3,-4.276053235E-2,5.579836613E-2
2.168359759E0,-3.237582743E-2,9.132123552E-3,-4.398225993E-2,5.537173531E-2
2.170804811E0,-3.176496178E-2,7.910395972E-3,-4.520399123E-2,5.581207741E-2
2.173250644E0,-3.054323420E-2,7.299530320E-3,-4.398225993E-2,5.404268208E-2
2.175695696E0,-3.054323420E-2,8.521257900E-3,-4.581485689E-2,5.571805904E-2
2.178139967E0,-2.932150289E-2,6.688664667E-3,-4.642572254E-2,5.531578871E-2
2.180585019E0,-2.748890966E-2,7.910395972E-3,-4.764745012E-2,5.557422084E-2
2.183030852E0,-2.687804401E-2,7.910395972E-3,-5.009090900E-2,5.739427479E-2
2.185475852E0,-2.748890966E-2,7.910395972E-3,-5.192350224E-2,5.928123315E-2
2.187920123E0,-2.809977531E-2,1.035385113E-2,-5.253436789E-2,6.047031847E-2
2.190365175E0,-2.687804401E-2,1.096471678E-2,-5.497782677E-2,6.217085894E-2
2.192811009E0,-2.504545078E-2,1.279731374E-2,-5.558869243E-2,6.229886491E-2
2.195256061E0,-2.382372320E-2,1.524076890E-2,-5.681042001E-2,6.346081188E-2
2.197700279E0,-2.321285754E-2,1.829509437E-2,-5.803215131E-2,6.512509362E-2
2.200145332E0,-2.260199189E-2,1.829509437E-2,-5.925388262E-2,6.600441743E-2
2.202591165E0,-2.076939866E-2,1.890596002E-2,-6.108647957E-2,6.723363170E-2
2.205036217E0,-1.893680543E-2,1.768423244E-2,-6.230820343E-2,6.748071496E-2
2.207480488E0,-1.771507598E-2,1.768423244E-2,-6.230820343E-2,6.714810652E-2
2.209925488E0,-1.649334654E-2,1.585163549E-2,-6.536252797E-2,6.925001726E-2
2.212371373E0,-1.527161710E-2,1.035385113E-2,-6.414079666E-2,6.674178840E-2
2.214816373E0,-1.527161710E-2,6.688664667E-3,-6.597339362E-2,6.804740399E-2
2.217260644E0,-1.282815821E-2,2.412612783E-3,-6.536252797E-2,6.665315001E-2
2.219705696E0,-1.282815821E-2,-4.306900315E-3,-6.291906536E-2,6.435774871E-2
2.222151529E0,-1.343902200E-2,-1.224814076E-2,-6.352993101E-2,6.608083231E-2
2.224596582E0,-1.160642877E-2,-1.896765269E-2,-6.352993101E-2,6.730923541E-2
2.227040800E0,-1.221729256E-2,-2.813062444E-2,-6.291906536E-2,6.999573597E-2
2.229485852E0,-1.038469933E-2,-3.668272868E-2,-6.047561392E-2,7.148961073E-2
2.231931686E0,-1.099556312E-2,-4.462397099E-2,-5.925388262E-2,7.498815773E-2
2.234376738E0,-1.099556312E-2,-5.317607522E-2,-5.925388262E-2,8.037176114E-2
2.236821009E0,-1.099556312E-2,-6.050645560E-2,-5.619955808E-2,8.330860643E-2
2.239266009E0,-1.038469933E-2,-6.722597033E-2,-5.497782677E-2,8.746276067E-2
2.241711894E0,-1.160642877E-2,-6.966942549E-2,-5.375609547E-2,8.875953941E-2
2.244156894E0,-1.160642877E-2,-7.638893276E-2,-5.192350224E-2,9.309150510E-2
2.246601165E0,-8.552104235E-3,-7.638893276E-2,-5.131264031E-2,9.241966561E-2
2.249046217E0,-1.099556312E-2,-7.944326103E-2,-5.009090900E-2,9.455809482E-2
2.251492050E0,-8.552104235E-3,-7.638893276E-2,-4.948004335E-2,9.141489061E-2
2.253937102E0,-9.162969887E-3,-7.455634326E-2,-4.948004335E-2,8.994933589E-2
2.256381321E0,-1.099556312E-2,-7.394547760E-2,-4.886917770E-2,8.931423512E-2
2.258826373E0,-8.552104235E-3,-7.028029114E-2,-4.825831577E-2,8.568151989E-2
2.261272207E0,-1.221729256E-2,-7.028029114E-2,-4.948004335E-2,8.681506926E-2
2.263717259E0,-9.773833677E-3,-6.661509722E-2,-4.825831577E-2,8.283697269E-2
2.266161529E0,-1.649334654E-2,-6.478250772E-2,-4.886917770E-2,8.280700644E-2
2.268606529E0,-1.282815821E-2,-6.233904883E-2,-4.948004335E-2,8.061633422E-2
2.271052415E0,-1.649334654E-2,-6.417164207E-2,-5.131264031E-2,8.380344373E-2
2.273497415E0,-1.771507598E-2,-6.111731753E-2,-5.009090900E-2,8.098302034E-2
2.275941686E0,-1.710421033E-2,-5.989558995E-2,-4.886917770E-2,7.917216831E-2
2.278386738E0,-1.954766735E-2,-5.623039976E-2,-4.886917770E-2,7.702055365E-2
2.280832571E0,-1.710421033E-2,-5.256521329E-2,-4.703658447E-2,7.258165015E-2
2.283277623E0,-2.015853301E-2,-5.256521329E-2,-4.520399123E-2,7.220020031E-2
2.285721842E0,-1.649334654E-2,-4.951088876E-2,-4.398225993E-2,6.824806059E-2
2.288166894E0,-2.076939866E-2,-4.890002310E-2,-4.398225993E-2,6.897114881E-2
2.290612727E0,-1.710421033E-2,-4.645656422E-2,-4.153880477E-2,6.462382434E-2
2.293057779E0,-2.076939866E-2,-4.645656422E-2,-3.848448023E-2,6.380153210E-2
2.295502050E0,-1.954766735E-2,-4.462397099E-2,-3.604102135E-2,6.060004377E-2
2.297947050E0,-2.076939866E-2,-4.645656422E-2,-3.604102135E-2,6.235812296E-2
2.300392936E0,-2.199112624E-2,-4.706742987E-2,-3.481929004E-2,6.254067114E-2
2.302837936E0,-2.015853301E-2,-4.706742987E-2,-3.298669681E-2,6.090838673E-2
2.305282207E0,-2.504545078E-2,-5.012175441E-2,-3.298669681E-2,6.501989723E-2
2.307727259E0,-2.138026431E-2,-5.256521329E-2,-3.054323792E-2,6.444460205E-2
2.310173092E0,-2.687804401E-2,-5.745213106E-2,-2.993237227E-2,7.013646358E-2
2.312618144E0,-2.565631643E-2,-5.745213106E-2,-2.687805146E-2,6.842092945E-2
2.315062363E0,-2.871064097E-2,-5.989558995E-2,-2.626718581E-2,7.142651924E-2
2.317507415E0,-2.871064097E-2,-6.050645560E-2,-2.565632015E-2,7.171874816E-2
2.319953248E0,-2.809977531E-2,-6.233904883E-2,-2.687805146E-2,7.347233515E-2
2.322398300E0,-3.115409613E-2,-6.294991076E-2,-2.626718581E-2,7.498822588E-2
2.324842571E0,-3.054323420E-2,-6.111731753E-2,-2.565632015E-2,7.298261725E-2
2.327287571E0,-3.420842066E-2,-6.417164207E-2,-2.687805146E-2,7.752835185E-2
2.329733457E0,-2.993236855E-2,-6.539336592E-2,-2.626718581E-2,7.656503147E-2
2.332178457E0,-3.359755874E-2,-6.844769418E-2,-2.748891339E-2,8.105259497E-2
2.334622727E0,-2.993236855E-2,-6.722597033E-2,-2.871064469E-2,7.899100513E-2
2.337067779E0,-3.359755874E-2,-7.272375375E-2,-3.115410358E-2,8.595416501E-2
2.339513613E0,-3.115409613E-2,-7.272375375E-2,-3.298669681E-2,8.571723416E-2
2.341958665E0,-3.176496178E-2,-7.638893276E-2,-3.420842439E-2,8.952372951E-2
2.344402884E0,-3.115409613E-2,-7.822152972E-2,-3.604102135E-2,9.158679292E-2
2.346847936E0,-2.932150289E-2,-7.944326103E-2,-3.787361458E-2,9.276525716E-2
2.349293769E0,-3.359755874E-2,-8.005412668E-2,-3.970620781E-2,9.546749232E-2
2.351738821E0,-3.054323420E-2,-8.127585799E-2,-4.092793912E-2,9.598828286E-2
2.354183092E0,-3.054323420E-2,-7.944326103E-2,-4.153880477E-2,9.470793620E-2
2.356628092E0,-3.054323420E-2,-7.822152972E-2,-4.276053235E-2,9.423353965E-2
2.359073925E0,-3.237582743E-2,-7.638893276E-2,-4.337139800E-2,9.361912954E-2
2.361518977E0,-3.176496178E-2,-7.516720146E-2,-4.459312558E-2,9.299283747E-2
2.363963248E0,-3.054323420E-2,-7.150202245E-2,-4.520399123E-2,8.993791855E-2
2.366408300E0,-3.054323420E-2,-6.966942549E-2,-4.581485689E-2,8.880157158E-2
2.368854134E0,-2.932150289E-2,-6.539336592E-2,-4.581485689E-2,8.505906154E-2
2.371299186E0,-2.748890966E-2,-6.111731753E-2,-4.581485689E-2,8.117861644E-2
2.373743404E0,-2.626718208E-2,-5.378694087E-2,-4.642572254E-2,7.575188167E-2
2.376188457E0,-2.382372320E-2,-4.767829552E-2,-4.642572254E-2,7.068335988E-2
2.378634290E0,-2.260199189E-2,-4.218051210E-2,-4.520399123E-2,6.582891813E-2
2.381079342E0,-2.199112624E-2,-3.790445998E-2,-4.398225993E-2,6.208701079E-2
2.383523613E0,-1.893680543E-2,-3.423926979E-2,-4.398225993E-2,5.886738812E-2
2.385968613E0,-1.649334654E-2,-3.240667656E-2,-4.276053235E-2,5.613097445E-2
2.388414446E0,-1.527161710E-2,-3.118494712E-2,-4.092793912E-2,5.367326537E-2
2.390859498E0,-1.343902200E-2,-2.935235202E-2,-3.909534216E-2,5.070121951E-2
2.393303769E0,-1.099556312E-2,-2.813062444E-2,-3.543015569E-2,4.655674358E-2
2.395748821E0,-9.773833677E-3,-2.813062444E-2,-3.237583116E-2,4.398925209E-2
2.398194654E0,-7.941240445E-3,-2.690889314E-2,-2.993237227E-2,4.102558640E-2
2.400639707E0,-6.719510537E-3,-2.629802935E-2,-2.687805146E-2,3.819905522E-2
2.403083925E0,-5.497781094E-3,-2.813062444E-2,-2.443459257E-2,3.766439888E-2
2.405528977E0,-4.886916373E-3,-2.874148823E-2,-2.015853673E-2,3.544462866E-2
2.407974811E0,-3.054322209E-3,-2.935235202E-2,-1.832594350E-2,3.473801460E-2
2.410419863E0,-3.054322209E-3,-3.118494712E-2,-1.649335027E-2,3.540989147E-2
2.412864134E0,-2.443457488E-3,-3.362840414E-2,-1.404989045E-2,3.652724286E-2
2.415309134E0,-1.832592767E-3,-3.790445998E-2,-1.282816101E-2,4.005830997E-2
2.417754967E0,1.832595561E-3,-4.095878452E-2,-1.221729722E-2,4.278133690E-2
2.420200019E0,6.108661182E-4,-4.584570229E-2,-1.038470212E-2,4.701110097E-2
2.422644290E0,1.832595561E-3,-5.134348199E-2,-8.552108891E-3,5.208310778E-2
2.425089342E0,2.443460282E-3,-5.684126541E-2,-7.941243239E-3,5.744530700E-2
2.427535175E0,3.054325003E-3,-6.478250772E-2,-9.773838334E-3,6.558681364E-2
2.429980227E0,3.665189724E-3,-7.333461195E-2,-7.941243239E-3,7.385433142E-2
2.432424446E0,4.276054446E-3,-8.188671619E-2,-9.162972681E-3,8.250866014E-2
2.434869498E0,3.054325003E-3,-8.921709657E-2,-9.162972681E-3,8.973839362E-2
2.437315332E0,3.054325003E-3,-9.654747695E-2,-7.941243239E-3,9.692165677E-2
2.439760384E0,2.443460282E-3,-1.008235291E-1,-9.773838334E-3,1.013256257E-1
2.442204602E0,3.054325003E-3,-1.026561186E-1,-1.038470212E-2,1.032252373E-1
2.444649654E0,3.054325003E-3,-1.038778499E-1,-1.099556778E-2,1.045028187E-1
2.447095488E0,2.443460282E-3,-1.044887081E-1,-1.099556778E-2,1.050940680E-1
2.449540540E0,4.276054446E-3,-1.044887081E-1,-1.221729722E-2,1.052874024E-1
2.451984811E0,3.665189724E-3,-1.020452604E-1,-1.404989045E-2,1.030731207E-1
2.454429811E0,5.497783888E-3,-1.038778499E-1,-1.649335027E-2,1.053226658E-1
2.456875696E0,6.719513331E-3,-1.038778499E-1,-1.893680915E-2,1.058034134E-1
2.459320696E0,8.552107960E-3,-1.032669917E-1,-1.954767480E-2,1.054481944E-1
2.461764967E0,9.162971750E-3,-1.069321707E-1,-2.321286127E-2,1.098056743E-1
2.464210019E0,1.038470119E-2,-1.105973646E-1,-2.626718581E-2,1.141472038E-1
2.466655852E0,9.773837402E-3,-1.142625436E-1,-2.748891339E-2,1.179283559E-1
2.469100904E0,1.099556684E-2,-1.185385957E-1,-2.993237227E-2,1.227527926E-1
2.471545123E0,1.221729629E-2,-1.222037897E-1,-3.115410358E-2,1.267028283E-1
2.473990175E0,1.221729629E-2,-1.264798492E-1,-3.176496923E-2,1.309787306E-1
2.476436009E0,1.404989138E-2,-1.283124387E-1,-3.176496923E-2,1.329304128E-1
2.478881061E0,1.343902573E-2,-1.325885057E-1,-3.237583116E-2,1.371441348E-1
2.481325332E0,1.404989138E-2,-1.368645579E-1,-3.176496923E-2,1.412031158E-1
2.483770332E0,1.282816008E-2,-1.411406100E-1,-3.237583116E-2,1.453734086E-1
2.486216217E0,1.404989138E-2,-1.478601098E-1,-3.298669681E-2,1.521451073E-1
2.488661217E0,1.282816008E-2,-1.558013558E-1,-3.176496923E-2,1.595231564E-1
2.491105488E0,1.343902573E-2,-1.619100124E-1,-3.420842439E-2,1.660291415E-1
2.493550540E0,1.221729629E-2,-1.704621166E-1,-3.359756246E-2,1.741705823E-1
2.495996373E0,1.527161896E-2,-1.784033626E-1,-3.359756246E-2,1.821806201E-1
2.498441425E0,1.588248461E-2,-1.863445938E-1,-3.481929004E-2,1.902339189E-1
2.500885644E0,1.649335027E-2,-1.955075711E-1,-3.543015569E-2,1.993753668E-1
2.503330696E0,1.771507785E-2,-2.010053545E-1,-3.726274893E-2,2.051962207E-1
2.505776529E0,1.893680915E-2,-2.046705335E-1,-3.970620781E-2,2.093447228E-1
2.508221582E0,2.015853673E-2,-2.089465857E-1,-3.970620781E-2,2.136390067E-1
2.510665852E0,1.954767480E-2,-2.095574588E-1,-4.092793912E-2,2.144097393E-1
2.513110852E0,2.138026804E-2,-2.095574588E-1,-4.153880477E-2,2.147019252E-1
2.515556686E0,2.260199562E-2,-2.077248693E-1,-4.153880477E-2,2.130397705E-1
2.518001738E0,2.321286127E-2,-2.046705335E-1,-4.031707346E-2,2.098912353E-1
2.520446009E0,2.626718581E-2,-2.034488022E-1,-4.153880477E-2,2.093008659E-1
2.522891061E0,2.626718581E-2,-2.034488022E-1,-3.970620781E-2,2.089448806E-1
2.525336894E0,2.932151034E-2,-2.046705335E-1,-4.031707346E-2,2.106543251E-1
2.527781946E0,3.115410358E-2,-2.095574588E-1,-4.092793912E-2,2.157776700E-1
2.530226165E0,3.481929004E-2,-2.174987048E-1,-3.970620781E-2,2.238183471E-1
2.532671217E0,3.848448023E-2,-2.223856151E-1,-4.031707346E-2,2.292637857E-1
2.535117050E0,4.337139800E-2,-2.321594507E-1,-4.092793912E-2,2.396960260E-1
2.537562102E0,4.764745012E-2,-2.419332862E-1,-4.092793912E-2,2.499541771E-1
2.540006373E0,5.314523354E-2,-2.517071068E-1,-4.092793912E-2,2.604918035E-1
2.542451373E0,5.864301696E-2,-2.584266365E-1,-4.153880477E-2,2.682327388E-1
2.544897207E0,6.291906536E-2,-2.669787407E-1,-4.153880477E-2,2.774201310E-1
2.547342259E0,6.963858008E-2,-2.761417031E-1,-4.398225993E-2,2.881635147E-1
2.549786529E0,7.635809481E-2,-2.846938074E-1,-4.581485689E-2,2.982953632E-1
2.552231582E0,8.124501258E-2,-2.956893742E-1,-4.886917770E-2,3.105175593E-1
2.554677415E0,8.796451986E-2,-3.079066873E-1,-5.375609547E-2,3.247060249E-1
2.557122467E0,9.285143763E-2,-3.176805079E-1,-5.619955808E-2,3.357092267E-1
2.559566686E0,1.020144150E-1,-3.274543583E-1,-5.864301696E-2,3.479544526E-1
2.562011738E0,1.081230566E-1,-3.335630000E-1,-6.291906536E-2,3.562494619E-1
2.564457571E0,1.160643026E-1,-3.402824998E-1,-6.597339362E-2,3.655346641E-1
2.566902623E0,1.258381307E-1,-3.439477086E-1,-6.841684878E-2,3.725803626E-1
2.569346894E0,1.356119663E-1,-3.457802832E-1,-7.208204269E-2,3.783522572E-1
2.571791894E0,1.435532123E-1,-3.470020294E-1,-7.330376655E-2,3.826112588E-1
2.574237727E0,1.545487642E-1,-3.500563502E-1,-7.513636351E-2,3.899618468E-1
2.576682779E0,1.661552042E-1,-3.561649919E-1,-7.819068432E-2,4.007179013E-1
2.579127050E0,1.777616292E-1,-3.634953797E-1,-8.063414693E-2,4.125893279E-1
2.581572102E0,1.899789274E-1,-3.702148795E-1,-8.124501258E-2,4.239714636E-1
2.584017936E0,2.009744942E-1,-3.781561255E-1,-8.246673644E-2,4.361118724E-1
2.586462936E0,2.138026506E-1,-3.885408342E-1,-8.368846774E-2,4.513084454E-1
2.588907207E0,2.266308069E-1,-3.977037966E-1,-8.429933339E-2,4.654419514E-1
2.591352259E0,2.400698364E-1,-4.099210799E-1,-8.368846774E-2,4.823614596E-1
2.593798092E0,2.535088360E-1,-4.227492511E-1,-8.552106470E-2,5.002974233E-1
2.596243144E0,2.663370073E-1,-4.380208552E-1,-8.735365421E-2,5.200272415E-1
2.598687363E0,2.797760367E-1,-4.575685263E-1,-8.857538551E-2,5.435891701E-1
2.601132415E0,2.938259244E-1,-4.752836227E-1,-9.101884812E-2,5.661383458E-1
2.603578248E0,3.060432076E-1,-4.984964728E-1,-9.407316893E-2,5.924617620E-1
2.606023300E0,3.176496327E-1,-5.198767185E-1,-9.773835540E-2,6.170298840E-1
2.608467571E0,3.310886621E-1,-5.418678522E-1,-1.026252732E-1,6.432514424E-1
2.610912623E0,3.451385498E-1,-5.650807023E-1,-1.062904596E-1,6.706224575E-1
2.613358457E0,3.591884375E-1,-5.882936120E-1,-1.087339222E-1,6.978028184E-1
2.615803457E0,3.738491833E-1,-6.084521413E-1,-1.130099744E-1,7.230134677E-1
2.618247727E0,3.885099292E-1,-6.292214990E-1,-1.172860265E-1,7.487427274E-1
2.620692779E0,4.037815630E-1,-6.499909163E-1,-1.203403547E-1,7.746028291E-1
2.623138613E0,4.159988463E-1,-6.683168411E-1,-1.252272725E-1,7.971099736E-1
2.625583665E0,4.276052713E-1,-6.884753704E-1,-1.307250559E-1,8.209346161E-1
2.628027884E0,4.404334426E-1,-7.080230713E-1,-1.343902349E-1,8.445939984E-1
2.630472936E0,4.520398676E-1,-7.281816006E-1,-1.386662871E-1,8.682262519E-1
2.632918769E0,4.654788971E-1,-7.477293015E-1,-1.441640705E-1,8.924981743E-1
2.635363821E0,4.807505310E-1,-7.672769427E-1,-1.478292644E-1,9.174358132E-1
2.637808092E0,4.960221350E-1,-7.825485468E-1,-1.514944583E-1,9.388134838E-1
2.640253144E0,5.119046569E-1,-8.020962477E-1,-1.576030999E-1,9.644913195E-1
2.642698977E0,5.283979774E-1,-8.259199858E-1,-1.612682939E-1,9.936577419E-1
2.645143977E0,5.436696410E-1,-8.521871567E-1,-1.673769355E-1,1.024604639E0
2.647588248E0,5.595520735E-1,-8.808977604E-1,-1.734855771E-1,1.057911448E0
2.650033300E0,5.778780580E-1,-9.132736325E-1,-1.802050918E-1,1.095666762E0
2.652479134E0,5.931496620E-1,-9.468711615E-1,-1.887571961E-1,1.133146415E0
2.654924186E0,6.084212661E-1,-9.774144292E-1,-1.954767108E-1,1.167787030E0
2.657368404E0,6.261363626E-1,-1.002459764E0,-2.028070837E-1,1.199209338E0
2.659813457E0,6.462948918E-1,-1.025061727E0,-2.095265985E-1,1.229776413E0
2.662259290E0,6.633991003E-1,-1.039111614E0,-2.162461132E-1,1.251644396E0
2.664704342E0,6.835576296E-1,-1.049496293E0,-2.223547548E-1,1.272059409E0
2.667148613E0,7.049378753E-1,-1.051939845E0,-2.278525382E-1,1.286635778E0
2.669593613E0,7.244855762E-1,-1.050107241E0,-2.351829261E-1,1.297272360E0
2.672039498E0,7.428115010E-1,-1.045220256E0,-2.425132990E-1,1.305016095E0
2.674484498E0,7.605265975E-1,-1.036057353E0,-2.498436719E-1,1.309288893E0
2.676928769E0,7.770199180E-1,-1.026283503E0,-2.596175075E-1,1.313171364E0
2.679373821E0,7.947350144E-1,-1.015287876E0,-2.700021863E-1,1.317313325E0
2.681819654E0,8.100066185E-1,-1.006735802E0,-2.791651785E-1,1.321953438E0
2.684264707E0,8.264999986E-1,-9.969620705E-1,-2.907716036E-1,1.327246678E0
2.686708925E0,8.442150354E-1,-9.865773916E-1,-3.035997450E-1,1.333494200E0
2.689153977E0,8.613192439E-1,-9.810795784E-1,-3.158170581E-1,1.343178467E0
2.691599811E0,8.765909076E-1,-9.755818248E-1,-3.298669457E-1,1.352399245E0
2.694044863E0,8.912516236E-1,-9.713057876E-1,-3.414733708E-1,1.361751979E0
2.696489082E0,9.059123993E-1,-9.688622952E-1,-3.536906540E-1,1.372759448E0
2.698934134E0,9.199622869E-1,-9.658079743E-1,-3.659079671E-1,1.383113984E0
2.701379967E0,9.340121746E-1,-9.651971459E-1,-3.762926459E-1,1.394840646E0
2.703825019E0,9.498946667E-1,-9.639753699E-1,-3.860664964E-1,1.407336396E0
2.706269290E0,9.669988751E-1,-9.615319371E-1,-3.946186006E-1,1.419631759E0
2.708714342E0,9.865465164E-1,-9.615319371E-1,-4.037815630E-1,1.435568614E0
2.711160175E0,1.003039837E0,-9.596993327E-1,-4.111119509E-1,1.447799972E0
2.713605175E0,1.022587538E0,-9.603102207E-1,-4.190531969E-1,1.464065085E0
2.716049446E0,1.039691806E0,-9.609210491E-1,-4.251618385E-1,1.478205298E0
2.718494498E0,1.057406783E0,-9.664188623E-1,-4.312704802E-1,1.496017630E0
2.720940332E0,1.074511051E0,-9.719166160E-1,-4.379899800E-1,1.513615252E0
2.723385384E0,1.092226148E0,-9.774144292E-1,-4.434877634E-1,1.531332204E0
2.725829602E0,1.107497692E0,-9.841338992E-1,-4.495964348E-1,1.548291841E0
2.728274654E0,1.125212789E0,-9.871882200E-1,-4.557050765E-1,1.564708126E0
2.730720488E0,1.142317057E0,-9.884099960E-1,-4.587593973E-1,1.578702873E0
2.733165540E0,1.159421206E0,-9.890208244E-1,-4.648680389E-1,1.593273993E0
2.735609811E0,1.176525474E0,-9.847447872E-1,-4.721984267E-1,1.605274382E0
2.738054811E0,1.195462227E0,-9.792470336E-1,-4.789179265E-1,1.617843339E0
2.740500696E0,1.213177323E0,-9.731383324E-1,-4.856374264E-1,1.629306951E0
2.742945696E0,1.229059815E0,-9.658079743E-1,-4.929678142E-1,1.639021153E0
2.745389967E0,1.248607516E0,-9.590884447E-1,-5.033525229E-1,1.652947409E0
2.747835019E0,1.264490008E0,-9.554232955E-1,-5.131263733E-1,1.665853334E0
2.750280852E0,1.277928948E0,-9.566450119E-1,-5.265653729E-1,1.680935206E0
2.752725904E0,1.293200612E0,-9.572558999E-1,-5.375609398E-1,1.696372142E0
2.755170123E0,1.307250500E0,-9.603102207E-1,-5.516108274E-1,1.713293347E0
2.757615175E0,1.321300387E0,-9.651971459E-1,-5.656607151E-1,1.731303639E0
2.760061009E0,1.335350275E0,-9.682514668E-1,-5.797106028E-1,1.748352265E0
2.762506061E0,1.349400163E0,-9.682514668E-1,-5.931496024E-1,1.763581059E0
2.764950332E0,1.364671826E0,-9.676405787E-1,-6.084212661E-1,1.780121884E0
2.767395332E0,1.378110766E0,-9.664188623E-1,-6.230819821E-1,1.794821957E0
2.769841217E0,1.391549826E0,-9.651971459E-1,-6.377427578E-1,1.809622135E0
2.772286217E0,1.406210542E0,-9.633645415E-1,-6.524035335E-1,1.825138268E0
2.774730488E0,1.417816997E0,-9.621427655E-1,-6.682859659E-1,1.839165536E0
2.777175540E0,1.429423451E0,-9.627536535E-1,-6.823358536E-1,1.853571746E0
2.779621373E0,1.442251563E0,-9.633645415E-1,-6.988292336E-1,1.869899224E0
2.782066425E0,1.451414585E0,-9.658079743E-1,-7.122682333E-1,1.883272518E0
2.784510644E0,1.459966660E0,-9.706948996E-1,-7.263181210E-1,1.897706312E0
2.786955696E0,1.468518853E0,-9.755818248E-1,-7.409788966E-1,1.912421827E0
2.789401529E0,1.477681756E0,-9.804687500E-1,-7.550287843E-1,1.927415577E0
2.791846582E0,1.486233830E0,-9.853556752E-1,-7.666352391E-1,1.941016846E0
2.794290852E0,1.496007681E0,-9.890208244E-1,-7.782416344E-1,1.954958111E0
2.796735852E0,1.503948927E0,-9.884099960E-1,-7.898480892E-1,1.965369354E0
2.799181686E0,1.513722777E0,-9.896317124E-1,-7.996218801E-1,1.977403025E0
2.801626738E0,1.520442247E0,-9.877991080E-1,-8.093957305E-1,1.985601459E0
2.804071009E0,1.526550889E0,-9.859665036E-1,-8.210021853E-1,1.994124407E0
2.806516061E0,1.532048702E0,-9.847447872E-1,-8.301651478E-1,2.001516848E0
2.808961894E0,1.538768291E0,-9.829121828E-1,-8.411607146E-1,2.010342150E0
2.811406946E0,1.545487761E0,-9.804687500E-1,-8.515453935E-1,2.018658205E0
2.813851165E0,1.554039836E0,-9.774144292E-1,-8.600975275E-1,2.027349633E0
2.816296217E0,1.562591910E0,-9.719166160E-1,-8.692604899E-1,2.035173011E0
2.818742050E0,1.572365761E0,-9.664188623E-1,-8.808669448E-1,2.045049163E0
2.821187102E0,1.582139611E0,-9.627536535E-1,-8.936950564E-1,2.056392764E0
2.823631321E0,1.589470029E0,-9.596993327E-1,-9.040797949E-1,2.065138750E0
2.826076373E0,1.599854708E0,-9.578667283E-1,-9.150753617E-1,2.077114988E0
2.828522207E0,1.608406782E0,-9.572558999E-1,-9.272926450E-1,2.088823325E0
2.830967259E0,1.615126371E0,-9.584776163E-1,-9.388990402E-1,2.099724731E0
2.833411529E0,1.620624065E0,-9.615319371E-1,-9.523380995E-1,2.111377248E0
2.835856529E0,1.629176259E0,-9.645862579E-1,-9.645553827E-1,2.124855058E0
2.838302415E0,1.634063125E0,-9.694731832E-1,-9.737183452E-1,2.134986643E0
2.840747415E0,1.640171766E0,-9.725275040E-1,-9.853248000E-1,2.146354614E0
2.843191686E0,1.646280408E0,-9.743601084E-1,-9.944877625E-1,2.156066491E0
2.845636738E0,1.651778221E0,-9.761926532E-1,-1.003650784E0,2.165326369E0
2.848082571E0,1.656665087E0,-9.774144292E-1,-1.010981202E0,2.173007402E0
2.850527623E0,1.657886863E0,-9.804687500E-1,-1.018922448E0,2.179016011E0
2.852971842E0,1.658497691E0,-9.816904664E-1,-1.026252747E0,2.183466387E0
2.855416894E0,1.659108639E0,-9.835230708E-1,-1.033583164E0,2.188207774E0
2.857862727E0,1.657886863E0,-9.847447872E-1,-1.037859201E0,2.189854531E0
2.860307779E0,1.658497691E0,-9.823013544E-1,-1.043357015E0,2.191831290E0
2.862752050E0,1.659108639E0,-9.792470336E-1,-1.047633052E0,2.192966311E0
2.865197050E0,1.659108639E0,-9.731383324E-1,-1.050076485E0,2.191415139E0
2.867642884E0,1.657276034E0,-9.621427655E-1,-1.051909089E0,2.186045582E0
2.870087936E0,1.656665087E0,-9.487037659E-1,-1.054963470E0,2.181175364E0
2.872532207E0,1.652389050E0,-9.309886694E-1,-1.055574298E0,2.170568260E0
2.874977259E0,1.649945617E0,-9.096084237E-1,-1.056795955E0,2.160214275E0
2.877423092E0,1.646891356E0,-8.870064616E-1,-1.057406902E0,2.148753349E0
2.879868144E0,1.644447803E0,-8.644044399E-1,-1.060461164E0,2.139154387E0
2.882312363E0,1.643836975E0,-8.430241942E-1,-1.061072111E0,2.130437471E0
2.884757415E0,1.642615199E0,-8.234764934E-1,-1.064126372E0,2.123361289E0
2.887203248E0,1.644447803E0,-8.045396805E-1,-1.067180753E0,2.119048710E0
2.889648300E0,1.644447803E0,-7.923223972E-1,-1.069624186E0,2.115674658E0
2.892092519E0,1.642615199E0,-7.849920392E-1,-1.074511051E0,2.113994133E0
2.894537571E0,1.639560938E0,-7.831594348E-1,-1.079398036E0,2.113432963E0
2.896983404E0,1.635895729E0,-7.819377184E-1,-1.086728334E0,2.113896853E0
2.899428457E0,1.631008863E0,-7.856028676E-1,-1.091615319E0,2.113997584E0
2.901872727E0,1.627954483E0,-7.880463600E-1,-1.095280528E0,2.114448462E0
2.904317779E0,1.627343655E0,-7.886571884E-1,-1.101389170E0,2.117377065E0
2.906763613E0,1.630397916E0,-7.892680764E-1,-1.105665207E0,2.122177422E0
2.909208613E0,1.632230520E0,-7.837703228E-1,-1.109330416E0,2.123460939E0
2.911652884E0,1.635895729E0,-7.764399052E-1,-1.112995625E0,2.125505357E0
2.914097936E0,1.638339162E0,-7.617791891E-1,-1.115439057E0,2.123362200E0
2.916543769E0,1.640171766E0,-7.458966970E-1,-1.119715095E0,2.121388036E0
2.918988821E0,1.640782595E0,-7.269598842E-1,-1.122769356E0,2.116896129E0
2.921433040E0,1.640171766E0,-7.055796385E-1,-1.126434565E0,2.111127869E0
2.923878092E0,1.641393542E0,-6.823667288E-1,-1.128877997E0,2.105745152E0
2.926323925E0,1.639560938E0,-6.609864831E-1,-1.131932378E0,2.099126987E0
2.928768977E0,1.636506557E0,-6.377736330E-1,-1.135597587E0,2.091528340E0
2.931213248E0,1.632230520E0,-6.194477081E-1,-1.136208415E0,2.082993398E0
2.933658300E0,1.629787087E0,-5.992891788E-1,-1.139262795E0,2.076842119E0
2.936104134E0,1.626732707E0,-5.821849108E-1,-1.142317057E0,2.071252478E0
2.938549134E0,1.622456670E0,-5.693567991E-1,-1.145982265E0,2.066351413E0
2.940993404E0,1.616958976E0,-5.577503443E-1,-1.148425698E0,2.060224104E0
2.943438457E0,1.613293767E0,-5.540851355E-1,-1.152701735E0,2.058749234E0
2.945884290E0,1.607185125E0,-5.516417027E-1,-1.155145288E0,2.054680810E0
2.948329342E0,1.598022103E0,-5.546960235E-1,-1.157588720E0,2.049725339E0
2.950773561E0,1.588859200E0,-5.601937771E-1,-1.160642982E0,2.045820803E0
2.953218613E0,1.577863574E0,-5.687459111E-1,-1.162475586E0,2.040704500E0
2.955664446E0,1.567478895E0,-5.766871572E-1,-1.163697362E0,2.035620228E0
2.958109498E0,1.558315873E0,-5.858501196E-1,-1.166140795E0,2.032597618E0
2.960553769E0,1.548542023E0,-5.907370448E-1,-1.166751623E0,2.026884802E0
2.962998769E0,1.536324739E0,-5.968456864E-1,-1.166751623E0,2.019363224E0
2.965444602E0,1.525940061E0,-6.017326117E-1,-1.166140795E0,2.012575355E0
2.967889654E0,1.513722777E0,-6.035652161E-1,-1.167973399E0,2.004946253E0
2.970333925E0,1.502727270E0,-6.005108953E-1,-1.169195175E0,1.996451838E0
2.972778977E0,1.492953420E0,-5.950130820E-1,-1.169195175E0,1.987452600E0
2.975224811E0,1.483179569E0,-5.858501196E-1,-1.169806004E0,1.977748236E0
2.977669863E0,1.474627495E0,-5.754654408E-1,-1.170416832E0,1.968644783E0
2.980114082E0,1.466686249E0,-5.669133067E-1,-1.174082041E0,1.962403600E0
2.982559134E0,1.458745003E0,-5.571394563E-1,-1.176525474E0,1.955135174E0
2.985004967E0,1.450803757E0,-5.516417027E-1,-1.178968906E0,1.949130009E0
2.987450019E0,1.442862511E0,-5.491982698E-1,-1.183855891E0,1.945503980E0
2.989894238E0,1.434310317E0,-5.498090982E-1,-1.188742757E0,1.942329908E0
2.992339290E0,1.428201675E0,-5.559177399E-1,-1.191797137E0,1.941438893E0
2.994785123E0,1.421482205E0,-5.656915903E-1,-1.195462346E0,1.941584110E0
2.997230175E0,1.416595340E0,-5.815740824E-1,-1.199738383E0,1.945338777E0
2.999674446E0,1.410486698E0,-5.962347984E-1,-1.203403592E0,1.947600797E0
3.002119498E0,1.404378057E0,-6.188368201E-1,-1.206457853E0,1.952121228E0
3.004565332E0,1.398269415E0,-6.432713866E-1,-1.207679629E0,1.956385831E0
3.007010332E0,1.390938997E0,-6.719820499E-1,-1.206457853E0,1.960054010E0
3.009454602E0,1.384219527E0,-7.049687505E-1,-1.204625249E0,1.965748364E0
3.011899654E0,1.378110766E0,-7.379554510E-1,-1.201570988E0,1.971684653E0
3.014345488E0,1.372613072E0,-7.721638680E-1,-1.196073174E0,1.977598221E0
3.016790540E0,1.368947864E0,-8.100374937E-1,-1.188742757E0,1.985771471E0
3.019234759E0,1.364060879E0,-8.399698734E-1,-1.180801511E0,1.990101424E0
3.021679811E0,1.361006618E0,-8.692913651E-1,-1.171027660E0,1.994821363E0
3.024125644E0,1.357952237E0,-8.937259316E-1,-1.159421325E0,1.996756902E0
3.026570696E0,1.353676200E0,-9.169387817E-1,-1.149036646E0,1.998374639E0
3.029014967E0,1.350621939E0,-9.340429902E-1,-1.133764982E0,1.995504689E0
3.031460019E0,1.343902349E0,-9.493146539E-1,-1.121547699E0,1.991266200E0
3.033905852E0,1.338404655E0,-9.615319371E-1,-1.108719468E0,1.986235018E0
3.036350852E0,1.332296014E0,-9.731383324E-1,-1.097113132E0,1.981329884E0
3.038795123E0,1.326187372E0,-9.847447872E-1,-1.088560939E0,1.978246739E0
3.041240175E0,1.320078731E0,-9.981837869E-1,-1.080619693E0,1.976541841E0
3.043686009E0,1.310915709E0,-1.013455391E0,-1.075121999E0,1.975216225E0
3.046131061E0,1.302974463E0,-1.030559540E0,-1.069013357E0,1.975496133E0
3.048575279E0,1.291368008E0,-1.050718069E0,-1.068402410E0,1.978161647E0
3.051020332E0,1.277928948E0,-1.073320031E0,-1.065958977E0,1.980249183E0
3.053466165E0,1.265711665E0,-1.098976374E0,-1.065348148E0,1.986137399E0
3.055911217E0,1.252272725E0,-1.128908753E0,-1.065958977E0,1.994715642E0
3.058355488E0,1.240666270E0,-1.163117170E0,-1.067791581E0,2.008052093E0
3.060800488E0,1.231503248E0,-1.202212453E0,-1.070845962E0,2.026974619E0
3.063246321E0,1.219896913E0,-1.241918683E0,-1.074511051E0,2.045747905E0
3.065691373E0,1.211344719E0,-1.285290122E0,-1.078176260E0,2.069248843E0
3.068135644E0,1.202792645E0,-1.332326651E0,-1.084895849E0,2.097332461E0
3.070580696E0,1.193629622E0,-1.373254657E0,-1.089171886E0,2.120583747E0
3.073026529E0,1.182634115E0,-1.417847753E0,-1.094669580E0,2.146442916E0
3.075471582E0,1.171638489E0,-1.460608244E0,-1.101389170E0,2.172365368E0
3.077915800E0,1.160642982E0,-1.499092817E0,-1.105665207E0,2.194736193E0
3.080360852E0,1.149647474E0,-1.536966324E0,-1.111163020E0,2.217800273E0
3.082806686E0,1.139262676E0,-1.572396517E0,-1.114828110E0,2.239015848E0
3.085251738E0,1.128877997E0,-1.605994105E0,-1.121547699E0,2.260852016E0
3.087695957E0,1.118493319E0,-1.639591694E0,-1.126434565E0,2.282135635E0
3.090141009E0,1.109330297E0,-1.673800111E0,-1.131321549E0,2.304801286E0
3.092586842E0,1.098945618E0,-1.709841132E0,-1.137430191E0,2.329159850E0
3.095031894E0,1.087339163E0,-1.745271206E0,-1.142927885E0,2.352565023E0
3.097476165E0,1.074511051E0,-1.780701399E0,-1.149036646E0,2.376080109E0
3.099921217E0,1.062293768E0,-1.814298987E0,-1.155756116E0,2.399150071E0
3.102367050E0,1.050687313E0,-1.850340009E0,-1.161864758E0,2.424382745E0
3.104812050E0,1.040302634E0,-1.887602687E0,-1.167362571E0,2.451123996E0
3.107256321E0,1.028696179E0,-1.923643708E0,-1.174692869E0,2.477604545E0
3.109701373E0,1.021365881E0,-1.957852125E0,-1.179579854E0,2.503553842E0
3.112147207E0,1.014646292E0,-1.988395452E0,-1.184466720E0,2.527090221E0
3.114592259E0,1.006705046E0,-2.018938780E0,-1.189353704E0,2.550319800E0
3.117036477E0,1.000596404E0,-2.043984175E0,-1.193018794E0,2.569505461E0
3.119481529E0,9.969312549E-1,-2.064753532E0,-1.195462346E0,2.585770542E0
3.121927363E0,9.883791208E-1,-2.080025196E0,-1.196073174E0,2.594993091E0
3.124372415E0,9.798270464E-1,-2.086744547E0,-1.197294950E0,2.597706497E0
3.126816686E0,9.700531960E-1,-2.085522890E0,-1.199127436E0,2.593899677E0
3.129261686E0,9.596685171E-1,-2.074527264E0,-1.196684003E0,2.580054192E0
3.131707571E0,9.486729503E-1,-2.052536249E0,-1.196073174E0,2.558021982E0
3.134152571E0,9.370664954E-1,-2.020160437E0,-1.191797137E0,2.525771609E0
3.136596842E0,9.297361374E-1,-1.980454206E0,-1.188131928E0,2.489631625E0
3.139041894E0,9.205731153E-1,-1.934639335E0,-1.184466720E0,2.448110624E0
3.141487727E0,9.095776081E-1,-1.880272388E0,-1.179579854E0,2.398783924E0
3.143932779E0,8.949168324E-1,-1.824072838E0,-1.175303817E0,2.347223235E0
3.146376998E0,8.772017360E-1,-1.764208078E0,-1.170416832E0,2.291678117E0
3.148822050E0,8.564323783E-1,-1.700678110E0,-1.165529966E0,2.232541725E0
3.151267884E0,8.326086402E-1,-1.642035127E0,-1.161253929E0,2.176700988E0
3.153712936E0,8.112283349E-1,-1.585224748E0,-1.158810377E0,2.124587113E0
3.156157154E0,7.892372012E-1,-1.534522891E0,-1.154534340E0,2.076199751E0
3.158602207E0,7.690786719E-1,-1.491151571E0,-1.153923512E0,2.036309034E0
3.161048040E0,7.483093143E-1,-1.454499602E0,-1.152701735E0,2.001064020E0
3.163493092E0,7.287616134E-1,-1.424567223E0,-1.152090907E0,1.971750166E0
3.165937363E0,7.079921961E-1,-1.403187037E0,-1.149647474E0,1.947274024E0
3.168382415E0,6.878336668E-1,-1.387915373E0,-1.147814870E0,1.927927180E0
3.170828248E0,6.658425331E-1,-1.376919866E0,-1.145371437E0,1.910793114E0
3.173273248E0,6.426296830E-1,-1.370811224E0,-1.143538833E0,1.897307930E0
3.175717519E0,6.200277209E-1,-1.368367672E0,-1.141706228E0,1.886890980E0
3.178162571E0,6.010909081E-1,-1.372032881E0,-1.141095400E0,1.883051571E0
3.180608404E0,5.778780580E-1,-1.376308918E0,-1.142317057E0,1.879642930E0
3.183053457E0,5.583303571E-1,-1.384861112E0,-1.144149661E0,1.881130387E0
3.185497675E0,5.387827158E-1,-1.394024014E0,-1.146593094E0,1.883684021E0
3.187942727E0,5.204567313E-1,-1.399521828E0,-1.149647474E0,1.884469652E0
3.190388561E0,5.015199780E-1,-1.409295678E0,-1.153923512E0,1.889226314E0
3.192833613E0,4.862482846E-1,-1.418458581E0,-1.156977773E0,1.893953459E0
3.195277884E0,4.721983969E-1,-1.422734618E0,-1.160642982E0,1.895847370E0
3.197722884E0,4.550941885E-1,-1.426399827E0,-1.166140795E0,1.897791227E0
3.200168717E0,4.416551888E-1,-1.429454207E0,-1.172249436E0,1.900675506E0
3.202613769E0,4.276052713E-1,-1.427010775E0,-1.179579854E0,1.900161743E0
3.205058040E0,4.153879881E-1,-1.421512961E0,-1.187521100E0,1.898276229E0
3.207503092E0,4.050032794E-1,-1.409906507E0,-1.194240570E0,1.891579909E0
3.209948925E0,3.933968544E-1,-1.392802358E0,-1.203403592E0,1.882243262E0
3.212393977E0,3.848447502E-1,-1.375087261E0,-1.213177323E0,1.873704799E0
3.214838196E0,3.769035041E-1,-1.352485180E0,-1.222951174E0,1.861956494E0
3.217283248E0,3.701840043E-1,-1.332937598E0,-1.234557629E0,1.854155165E0
3.219729082E0,3.610210419E-1,-1.314000726E0,-1.243720651E0,1.844932291E0
3.222174134E0,3.518580496E-1,-1.299340010E0,-1.256548762E0,1.841467714E0
3.224618352E0,3.414733708E-1,-1.285290122E0,-1.266933441E0,1.836762125E0
3.227063404E0,3.335321248E-1,-1.279181480E0,-1.278539896E0,1.839079445E0
3.229509238E0,3.225365579E-1,-1.276738048E0,-1.287702918E0,1.841811249E0
3.231954290E0,3.133735955E-1,-1.277348876E0,-1.295644164E0,1.846216932E0
3.234398561E0,3.029888868E-1,-1.281624913E0,-1.300531030E0,1.850876993E0
3.236843613E0,2.889389992E-1,-1.286511898E0,-1.304807067E0,1.855025631E0
3.239289446E0,2.773325741E-1,-1.296285629E0,-1.304807067E0,1.860051416E0
3.241734446E0,2.626717985E-1,-1.306059480E0,-1.305418015E0,1.865182037E0
3.244178717E0,2.480110526E-1,-1.317665935E0,-1.301752806E0,1.868773224E0
3.246623769E0,2.370155007E-1,-1.329883218E0,-1.294422388E0,1.870907544E0
3.249069602E0,2.174678296E-1,-1.342100501E0,-1.287091970E0,1.872199709E0
3.251514654E0,2.034179419E-1,-1.351263523E0,-1.278539896E0,1.871351446E0
3.253958873E0,1.863137335E-1,-1.363480806E0,-1.269987822E0,1.872608284E0
3.256403925E0,1.692095250E-1,-1.375698090E0,-1.260824800E0,1.873727908E0
3.258849759E0,1.545487642E-1,-1.386082768E0,-1.251050949E0,1.873563247E0
3.261294811E0,1.331685036E-1,-1.394634843E0,-1.244331479E0,1.873793218E0
3.263739082E0,1.215620860E-1,-1.400743484E0,-1.240055442E0,1.874725886E0
3.266184082E0,1.007926837E-1,-1.409295678E0,-1.234557629E0,1.876274503E0
3.268629915E0,8.857538551E-2,-1.412349939E0,-1.231503367E0,1.875947359E0
3.271074967E0,7.024944574E-2,-1.419069529E0,-1.231503367E0,1.880237713E0
3.273519238E0,6.047561020E-2,-1.419680357E0,-1.230892420E0,1.879958979E0
3.275964290E0,4.703658819E-2,-1.422734618E0,-1.233946800E0,1.883881881E0
3.278410123E0,3.543015569E-2,-1.420902133E0,-1.238833666E0,1.885451410E0
3.280855175E0,2.871064469E-2,-1.416015148E0,-1.244331479E0,1.885280889E0
3.283299394E0,1.343902573E-2,-1.409906507E0,-1.252883554E0,1.886195685E0
3.285744446E0,7.330378052E-3,-1.396467447E0,-1.259603143E0,1.880631581E0
3.288190279E0,-7.330375258E-3,-1.380584955E0,-1.268155217E0,1.874642955E0
3.290635332E0,-1.343902200E-2,-1.353706956E0,-1.276096463E0,1.860409985E0
3.293079550E0,-2.626718208E-2,-1.328661561E0,-1.284648538E0,1.848338003E0
3.295524602E0,-3.115409613E-2,-1.295674801E0,-1.293200612E0,1.830877273E0
3.297970436E0,-3.970620409E-2,-1.261466384E0,-1.301141858E0,1.812689757E0
3.300415488E0,-4.764744639E-2,-1.222371101E0,-1.309083104E0,1.791691927E0
3.302859759E0,-5.009090528E-2,-1.183275700E0,-1.319467902E0,1.773033002E0
3.305304811E0,-5.681041628E-2,-1.142347813E0,-1.330463409E0,1.754513845E0
3.307750644E0,-5.619955063E-2,-1.097754598E0,-1.337793827E0,1.731449067E0
3.310195644E0,-6.414078921E-2,-1.055604935E0,-1.348789334E0,1.713956968E0
3.312639915E0,-6.169733405E-2,-1.007346749E0,-1.359174013E0,1.692899298E0
3.315084967E0,-6.902771443E-2,-9.633645415E-1,-1.368947864E0,1.675366921E0
3.317530800E0,-6.780598313E-2,-9.157170653E-1,-1.376278281E0,1.654471910E0
3.319975852E0,-6.841684878E-2,-8.723456860E-1,-1.382997751E0,1.636566724E0
3.322420071E0,-6.719511747E-2,-8.277525306E-1,-1.387273788E0,1.616854353E0
3.324865123E0,-6.291906536E-2,-7.837703228E-1,-1.389106393E0,1.596205281E0
3.327310957E0,-6.414078921E-2,-7.446749806E-1,-1.390328169E0,1.578501595E0
3.329756009E0,-5.619955063E-2,-7.025252581E-1,-1.387273788E0,1.556029785E0
3.332200227E0,-5.681041628E-2,-6.695386171E-1,-1.384219527E0,1.538692004E0
3.334645279E0,-4.948003963E-2,-6.316649914E-1,-1.378721714E0,1.517340601E0
3.337091113E0,-5.131263286E-2,-5.999000072E-1,-1.371391296E0,1.497740663E0
3.339536165E0,-4.948003963E-2,-5.669133067E-1,-1.362228394E0,1.476314725E0
3.341980436E0,-5.009090528E-2,-5.406461358E-1,-1.351843715E0,1.456807733E0
3.344425488E0,-5.131263286E-2,-5.143789649E-1,-1.342069864E0,1.438182960E0
3.346871321E0,-4.886917397E-2,-4.887226224E-1,-1.332296014E0,1.419947417E0
3.349316373E0,-5.253436416E-2,-4.679532349E-1,-1.322522163E0,1.403853611E0
3.351760592E0,-5.375609174E-2,-4.459621012E-1,-1.310304880E0,1.385160926E0
3.354205644E0,-5.864300951E-2,-4.239709675E-1,-1.298087597E0,1.366829102E0
3.356651477E0,-6.291906536E-2,-4.001472592E-1,-1.288313746E0,1.350492113E0
3.359096529E0,-6.902771443E-2,-3.775452673E-1,-1.278539896E0,1.334904311E0
3.361540748E0,-7.574722171E-2,-3.555541337E-1,-1.271209478E0,1.322168643E0
3.363985800E0,-8.185587078E-2,-3.341738582E-1,-1.263879180E0,1.309871418E0
3.366431634E0,-8.857538551E-2,-3.127935827E-1,-1.260213971E0,1.301470198E0
3.368876686E0,-9.468402714E-2,-2.932459116E-1,-1.258381367E0,1.295562385E0
3.371320957E0,-1.020144075E-1,-2.749199867E-1,-1.258992195E0,1.292690715E0
3.373765957E0,-1.081230566E-1,-2.553723156E-1,-1.260213971E0,1.290366176E0
3.376211842E0,-1.111773774E-1,-2.364355028E-1,-1.262657404E0,1.289405241E0
3.378656842E0,-1.160642952E-1,-2.181095630E-1,-1.265711784E0,1.289600335E0
3.381101113E0,-1.178968921E-1,-1.991727501E-1,-1.269376993E0,1.290305163E0
3.383546165E0,-1.221729442E-1,-1.808468103E-1,-1.276096463E0,1.294625035E0
3.385991998E0,-1.270598620E-1,-1.637426019E-1,-1.281594276E0,1.298244868E0
3.388437050E0,-1.282815933E-1,-1.472492516E-1,-1.291368127E0,1.306051357E0
3.390881269E0,-1.331685185E-1,-1.295341700E-1,-1.300531030E0,1.313732817E0
3.393326321E0,-1.362228394E-1,-1.105973646E-1,-1.308472276E0,1.320184887E0
3.395772154E0,-1.398880333E-1,-8.799536526E-2,-1.320078731E0,1.330383291E0
3.398217207E0,-1.429423541E-1,-6.722597033E-2,-1.328630805E0,1.337987916E0
3.400661425E0,-1.453858018E-1,-4.095878452E-2,-1.338404655E0,1.346900767E0
3.403106477E0,-1.453858018E-1,-1.469159964E-2,-1.346345901E0,1.354252621E0
3.405552311E0,-1.459966749E-1,1.707336679E-2,-1.353065372E0,1.361026241E0
3.407997363E0,-1.466075331E-1,5.250352249E-2,-1.359174013E0,1.368065929E0
3.410441634E0,-1.453858018E-1,8.976627141E-2,-1.363450050E0,1.374114644E0
3.412886686E0,-1.453858018E-1,1.288616061E-1,-1.365893602E0,1.379640416E0
3.415332519E0,-1.435532123E-1,1.697895378E-1,-1.367115259E0,1.385077667E0
3.417777519E0,-1.411097497E-1,2.094957381E-1,-1.365893602E0,1.389052108E0
3.420221790E0,-1.374445707E-1,2.504236698E-1,-1.364671826E0,1.394249697E0
3.422666842E0,-1.325576454E-1,2.895190120E-1,-1.363450050E0,1.400138860E0
3.425112675E0,-1.282815933E-1,3.267817795E-1,-1.359784961E0,1.404370905E0
3.427557727E0,-1.240055338E-1,3.640445173E-1,-1.355508804E0,1.409010256E0
3.430001946E0,-1.203403473E-1,3.994746804E-1,-1.350621939E0,1.413591681E0
3.432446998E0,-1.154534295E-1,4.342939556E-1,-1.343902469E0,1.417044311E0
3.434892832E0,-1.130099669E-1,4.666697979E-1,-1.335961223E0,1.419628241E0
3.437337884E0,-1.099556461E-1,5.002673268E-1,-1.328630805E0,1.423944331E0
3.439782154E0,-1.062904596E-1,5.308105946E-1,-1.319467902E0,1.426202333E0
3.442227154E0,-1.038469970E-1,5.607429743E-1,-1.309694052E0,1.428466097E0
3.444672988E0,-9.896007925E-2,5.876210332E-1,-1.298087597E0,1.428328738E0
3.447118040E0,-9.407316148E-2,6.120555997E-1,-1.288924575E0,1.429960970E0
3.449562311E0,-9.101884067E-2,6.377118826E-1,-1.276707292E0,1.430014819E0
3.452007363E0,-8.552105725E-2,6.572595835E-1,-1.266933441E0,1.429833681E0
3.454453196E0,-8.246673644E-2,6.743637919E-1,-1.256548762E0,1.428454437E0
3.456898196E0,-8.124500513E-2,6.902462840E-1,-1.246164083E0,1.426872666E0
3.459342467E0,-8.124500513E-2,7.030744553E-1,-1.236390233E0,1.424631619E0
3.461787519E0,-8.246673644E-2,7.159025669E-1,-1.230281591E0,1.425801544E0
3.464233352E0,-8.491019160E-2,7.287307382E-1,-1.222951174E0,1.426137372E0
3.466678404E0,-8.613192290E-2,7.378937006E-1,-1.218064308E0,1.426739808E0
3.469122623E0,-9.162970632E-2,7.495001554E-1,-1.213177323E0,1.428966656E0
3.471567675E0,-9.590575844E-2,7.580522895E-1,-1.207679629E0,1.429101562E0
3.474013509E0,-1.007926762E-1,7.672152519E-1,-1.204014421E0,1.431233430E0
3.476458561E0,-1.038469970E-1,7.757673264E-1,-1.202792645E0,1.435029369E0
3.478902832E0,-1.087339148E-1,7.837085724E-1,-1.201570988E0,1.438678223E0
3.481347832E0,-1.130099669E-1,7.934824228E-1,-1.200349212E0,1.443337742E0
3.483793665E0,-1.154534295E-1,8.069214225E-1,-1.200960040E0,1.451467083E0
3.486238717E0,-1.172860265E-1,8.203604817E-1,-1.200960040E0,1.459127256E0
3.488682988E0,-1.185077503E-1,8.386864066E-1,-1.200349212E0,1.469107622E0
3.491128040E0,-1.203403473E-1,8.618992567E-1,-1.199738383E0,1.482135053E0
3.493573873E0,-1.227838024E-1,8.912207484E-1,-1.198516607E0,1.498596791E0
3.496018925E0,-1.252272725E-1,9.235966206E-1,-1.193629742E0,1.514418881E0
3.498463144E0,-1.270598620E-1,9.578050375E-1,-1.189353704E0,1.532350134E0
3.500908196E0,-1.295033246E-1,9.944568872E-1,-1.185077548E0,1.552457538E0
3.503354029E0,-1.282815933E-1,1.027443767E0,-1.181412458E0,1.570933562E0
3.505799082E0,-1.252272725E-1,1.057376146E0,-1.174692869E0,1.585443005E0
3.508243300E0,-1.233946756E-1,1.083643317E0,-1.167973399E0,1.598020947E0
3.510688352E0,-1.191186160E-1,1.104412675E0,-1.163086534E0,1.608318030E0
3.513134186E0,-1.148425639E-1,1.120295167E0,-1.158199549E0,1.615449247E0
3.515579238E0,-1.111773774E-1,1.130679846E0,-1.155145288E0,1.620233921E0
3.518023509E0,-1.069013253E-1,1.136788487E0,-1.152701735E0,1.622478736E0
3.520468561E0,-1.050687283E-1,1.143508077E0,-1.151480079E0,1.626209252E0
3.522914394E0,-1.032361314E-1,1.144729733E0,-1.150869131E0,1.626518865E0
3.525359394E0,-1.032361314E-1,1.146562338E0,-1.150258303E0,1.627377355E0
3.527803665E0,-1.020144075E-1,1.147173166E0,-1.150869131E0,1.628162452E0
3.530248717E0,-1.020144075E-1,1.150227547E0,-1.149647474E0,1.629453793E0
3.532694550E0,-1.014035419E-1,1.155114412E0,-1.146593094E0,1.630719996E0
3.535139602E0,-1.007926762E-1,1.158779621E0,-1.142927885E0,1.630709516E0
3.537583821E0,-9.834922105E-2,1.166110039E0,-1.138041019E0,1.632367163E0
3.540028873E0,-9.651662409E-2,1.171607852E0,-1.132543206E0,1.632370831E0
3.542474707E0,-9.346229583E-2,1.178938150E0,-1.126434565E0,1.633243764E0
3.544919759E0,-9.101884067E-2,1.187490225E0,-1.117882490E0,1.633425458E0
3.547363977E0,-9.040797502E-2,1.195431471E0,-1.110552073E0,1.634183560E0
3.549809029E0,-8.918624371E-2,1.204594493E0,-1.099556565E0,1.633409538E0
3.552254863E0,-8.918624371E-2,1.213757515E0,-1.091004491E0,1.634457797E0
3.554699915E0,-8.857538551E-2,1.220476985E0,-1.082452297E0,1.633741915E0
3.557144186E0,-8.735365421E-2,1.224142194E0,-1.072678447E0,1.629967430E0
3.559589238E0,-8.918624371E-2,1.229029059E0,-1.062293768E0,1.626940277E0
3.562035071E0,-9.285143763E-2,1.232694268E0,-1.052519917E0,1.623562356E0
3.564480123E0,-9.407316148E-2,1.237581134E0,-1.041524410E0,1.620256128E0
3.566924342E0,-9.529489279E-2,1.240635514E0,-1.032361388E0,1.616795482E0
3.569369394E0,-9.590575844E-2,1.242468119E0,-1.020144105E0,1.610471650E0
3.571815227E0,-9.529489279E-2,1.244300723E0,-1.006705165E0,1.603377902E0
3.574260279E0,-9.468402714E-2,1.248576760E0,-9.963203669E-1,1.600176011E0
3.576704498E0,-9.468402714E-2,1.249798536E0,-9.853248000E-1,1.594310637E0
3.579149550E0,-9.590575844E-2,1.254074574E0,-9.743292332E-1,1.590980328E0
3.581595384E0,-9.590575844E-2,1.256518006E0,-9.615010619E-1,1.585092965E0
3.584040436E0,-9.529489279E-2,1.261404872E0,-9.505054951E-1,1.582303404E0
3.586484707E0,-9.346229583E-2,1.265680909E0,-9.431751370E-1,1.581221902E0
3.588929707E0,-8.979710937E-2,1.266291857E0,-9.346230030E-1,1.576413253E0
3.591375540E0,-8.674278855E-2,1.267513514E0,-9.297360778E-1,1.574332872E0
3.593820592E0,-8.368846029E-2,1.267513514E0,-9.230166078E-1,1.570208242E0
3.596264863E0,-8.063413948E-2,1.263848424E0,-9.187405109E-1,1.564576246E0
3.598709915E0,-8.063413948E-2,1.257128835E0,-9.175187945E-1,1.558433672E0
3.601155748E0,-8.246673644E-2,1.247965932E0,-9.144644737E-1,1.549343410E0
3.603600800E0,-8.491019160E-2,1.235748649E0,-9.120210409E-1,1.538202471E0
3.606045019E0,-9.224057198E-2,1.221087813E0,-9.095775485E-1,1.525416365E0
3.608490071E0,-9.896007925E-2,1.202761889E0,-9.053015113E-1,1.508641801E0
3.610935904E0,-1.026252732E-1,1.183214188E0,-8.991928697E-1,1.489656194E0
3.613380957E0,-1.056795940E-1,1.160612226E0,-8.924733400E-1,1.467888816E0
3.615825175E0,-1.069013253E-1,1.133734226E0,-8.845320940E-1,1.441935579E0
3.618270227E0,-1.050687283E-1,1.103801847E0,-8.741474152E-1,1.411931888E0
3.620716061E0,-1.032361314E-1,1.069593430E0,-8.625409603E-1,1.377920430E0
3.623161113E0,-9.834922105E-2,1.029887199E0,-8.509345651E-1,1.339563305E0
3.625605384E0,-9.346229583E-2,9.865156412E-1,-8.387172222E-1,1.298227596E0
3.628050384E0,-8.796451986E-2,9.382573366E-1,-8.240565062E-1,1.251852113E0
3.630496217E0,-8.246673644E-2,8.869447112E-1,-8.112283349E-1,1.204808323E0
3.632941269E0,-8.063413948E-2,8.337994814E-1,-7.965675592E-1,1.155959911E0
3.635385540E0,-7.819068432E-2,7.739347219E-1,-7.831285596E-1,1.103802101E0
3.637830592E0,-7.757981867E-2,7.146808505E-1,-7.709112763E-1,1.054083271E0
3.640276425E0,-7.880154997E-2,6.511509418E-1,-7.562505007E-1,1.001060464E0
3.642721425E0,-8.185587078E-2,5.845666528E-1,-7.440332174E-1,9.497389029E-1
3.645165696E0,-8.307760209E-2,5.149281025E-1,-7.330376506E-1,8.996649576E-1
3.647610748E0,-8.552105725E-2,4.428460598E-1,-7.220420837E-1,8.513349838E-1
3.650056582E0,-8.552105725E-2,3.695423007E-1,-7.122682333E-1,8.069705071E-1
3.652501634E0,-8.552105725E-2,2.919624746E-1,-7.012726665E-1,7.644208857E-1
3.654945852E0,-8.429932594E-2,2.156043947E-1,-6.945531964E-1,7.321173226E-1
3.657390904E0,-8.124500513E-2,1.410788894E-1,-6.872227788E-1,7.062429834E-1
3.659836738E0,-7.757981867E-2,6.655340642E-2,-6.817250252E-1,6.893453373E-1
3.662281790E0,-7.452549040E-2,5.800157669E-4,-6.774489880E-1,6.815361446E-1
3.664726061E0,-6.963857263E-2,-6.172818318E-2,-6.725620627E-1,6.789695337E-1
3.667171061E0,-6.475165486E-2,-1.185385957E-1,-6.682859659E-1,6.817993163E-1
3.669616946E0,-6.108646840E-2,-1.686295271E-1,-6.652316451E-1,6.889852072E-1
3.672061946E0,-5.558868498E-2,-2.113900483E-1,-6.627882123E-1,6.978997555E-1
3.674506217E0,-5.131263286E-2,-2.486528009E-1,-6.579012871E-1,7.051916798E-1
3.676951269E0,-4.642571509E-2,-2.816394866E-1,-6.530143619E-1,7.126737712E-1
3.679397102E0,-4.214966297E-2,-3.085175455E-1,-6.475166082E-1,7.184966443E-1
3.681842154E0,-3.665187955E-2,-3.335630000E-1,-6.432405114E-1,7.255108481E-1
3.684286373E0,-3.176496178E-2,-3.549432755E-1,-6.377427578E-1,7.305542873E-1
3.686731425E0,-2.626718208E-2,-3.726583421E-1,-6.328558326E-1,7.348950331E-1
3.689177259E0,-2.260199189E-2,-3.897625506E-1,-6.261363029E-1,7.378837075E-1
3.691622311E0,-1.832594164E-2,-4.038124382E-1,-6.200276613E-1,7.401585143E-1
3.694066529E0,-1.343902200E-2,-4.160297215E-1,-6.114755869E-1,7.397051641E-1
3.696511582E0,-7.941240445E-3,-4.270252883E-1,-6.053669453E-1,7.408662488E-1
3.698957415E0,-4.276051652E-3,-4.361882806E-1,-5.992583036E-1,7.412078084E-1
3.701402467E0,1.221730839E-3,-4.416860640E-1,-5.907061696E-1,7.375783691E-1
3.703846738E0,5.497783888E-3,-4.422969222E-1,-5.821540952E-1,7.311362278E-1
3.706291738E0,1.221729629E-2,-4.404643178E-1,-5.699367523E-1,7.204068151E-1
3.708737623E0,1.771507785E-2,-4.343556762E-1,-5.577194691E-1,7.071277703E-1
3.711182623E0,2.504545450E-2,-4.239709675E-1,-5.442804694E-1,6.903766258E-1
3.713626894E0,2.993237227E-2,-4.105319381E-1,-5.320631862E-1,6.726987834E-1
3.716071946E0,3.665188700E-2,-3.970929384E-1,-5.174024105E-1,6.532468270E-1
3.718517779E0,4.276053235E-2,-3.799887002E-1,-5.039634109E-1,6.326128317E-1
3.720962832E0,4.886918142E-2,-3.616627753E-1,-4.917460978E-1,6.123743827E-1
3.723407050E0,5.619955808E-2,-3.402824998E-1,-4.789179265E-1,5.901804388E-1
3.725852102E0,6.169734150E-2,-3.164587915E-1,-4.673115015E-1,5.677435760E-1
3.728297936E0,6.475166231E-2,-2.895807326E-1,-4.557050765E-1,5.437985796E-1
3.730742988E0,6.963858008E-2,-2.590374947E-1,-4.471529722E-1,5.214362243E-1
3.733187207E0,7.269290835E-2,-2.242182046E-1,-4.379899800E-1,4.973864541E-1
3.735632259E0,7.757981867E-2,-1.893989146E-1,-4.288270175E-1,4.751664846E-1
3.738078092E0,8.307760209E-2,-1.521361768E-1,-4.208857715E-1,4.551836299E-1
3.740523144E0,9.040798247E-2,-1.130408272E-1,-4.147771299E-1,4.393084331E-1
3.742967415E0,9.896008670E-2,-7.272375375E-2,-4.074467421E-1,4.255522186E-1
3.745412415E0,1.069013253E-1,-3.118494712E-2,-4.031707048E-1,4.182666751E-1
3.747858300E0,1.172860265E-1,9.132123552E-3,-3.976729214E-1,4.147085243E-1
3.750303300E0,1.270598620E-1,5.616870895E-2,-3.940077424E-1,4.177813226E-1
3.752747571E0,1.368336976E-1,1.032052860E-1,-3.915642798E-1,4.274311372E-1
3.755192623E0,1.459966600E-1,1.508527249E-1,-3.885099590E-1,4.416011295E-1
3.757638457E0,1.551596373E-1,2.003327757E-1,-3.872882128E-1,4.628173439E-1
3.760083509E0,1.655443311E-1,2.479802072E-1,-3.866773546E-1,4.882811539E-1
3.762527727E0,1.771507710E-1,2.950167954E-1,-3.842338920E-1,5.158032464E-1
3.764972779E0,1.869246066E-1,3.359447420E-1,-3.824012876E-1,5.422457219E-1
3.767418613E0,1.966984421E-1,3.750400841E-1,-3.799578547E-1,5.689580944E-1
3.769863665E0,2.070831358E-1,4.086376429E-1,-3.793469667E-1,5.947875835E-1
3.772307884E0,2.156352401E-1,4.391808808E-1,-3.799578547E-1,6.194726581E-1
3.774752936E0,2.241873443E-1,4.654480517E-1,-3.781252503E-1,6.402191493E-1
3.777198769E0,2.309068590E-1,4.886609316E-1,-3.781252503E-1,6.596106341E-1
3.779643821E0,2.351829112E-1,5.075977445E-1,-3.799578547E-1,6.762650688E-1
3.782088092E0,2.388481051E-1,5.247019529E-1,-3.793469667E-1,6.901193215E-1
3.784533144E0,2.419024259E-1,5.405844450E-1,-3.775143921E-1,7.023285856E-1
3.786978977E0,2.425132841E-1,5.546343327E-1,-3.775143921E-1,7.134066528E-1
3.789423977E0,2.406806946E-1,5.631864071E-1,-3.769035339E-1,7.191400418E-1
3.791868248E0,2.394589633E-1,5.717385411E-1,-3.738491833E-1,7.238706835E-1
3.794313300E0,2.388481051E-1,5.772362947E-1,-3.701840043E-1,7.261448577E-1
3.796759134E0,2.382372320E-1,5.778471828E-1,-3.677405417E-1,7.251878731E-1
3.799204186E0,2.382372320E-1,5.711276531E-1,-3.640753627E-1,7.179795572E-1
3.801648404E0,2.382372320E-1,5.625755787E-1,-3.604101837E-1,7.093262725E-1
3.804093457E0,2.382372320E-1,5.479148030E-1,-3.579667211E-1,6.964967936E-1
3.806539290E0,2.370155007E-1,5.283671021E-1,-3.536906540E-1,6.785611402E-1
3.808984342E0,2.364046425E-1,5.100411773E-1,-3.506363332E-1,6.625518815E-1
3.811428561E0,2.339611799E-1,4.886609316E-1,-3.463602960E-1,6.430340538E-1
3.813873613E0,2.309068590E-1,4.685024023E-1,-3.426950872E-1,6.247018499E-1
3.816319446E0,2.290742695E-1,4.471221268E-1,-3.378081918E-1,6.053987047E-1
3.818764498E0,2.272416651E-1,4.281853139E-1,-3.329212666E-1,5.880629279E-1
3.821208769E0,2.272416651E-1,4.135245681E-1,-3.292560577E-1,5.753702237E-1
3.823653821E0,2.247982174E-1,3.976420760E-1,-3.255908787E-1,5.609481968E-1
3.826099654E0,2.211330235E-1,3.860356510E-1,-3.219256997E-1,5.491443290E-1
3.828544654E0,2.186895609E-1,3.774835467E-1,-3.176496327E-1,5.396482570E-1
3.830988925E0,2.131917775E-1,3.725966215E-1,-3.139844537E-1,5.318507436E-1
3.833433977E0,2.107483298E-1,3.677096963E-1,-3.121518493E-1,5.263687455E-1
3.835879811E0,2.058614045E-1,3.652662337E-1,-3.115409911E-1,5.223563233E-1
3.838324863E0,2.028070837E-1,3.634336591E-1,-3.103192747E-1,5.191462125E-1
3.840769082E0,2.015853524E-1,3.603793383E-1,-3.115409911E-1,5.172694761E-1
3.843214134E0,1.985310316E-1,3.603793383E-1,-3.127627373E-1,5.168252778E-1
3.845659967E0,2.003636211E-1,3.579358757E-1,-3.176496327E-1,5.188111033E-1
3.848105019E0,2.021962255E-1,3.554924130E-1,-3.194822371E-1,5.189673103E-1
3.850549290E0,2.028070837E-1,3.561032712E-1,-3.219256997E-1,5.211299350E-1
3.852994290E0,2.034179419E-1,3.554924130E-1,-3.243691623E-1,5.224644182E-1
3.855440123E0,2.028070837E-1,3.573250175E-1,-3.286451995E-1,5.261364352E-1
3.857885175E0,2.009744942E-1,3.603793383E-1,-3.323104084E-1,5.298058345E-1
3.860329446E0,1.979201585E-1,3.634336591E-1,-3.353647292E-1,5.326592863E-1
3.862774498E0,1.936441064E-1,3.689314425E-1,-3.365864456E-1,5.356294284E-1
3.865220332E0,1.905897856E-1,3.725966215E-1,-3.378081918E-1,5.378355540E-1
3.867665332E0,1.869246066E-1,3.780944049E-1,-3.402516246E-1,5.419108373E-1
3.870109602E0,1.844811440E-1,3.817595840E-1,-3.420842290E-1,5.447892181E-1
3.872554654E0,1.814268231E-1,3.848139048E-1,-3.420842290E-1,5.459112136E-1
3.875000488E0,1.795942187E-1,3.884791136E-1,-3.408625126E-1,5.471355934E-1
3.877445540E0,1.795942187E-1,3.939768970E-1,-3.408625126E-1,5.510527482E-1
3.879889759E0,1.789833605E-1,3.988637924E-1,-3.384190500E-1,5.528605807E-1
3.882334811E0,1.783724874E-1,4.061941803E-1,-3.359755874E-1,5.564980248E-1
3.884780644E0,1.820376813E-1,4.123028219E-1,-3.316995203E-1,5.596033472E-1
3.887225696E0,1.808159500E-1,4.196332097E-1,-3.292560577E-1,5.632015536E-1
3.889669967E0,1.808159500E-1,4.287961721E-1,-3.249800205E-1,5.676024831E-1
3.892114967E0,1.777616292E-1,4.410134852E-1,-3.219256997E-1,5.742196854E-1
3.894560800E0,1.747073084E-1,4.513981640E-1,-3.182605207E-1,5.792863758E-1
3.897005852E0,1.698203832E-1,4.611720145E-1,-3.152061701E-1,5.838437455E-1
3.899450123E0,1.637117416E-1,4.721675515E-1,-3.097083867E-1,5.879311319E-1
3.901895175E0,1.606574208E-1,4.782761931E-1,-3.060432076E-1,5.901028459E-1
3.904341009E0,1.569922268E-1,4.813305140E-1,-3.029888868E-1,5.900236338E-1
3.906786009E0,1.551596373E-1,4.843848944E-1,-2.999345660E-1,5.904777581E-1
3.909230279E0,1.533270329E-1,4.819414020E-1,-2.981019616E-1,5.870617288E-1
3.911675332E0,1.533270329E-1,4.746110439E-1,-2.993237078E-1,5.816867749E-1
3.914121165E0,1.527161747E-1,4.672806561E-1,-2.974911034E-1,5.746080387E-1
3.916566217E0,1.527161747E-1,4.550633729E-1,-2.987128496E-1,5.653620697E-1
3.919010436E0,1.514944434E-1,4.416243434E-1,-3.011562824E-1,5.555877370E-1
3.921455488E0,1.496618539E-1,4.275744557E-1,-3.048214912E-1,5.460171492E-1
3.923901321E0,1.496618539E-1,4.098593593E-1,-3.090975285E-1,5.347192226E-1
3.926346373E0,1.496618539E-1,3.939768970E-1,-3.133735955E-1,5.251851828E-1
3.928790592E0,1.502727121E-1,3.768726885E-1,-3.188713789E-1,5.160366922E-1
3.931235644E0,1.490509808E-1,3.579358757E-1,-3.219256997E-1,5.039548016E-1
3.933681477E0,1.496618539E-1,3.389990628E-1,-3.262017369E-1,4.936867511E-1
3.936126529E0,1.502727121E-1,3.176187873E-1,-3.286451995E-1,4.811145905E-1
3.938570800E0,1.508835852E-1,2.968493998E-1,-3.323104084E-1,4.704419517E-1
3.941015852E0,1.521053165E-1,2.724148035E-1,-3.335321248E-1,4.567160285E-1
3.943461686E0,1.527161747E-1,2.461476326E-1,-3.347538412E-1,4.426861430E-1
3.945906686E0,1.521053165E-1,2.168261111E-1,-3.353647292E-1,4.273395504E-1
3.948350957E0,1.521053165E-1,1.862828881E-1,-3.359755874E-1,4.131790617E-1
3.950796009E0,1.502727121E-1,1.514635980E-1,-3.365864456E-1,3.985141715E-1
3.953241842E0,1.472183913E-1,1.184769049E-1,-3.365864456E-1,3.860057863E-1
3.955686894E0,1.453858018E-1,8.610107750E-2,-3.341429830E-1,3.744355218E-1
3.958131113E0,1.423314810E-1,5.311438069E-2,-3.335321248E-1,3.665011134E-1
3.960576165E0,1.411097497E-1,2.134941891E-2,-3.310886621E-1,3.605377391E-1
3.963021998E0,1.368336976E-1,-3.696036292E-3,-3.298669457E-1,3.571404813E-1
3.965467050E0,1.343902349E-1,-2.446543425E-2,-3.262017369E-1,3.536479406E-1
3.967911321E0,1.331685036E-1,-4.156964645E-2,-3.213148415E-1,3.502928964E-1
3.970356321E0,1.282815933E-1,-5.012175441E-2,-3.158170581E-1,3.445413932E-1
3.972802154E0,1.252272576E-1,-5.073262006E-2,-3.109301329E-1,3.390180118E-1
3.975247207E0,1.209512204E-1,-4.890002310E-2,-3.029888868E-1,3.298828209E-1
3.977691477E0,1.172860265E-1,-4.156964645E-2,-2.938259244E-1,3.190888926E-1
3.980136477E0,1.123991087E-1,-3.423926979E-2,-2.864955366E-1,3.096539677E-1
3.982582363E0,1.099556535E-1,-2.507629991E-2,-2.785542905E-1,3.005188169E-1
3.985027363E0,1.081230566E-1,-1.713505760E-2,-2.730565071E-1,2.941837209E-1
3.987471634E0,1.081230566E-1,-9.193818085E-3,-2.675587237E-1,2.887261545E-1
3.989916686E0,1.087339222E-1,-1.252577407E-3,-2.626718283E-1,2.842905629E-1
3.992362519E0,1.099556535E-1,6.077799015E-3,-2.590066195E-1,2.814455797E-1
3.994807571E0,1.099556535E-1,1.340817567E-2,-2.596175075E-1,2.822610053E-1
